timestamp,accX,accY,accZ,step
30211,-137,45,188,0
30222,-136,45,188,0
30233,-135,45,190,0
30243,-134,45,189,0
30253,-130,43,187,0
30264,-136,46,171,0
30275,-136,45,186,0
30286,-135,47,187,0
30297,-137,46,188,0
30308,-136,46,188,0
30319,-136,47,189,0
30330,-135,45,187,0
30341,-132,45,189,0
30351,-135,47,189,0
30362,-134,46,189,0
30373,-132,45,189,0
30384,-131,46,188,0
30395,-132,46,187,0
30406,-132,46,188,0
30417,-133,46,187,0
30428,-132,46,188,0
30439,-133,47,187,0
30450,-136,47,188,0
30461,-137,46,189,0
30472,-136,44,187,0
30483,-135,45,188,0
30494,-134,45,188,0
30505,-133,45,187,0
30516,-134,46,186,0
30527,-134,46,187,0
30538,-134,48,186,0
30549,-135,48,186,0
30560,-137,49,186,0
30571,-138,51,188,0
30582,-140,53,189,0
30593,-140,54,189,0
30604,-140,53,189,0
30615,-141,53,188,0
30626,-137,53,190,0
30637,-138,48,190,0
30648,-135,48,189,0
30659,-134,47,190,0
30670,-136,46,194,0
30681,-137,47,195,0
30692,-137,46,193,0
30703,-136,45,189,0
30714,-139,47,183,0
30725,-143,49,178,0
30736,-144,49,176,0
30747,-142,49,178,0
30758,-141,51,180,0
30769,-137,51,184,0
30780,-133,47,186,0
30791,-131,44,186,0
30802,-131,43,184,0
30813,-133,44,187,0
30824,-133,45,188,0
30835,-131,43,190,0
30846,-131,41,191,0
30857,-130,40,192,0
30868,-128,40,192,0
30879,-127,40,191,0
30890,-128,41,190,0
30901,-129,41,190,0
30912,-130,41,190,0
30923,-130,42,188,0
30934,-132,42,190,0
30945,-133,43,187,0
30956,-131,43,187,0
30967,-132,45,185,0
30978,-133,44,182,0
30990,-135,45,181,0
31001,-138,47,182,0
31012,-138,46,185,0
31023,-140,48,187,0
31034,-141,48,190,0
31045,-139,46,187,0
31056,-141,47,186,0
31067,-144,47,184,0
31078,-145,48,183,0
31089,-146,45,184,0
31100,-144,48,185,0
31111,-141,48,190,0
31122,-138,48,192,0
31133,-134,47,198,0
31144,-131,46,199,0
31155,-131,44,200,0
31166,-129,41,197,0
31177,-130,39,193,0
31188,-130,38,189,0
31199,-132,35,187,0
31210,-133,34,186,0
31221,-132,33,184,0
31232,-133,35,183,0
31243,-133,36,184,0
31254,-132,36,187,0
31265,-132,38,189,0
31276,-132,37,191,0
31287,-130,38,190,0
31298,-131,38,190,0
31309,-133,39,189,0
31320,-137,40,187,0
31331,-140,41,186,0
31342,-140,43,185,0
31353,-140,41,186,0
31364,-139,43,190,0
31375,-139,41,189,0
31386,-138,41,189,0
31397,-137,41,188,0
31408,-138,39,187,0
31419,-138,38,189,0
31430,-138,37,186,0
31441,-139,36,187,0
31452,-140,35,188,0
31463,-139,36,187,0
31474,-137,34,186,0
31485,-137,35,186,0
31496,-138,34,186,0
31507,-138,33,185,0
31518,-136,33,186,0
31529,-135,35,184,0
31540,-135,34,183,0
31551,-137,34,184,0
31562,-138,34,184,0
31573,-140,32,185,0
31584,-141,31,187,0
31595,-140,29,185,0
31606,-141,30,183,0
31617,-142,29,182,0
31628,-143,30,182,0
31639,-145,31,184,0
31650,-145,33,185,0
31661,-147,34,187,0
31672,-147,34,190,0
31683,-145,33,192,0
31694,-143,33,189,0
31705,-142,32,192,0
31716,-141,29,194,0
31727,-135,32,190,0
31738,-134,33,187,0
31749,-132,36,187,0
31760,-133,38,191,0
31771,-133,38,194,0
31782,-130,40,191,0
31793,-132,40,189,0
31804,-134,38,187,0
31815,-134,41,185,0
31826,-136,40,186,0
31837,-139,39,190,0
31848,-137,39,189,0
31859,-138,42,191,0
31870,-137,42,193,0
31881,-132,42,189,0
31892,-133,41,186,0
31903,-134,38,186,0
31914,-135,39,186,0
31925,-139,39,186,0
31936,-136,40,188,0
31947,-134,41,188,0
31958,-133,40,191,0
31969,-132,39,191,0
31980,-131,38,192,0
31991,-132,37,189,0
32002,-134,38,190,0
32013,-134,39,192,0
32024,-136,40,191,0
32035,-136,39,193,0
32046,-135,40,189,0
32057,-136,40,189,0
32069,-135,40,189,0
32080,-134,39,188,0
32091,-133,40,188,0
32102,-133,42,188,0
32113,-132,40,191,0
32124,-130,41,192,0
32135,-132,40,190,0
32146,-133,41,189,0
32157,-133,41,190,0
32168,-139,39,193,0
32179,-128,36,194,0
32190,-125,31,192,0
32201,-129,31,187,0
32212,-129,31,184,0
32223,-128,33,187,0
32234,-139,36,193,0
32245,-133,39,194,0
32256,-128,38,194,0
32267,-136,38,197,0
32278,-129,39,195,0
32289,-131,39,192,0
32300,-134,41,190,0
32311,-129,40,192,0
32322,-126,40,190,0
32333,-129,39,186,0
32344,-130,41,190,0
32355,-129,43,193,0
32366,-132,41,196,0
32377,-127,41,199,0
32388,-117,38,201,0
32399,-126,35,197,0
32410,-127,33,195,0
32421,-117,33,191,0
32432,-124,32,185,0
32443,-128,31,184,0
32454,-122,31,186,0
32465,-131,35,189,0
32476,-128,38,196,0
32487,-133,40,196,0
32498,-124,44,204,0
32509,-129,44,199,0
32520,-134,37,193,0
32531,-131,34,191,0
32542,-124,34,192,0
32553,-124,39,200,0
32564,-121,40,203,0
32575,-130,38,201,0
32586,-124,40,201,0
32597,-129,34,206,0
32608,-128,33,202,0
32619,-119,33,191,0
32630,-133,32,178,0
32641,-130,34,176,0
32652,-133,34,175,0
32663,-134,31,173,0
32674,-141,29,169,0
32685,-137,31,173,0
32696,-151,29,175,0
32707,-160,35,187,0
32718,-168,37,190,0
32729,-183,39,193,0
32740,-178,40,193,0
32751,-177,39,186,0
32762,-183,36,177,0
32773,-184,40,177,0
32784,-182,39,182,0
32795,-174,35,186,0
32806,-167,31,182,0
32817,-163,24,180,0
32828,-158,11,183,0
32839,-158,3,182,0
32850,-127,0,182,0
32861,-131,0,156,0
32872,-132,9,147,0
32883,-133,12,159,0
32894,-136,18,172,0
32905,-144,22,182,0
32916,-136,26,186,0
32927,-149,27,190,0
32938,-153,24,193,0
32949,-127,22,195,0
32960,-119,21,191,0
32971,-128,29,195,0
32982,-142,31,191,0
32993,-151,27,175,0
33004,-153,27,159,0
33015,-145,38,152,0
33026,-155,44,160,0
33037,-148,42,177,0
33048,-136,40,188,0
33059,-125,40,194,0
33070,-109,39,196,0
33081,-108,37,191,0
33092,-130,34,195,0
33103,-106,37,200,0
33114,-97,42,188,0
33125,-114,48,173,0
33136,-140,60,166,0
33148,-148,59,169,0
33159,-151,58,177,0
33170,-152,58,185,0
33181,-153,56,191,0
33192,-150,52,195,0
33203,-142,51,193,0
33214,-142,56,192,0
33226,-143,61,190,0
33236,-147,61,187,0
33247,-151,62,190,0
33258,-148,60,194,0
33269,-144,61,199,0
33280,-140,60,191,0
33291,-139,58,193,0
33302,-137,57,191,0
33313,-137,59,191,0
33324,-136,61,191,0
33335,-139,61,189,0
33346,-139,61,189,0
33357,-142,59,192,0
33368,-150,51,189,0
33379,-142,53,190,0
33390,-131,59,192,0
33401,-132,63,189,0
33412,-130,60,187,0
33423,-127,61,188,0
33434,-125,61,189,0
33445,-122,59,182,0
33456,-123,61,190,0
33467,-118,57,198,0
33478,-112,54,201,0
33489,-104,49,204,0
33500,-96,45,198,0
33511,-90,44,192,0
33522,-105,47,190,0
33533,-112,50,189,0
33544,-110,52,192,0
33555,-127,48,195,0
33566,-130,48,192,0
33577,-129,52,197,0
33588,-141,54,204,0
33599,-131,57,198,0
33610,-141,54,198,0
33621,-141,56,199,0
33632,-132,50,192,0
33643,-140,48,194,0
33654,-130,49,194,0
33665,-127,49,191,0
33676,-139,45,186,0
33687,-141,49,188,0
33698,-136,55,184,0
33709,-129,57,187,0
33720,-131,54,192,0
33731,-130,56,193,0
33742,-123,58,189,0
33753,-126,63,191,0
33764,-127,62,197,0
33775,-126,62,193,0
33786,-126,63,193,0
33797,-126,64,192,0
33808,-131,62,185,0
33819,-130,64,184,0
33830,-135,65,187,0
33841,-140,65,190,0
33852,-135,63,188,0
33863,-131,62,192,0
33874,-126,63,194,0
33885,-133,61,197,0
33896,-123,57,193,0
33907,-111,56,184,0
33918,-121,51,186,0
33929,-113,60,184,0
33940,-124,58,191,0
33951,-121,60,195,0
33962,-125,53,197,0
33973,-118,53,195,0
33985,-118,51,192,0
33996,-115,51,191,0
34007,-119,54,193,0
34018,-120,52,192,0
34029,-117,51,207,0
34040,-106,54,209,0
34051,-121,54,217,0
34062,-126,53,221,0
34073,-135,42,210,0
34084,-135,36,206,0
34095,-128,35,205,0
34106,-120,40,195,0
34118,-108,45,185,0
34129,-119,44,169,0
34140,-130,48,168,0
34151,-138,49,169,0
34162,-152,48,179,0
34173,-152,46,195,0
34184,-133,39,204,0
34195,-125,37,206,0
34206,-123,33,211,0
34217,-118,32,192,0
34228,-115,34,178,0
34239,-126,39,176,0
34250,-129,46,174,0
34261,-127,49,171,0
34272,-132,43,171,0
34283,-136,42,181,0
34294,-130,45,181,0
34305,-131,44,180,0
34316,-136,46,179,0
34327,-141,48,173,0
34338,-146,44,170,0
34349,-158,39,169,0
34360,-151,37,171,0
34371,-162,40,161,0
34382,-171,42,158,0
34393,-176,44,154,0
34404,-177,45,168,0
34415,-176,52,166,0
34427,-164,49,171,0
34438,-177,44,178,0
34449,-176,38,185,0
34460,-157,31,179,0
34471,-146,23,173,0
34482,-136,18,162,0
34493,-135,15,153,0
34504,-129,23,160,0
34515,-151,30,184,0
34526,-146,34,183,0
34537,-150,34,181,0
34548,-166,36,187,0
34559,-177,33,183,0
34570,-189,30,179,0
34581,-193,27,176,0
34592,-188,25,173,0
34603,-178,21,165,0
34614,-171,20,162,0
34625,-169,29,161,0
34636,-170,37,177,0
34647,-170,38,196,0
34658,-165,35,206,0
34669,-152,40,194,0
34680,-154,29,196,0
34691,-155,32,193,0
34702,-157,38,176,0
34713,-167,41,171,0
34724,-166,44,184,0
34735,-168,42,184,0
34746,-170,38,183,0
34757,-162,33,181,0
34768,-162,27,175,0
34779,-155,16,184,0
34790,-144,7,190,0
34801,-135,6,169,0
34812,-128,4,157,0
34823,-118,8,161,0
34834,-146,20,166,0
34845,-166,30,178,0
34856,-164,18,211,0
34867,-123,27,217,0
34878,-127,22,185,0
34889,-137,25,171,0
34900,-134,5,180,0
34911,-133,0,183,0
34922,-145,-6,177,0
34933,-148,1,165,0
34944,-147,10,164,0
34955,-150,14,150,0
34966,-161,14,150,0
34977,-165,12,162,0
34988,-161,11,175,0
34999,-134,3,192,0
35010,-127,-5,187,0
35021,-125,-6,182,0
35032,-127,0,177,0
35043,-130,5,175,0
35054,-135,14,176,0
35065,-142,28,176,0
35076,-148,36,169,0
35087,-153,29,161,0
35098,-157,21,161,0
35109,-163,2,238,0
35120,-128,26,262,0
35131,-126,33,220,0
35142,-131,34,203,0
35153,-134,41,197,0
35164,-133,39,190,0
35175,-134,38,189,0
35186,-130,39,183,0
35197,-129,44,173,0
35208,-131,51,165,0
35220,-137,58,160,0
35231,-148,64,157,0
35242,-158,70,161,0
35253,-165,71,167,0
35264,-165,70,176,0
35275,-163,70,193,0
35286,-159,71,215,0
35298,-126,64,249,0
35309,-108,64,213,0
35320,-111,64,186,0
35331,-118,65,179,0
35342,-124,67,181,0
35353,-127,68,179,0
35364,-133,68,181,0
35375,-137,70,187,0
35386,-134,70,189,0
35397,-133,68,193,0
35408,-129,66,190,0
35419,-123,69,183,0
35430,-123,69,175,0
35441,-121,74,173,0
35452,-124,74,176,0
35463,-131,75,174,0
35474,-136,75,176,0
35485,-140,71,177,0
35496,-150,66,178,0
35507,-151,63,182,0
35518,-146,62,184,0
35529,-140,59,191,0
35540,-130,53,202,0
35551,-128,52,200,0
35562,-124,51,188,0
35573,-123,55,182,0
35584,-126,61,179,0
35595,-137,62,184,0
35606,-151,60,182,0
35617,-150,64,173,0
35628,-151,63,172,0
35639,-143,64,175,0
35650,-136,60,183,0
35661,-134,56,186,0
35672,-130,55,181,0
35683,-133,57,180,0
35694,-141,56,179,0
35705,-143,60,175,0
35716,-150,56,179,0
35727,-151,57,175,0
35738,-155,52,176,0
35749,-152,52,175,0
35760,-141,47,185,0
35771,-140,46,186,0
35782,-137,41,181,0
35793,-129,45,185,0
35804,-135,43,182,0
35815,-136,44,182,0
35826,-137,41,185,0
35837,-140,45,184,0
35848,-140,51,184,0
35859,-141,55,183,0
35870,-143,55,185,0
35881,-145,57,189,0
35892,-137,55,188,0
35903,-142,49,178,0
35914,-137,46,162,0
35925,-139,43,163,0
35936,-146,48,168,0
35947,-142,48,173,0
35958,-139,53,180,0
35969,-151,52,184,0
35980,-158,50,186,0
35991,-146,52,187,0
36002,-161,49,183,0
36013,-164,53,183,0
36024,-153,51,183,0
36035,-155,52,178,0
36046,-151,50,180,0
36057,-146,50,183,0
36068,-154,49,183,0
36079,-156,57,174,0
36090,-156,49,170,0
36101,-157,50,171,0
36112,-157,50,168,0
36123,-162,52,171,0
36134,-160,56,175,0
36145,-153,61,180,0
36156,-153,60,182,0
36167,-152,61,184,0
36178,-147,59,181,0
36189,-140,61,182,0
36200,-149,64,180,0
36211,-156,67,179,0
36222,-159,66,199,0
36233,-163,62,177,0
36244,-173,62,200,0
36255,-161,63,202,0
36266,-161,60,190,0
36277,-157,47,171,0
36288,-156,40,158,0
36299,-159,30,147,0
36310,-155,25,151,0
36321,-150,27,160,0
36332,-153,29,157,0
36343,-156,29,163,0
36354,-152,33,171,0
36365,-150,32,173,0
36376,-152,33,171,0
36387,-149,40,167,0
36398,-152,39,172,0
36409,-157,40,173,0
36420,-151,38,178,0
36431,-146,37,180,0
36442,-149,31,184,0
36453,-143,28,185,0
36464,-148,24,175,0
36475,-150,20,173,0
36486,-148,20,182,0
36497,-151,20,180,0
36508,-152,22,185,0
36519,-154,20,186,0
36530,-152,22,183,0
36541,-152,22,181,0
36552,-152,24,186,0
36563,-144,26,180,0
36574,-143,28,175,0
36585,-143,32,172,0
36596,-144,34,171,0
36607,-147,37,170,0
36618,-148,41,170,0
36629,-151,47,169,0
36640,-152,51,171,0
36651,-149,52,167,0
36662,-147,47,166,0
36673,-144,38,165,0
36684,-143,33,167,0
36695,-147,35,173,0
36706,-145,45,187,0
36717,-141,50,205,0
36728,-141,56,206,0
36739,-143,59,203,0
36750,-146,63,196,0
36761,-147,65,191,0
36772,-147,66,191,0
36783,-141,64,194,0
36794,-136,58,197,0
36805,-133,52,196,0
36816,-129,45,193,0
36827,-129,40,187,0
36838,-131,37,182,0
36849,-133,38,179,0
36860,-133,39,179,0
36871,-133,40,180,0
36882,-133,41,182,0
36893,-133,43,186,0
36904,-132,46,186,0
36915,-132,48,183,0
36926,-130,50,185,0
36937,-128,51,185,0
36948,-128,54,183,0
36959,-130,57,183,0
36970,-135,62,183,0
36981,-138,64,184,0
36992,-144,63,186,0
37003,-148,61,184,0
37014,-148,59,186,0
37025,-143,56,187,0
37036,-132,56,180,0
37047,-133,57,182,0
37058,-134,58,181,0
37069,-138,58,176,0
37080,-141,61,177,0
37091,-145,62,180,0
37103,-143,63,182,0
37114,-137,64,185,0
37125,-134,62,184,0
37136,-134,63,184,0
37147,-131,66,185,0
37158,-131,65,185,0
37169,-135,65,187,0
37180,-137,64,186,0
37191,-137,65,186,0
37202,-138,65,193,0
37213,-129,62,189,0
37224,-121,56,179,0
37235,-116,55,177,0
37246,-112,57,178,0
37257,-113,57,178,0
37268,-124,60,173,0
37279,-130,64,177,0
37290,-140,69,179,0
37301,-149,72,183,0
37312,-147,73,184,0
37323,-150,71,182,0
37334,-143,70,188,0
37345,-143,70,187,0
37356,-140,71,188,0
37367,-138,70,188,0
37378,-130,66,188,0
37389,-132,61,183,0
37400,-130,60,180,0
37411,-126,59,178,0
37422,-129,62,177,0
37433,-135,63,179,0
37444,-137,66,181,0
37455,-137,68,181,0
37466,-142,68,182,0
37477,-146,68,183,0
37488,-139,67,187,0
37499,-138,64,187,0
37510,-132,62,186,0
37521,-135,61,184,0
37532,-132,62,180,0
37543,-130,64,180,0
37554,-144,64,182,0
37565,-148,65,187,0
37576,-138,65,188,0
37587,-144,64,187,0
37598,-142,64,185,0
37609,-131,59,182,0
37620,-136,61,182,0
37631,-139,60,180,0
37642,-135,60,180,0
37653,-138,63,183,0
37664,-143,65,186,0
37675,-132,67,188,0
37686,-137,68,187,0
37697,-136,68,185,0
37708,-141,68,182,0
37719,-142,66,182,0
37730,-142,64,180,0
37741,-138,64,178,0
37752,-138,65,177,0
37763,-143,65,177,0
37774,-140,65,179,0
37785,-141,64,181,0
37796,-136,64,184,0
37807,-136,62,180,0
37818,-135,63,179,0
37829,-132,59,179,0
37840,-133,51,177,0
37851,-136,47,175,0
37862,-130,45,175,0
37873,-131,46,178,0
37884,-134,47,180,0
37895,-134,48,185,0
37906,-129,49,188,0
37917,-132,48,191,0
37928,-129,49,194,0
37939,-130,48,194,0
37950,-132,50,198,0
37961,-125,50,202,0
37972,-106,41,194,0
37983,-115,44,191,0
37994,-116,47,192,0
38005,-127,47,192,0
38016,-132,46,192,0
38027,-132,46,191,0
38038,-134,43,191,0
38049,-127,50,192,0
38060,-128,56,195,0
38071,-126,60,192,0
38082,-130,64,188,0
38093,-134,70,186,0
38104,-139,71,172,0
38115,-145,70,177,0
38126,-154,68,201,0
38137,-147,66,208,0
38148,-141,68,209,0
38159,-131,66,210,0
38170,-113,66,202,0
38181,-93,66,188,0
38192,-96,68,169,0
38203,-103,71,163,0
38214,-118,76,169,0
38225,-120,73,175,0
38236,-105,75,183,0
38247,-109,72,187,0
38258,-122,70,186,0
38269,-124,75,191,0
38280,-124,77,185,0
38291,-143,70,196,0
38302,-141,70,203,0
38313,-145,65,208,0
38324,-141,60,208,0
38335,-133,63,212,0
38346,-159,53,215,0
38357,-139,40,219,0
38368,-97,42,209,0
38379,-82,45,191,0
38390,-88,46,179,0
38401,-105,45,197,0
38412,-122,51,216,0
38423,-122,51,232,0
38434,-123,59,218,0
38445,-128,64,190,0
38456,-133,62,182,0
38467,-137,58,184,0
38478,-127,51,190,0
38489,-125,47,208,0
38500,-126,49,220,0
38511,-114,57,226,0
38522,-111,61,222,0
38533,-120,64,201,0
38544,-110,68,188,0
38555,-121,57,193,0
38566,-118,59,194,0
38577,-100,60,205,0
38588,-104,56,212,0
38599,-100,57,210,0
38610,-94,50,208,0
38621,-82,55,194,0
38632,-84,49,195,0
38643,-95,46,202,0
38654,-91,48,210,0
38665,-93,43,220,0
38676,-91,40,230,0
38687,-90,41,235,0
38698,-79,43,224,0
38709,-82,40,213,0
38720,-99,40,207,0
38731,-109,23,201,0
38742,-113,23,196,0
38753,-99,30,191,0
38764,-121,28,199,0
38775,-120,38,206,0
38786,-115,47,215,0
38797,-116,49,212,0
38808,-112,43,203,0
38819,-107,33,196,0
38830,-95,30,196,0
38841,-86,30,199,0
38852,-78,31,202,0
38863,-74,34,209,0
38874,-74,30,219,0
38885,-68,29,223,0
38896,-59,25,229,0
38907,-58,24,226,0
38918,-56,23,219,0
38929,-76,18,203,0
38940,-90,19,200,0
38951,-97,19,200,0
38962,-100,9,201,0
38973,-90,14,209,0
38984,-80,14,225,0
38995,-79,11,234,0
39006,-77,19,233,0
39017,-81,17,232,0
39028,-75,10,230,0
39039,-68,10,225,0
39050,-69,10,226,0
39061,-73,17,221,0
39072,-78,19,221,0
39083,-72,14,225,0
39094,-65,12,234,0
39105,-62,8,230,0
39116,-64,12,217,0
39127,-72,15,200,0
39138,-81,12,198,0
39149,-89,8,197,0
39160,-92,10,195,0
39171,-93,15,198,0
39182,-92,12,200,0
39193,-93,8,207,0
39204,-84,6,209,0
39215,-77,10,211,0
39226,-72,12,215,0
39237,-68,12,218,0
39248,-72,11,213,0
39259,-71,12,211,0
39270,-70,11,213,0
39281,-68,8,217,0
39292,-70,8,213,0
39303,-73,5,213,0
39314,-76,7,202,0
39325,-83,6,199,0
39336,-85,5,205,0
39347,-83,9,212,0
39358,-78,13,213,0
39369,-78,15,210,0
39380,-81,18,209,0
39391,-84,21,211,0
39402,-90,21,211,0
39413,-109,17,208,0
39424,-113,25,203,0
39435,-117,25,197,0
39446,-118,23,195,0
39457,-117,25,202,0
39468,-113,25,214,0
39479,-109,23,220,0
39490,-107,25,223,0
39501,-105,24,221,0
39512,-102,21,224,0
39523,-104,14,222,0
39534,-102,13,213,0
39545,-104,16,206,0
39556,-105,18,205,0
39567,-99,28,211,0
39578,-96,34,216,0
39589,-90,38,219,0
39600,-86,42,216,0
39611,-88,41,212,0
39622,-91,40,206,0
39633,-97,40,198,0
39644,-100,36,197,0
39655,-98,31,194,0
39666,-100,31,192,0
39677,-99,31,193,0
39688,-97,31,196,0
39699,-93,32,199,0
39710,-93,36,205,0
39721,-91,36,208,0
39732,-93,40,208,0
39743,-98,39,209,0
39754,-101,37,207,0
39766,-104,39,202,0
39777,-108,41,199,0
39788,-118,41,194,0
39799,-123,42,194,0
39810,-123,43,196,0
39821,-122,44,198,0
39832,-122,45,197,0
39843,-124,45,195,0
39854,-129,47,194,0
39865,-138,49,194,0
39876,-144,43,194,0
39887,-149,46,193,0
39898,-154,51,198,0
39909,-156,51,198,0
39920,-158,51,197,0
39931,-159,49,195,0
39942,-156,48,190,0
39953,-158,48,185,0
39964,-157,48,184,0
39975,-157,48,184,0
39986,-157,48,185,0
39997,-158,50,188,0
40008,-155,50,190,0
40019,-152,53,192,0
40030,-152,54,186,0
40041,-151,52,183,0
40053,-148,49,178,0
40064,-145,45,173,0
40075,-136,42,171,0
40086,-130,41,172,0
40097,-127,42,177,0
40108,-120,40,183,0
40119,-125,42,188,0
40130,-126,39,193,0
40141,-127,38,195,0
40152,-132,40,193,0
40163,-135,39,193,0
40174,-137,37,190,0
40185,-146,36,185,0
40196,-150,35,183,0
40207,-154,35,181,0
40218,-158,36,185,0
40229,-160,38,188,0
40240,-160,39,191,0
40251,-162,40,190,0
40262,-163,39,187,0
40273,-162,40,185,0
40284,-158,40,182,0
40295,-153,38,178,0
40306,-151,36,174,0
40317,-148,35,172,0
40328,-148,36,169,0
40340,-138,25,162,0
40351,-180,44,184,0
40362,-139,34,175,0
40373,-157,44,183,0
40384,-152,47,190,0
40395,-146,45,185,0
40406,-147,44,183,0
40417,-142,41,182,0
40428,-140,40,178,0
40439,-137,38,176,0
40450,-141,39,176,0
40461,-145,38,179,0
40472,-146,39,183,0
40483,-146,38,188,0
40494,-146,39,185,0
40505,-147,40,184,0
40516,-147,41,182,0
40527,-142,39,182,0
40538,-140,39,180,0
40549,-140,39,183,0
40560,-136,37,184,0
40571,-138,40,185,0
40582,-143,42,186,0
40593,-137,42,183,0
40604,-134,46,190,0
40615,-134,47,188,0
40626,-122,40,185,0
40637,-145,47,186,0
40648,-140,52,192,0
40659,-139,51,188,0
40670,-135,47,188,0
40681,-132,44,187,0
40692,-128,43,185,0
40703,-125,41,186,0
40714,-126,42,185,0
40726,-126,40,184,0
40737,-126,39,185,0
40748,-131,38,178,0
40759,-120,32,179,0
40770,-145,39,186,0
40781,-153,42,190,0
40792,-140,40,191,0
40803,-137,41,190,0
40814,-139,42,188,0
40825,-138,44,190,0
40836,-137,43,186,0
40847,-141,44,179,0
40858,-138,46,185,0
40870,-143,48,183,0
40880,-153,52,188,0
40891,-140,47,179,0
40902,-106,39,184,0
40913,-142,45,178,0
40924,-158,45,180,0
40935,-142,42,183,0
40946,-140,47,182,0
40957,-145,49,183,0
40968,-149,52,185,0
40979,-143,52,186,0
40990,-149,55,187,0
41001,-148,54,187,0
41012,-147,54,183,0
41023,-145,51,180,0
41034,-145,50,179,0
41045,-144,47,177,0
41056,-145,45,178,0
41067,-146,46,182,0
41078,-140,45,186,0
41089,-142,47,189,0
41100,-144,48,187,0
41111,-142,47,182,0
41123,-136,49,182,0
41134,-137,44,179,0
41145,-141,46,179,0
41156,-139,43,182,0
41167,-135,46,188,0
41178,-150,47,183,0
41190,-145,48,188,0
41201,-134,40,184,0
41212,-129,41,191,0
41223,-126,40,188,0
41234,-133,43,182,0
41245,-151,57,187,0
41256,-160,61,183,0
41267,-158,59,177,0
41278,-154,53,174,0
41289,-135,41,174,0
41300,-131,41,179,0
41311,-131,40,182,0
41322,-145,48,182,0
41333,-161,59,187,0
41344,-162,57,182,0
41355,-156,62,187,0
41366,-157,66,184,0
41377,-156,66,182,0
41388,-144,58,173,0
41399,-123,38,168,0
41410,-122,36,171,0
41421,-130,38,178,0
41432,-135,42,186,0
41443,-138,49,194,0
41454,-146,56,196,0
41465,-159,54,189,0
41476,-148,59,189,0
41487,-130,53,185,0
41498,-145,58,178,0
41509,-144,55,175,0
41520,-134,51,175,0
41531,-134,49,176,0
41542,-135,49,181,0
41553,-136,53,187,0
41564,-141,52,187,0
41575,-133,46,181,0
41586,-152,59,183,0
41597,-156,55,177,0
41608,-154,54,179,0
41619,-151,54,176,0
41630,-146,54,173,0
41641,-140,53,179,0
41652,-143,57,182,0
41663,-148,55,182,0
41674,-144,56,183,0
41685,-138,58,185,0
41696,-133,54,185,0
41707,-135,52,187,0
41718,-143,56,186,0
41729,-136,48,186,0
41740,-135,48,186,0
41751,-146,48,181,0
41762,-149,46,179,0
41773,-148,46,178,0
41784,-148,47,181,0
41795,-147,47,186,0
41806,-140,44,187,0
41817,-135,41,189,0
41828,-135,41,185,0
41839,-137,41,184,0
41850,-137,38,183,0
41861,-140,40,181,0
41872,-142,40,178,0
41883,-145,45,184,0
41894,-146,49,186,0
41905,-146,50,187,0
41916,-146,52,186,0
41927,-145,53,183,0
41938,-143,50,184,0
41949,-139,46,182,0
41960,-136,44,181,0
41971,-136,42,179,0
41982,-136,40,178,0
41993,-141,37,178,0
42004,-141,36,179,0
42015,-139,36,183,0
42026,-139,36,184,0
42037,-140,33,190,0
42048,-140,33,191,0
42059,-133,30,192,0
42070,-129,27,190,0
42081,-127,27,187,0
42092,-128,27,182,0
42103,-128,30,183,0
42114,-130,33,186,0
42125,-134,36,190,0
42136,-136,38,192,0
42147,-135,40,195,0
42158,-137,41,195,0
42169,-138,40,194,0
42180,-137,38,194,0
42191,-139,38,193,0
42202,-139,39,193,0
42213,-139,40,194,0
42224,-137,39,195,0
42235,-137,40,197,0
42246,-136,41,199,0
42257,-138,43,199,0
42268,-134,43,198,0
42279,-132,44,196,0
42290,-130,44,195,0
42301,-129,44,198,0
42312,-128,42,198,0
42323,-129,39,198,0
42334,-132,37,206,0
42345,-135,34,207,0
42356,-136,26,208,0
42367,-136,24,206,0
42378,-135,23,201,0
42389,-134,19,200,0
42400,-130,19,201,0
42411,-126,17,200,0
42422,-121,18,199,0
42433,-116,21,200,0
42444,-116,20,205,0
42455,-114,21,216,0
42466,-113,24,217,0
42477,-115,23,212,0
42489,-117,22,210,0
42500,-121,21,208,0
42511,-123,23,203,0
42522,-128,24,201,0
42533,-127,25,198,0
42544,-119,35,204,0
42555,-114,43,211,0
42566,-112,48,218,0
42577,-112,50,220,0
42588,-108,49,219,0
42599,-101,47,217,0
42610,-93,40,211,0
42621,-85,36,201,0
42632,-78,30,196,0
42643,-67,26,195,0
42654,-62,27,197,0
42665,-55,32,205,0
42676,-60,29,205,0
42687,-60,25,208,0
42698,-55,22,207,0
42709,-47,19,204,0
42720,-40,18,200,0
42731,-37,22,200,0
42742,-35,25,198,0
42753,-44,22,202,0
42764,-46,23,207,0
42775,-54,18,210,0
42786,-62,15,213,0
42797,-71,10,211,0
42808,-80,13,211,0
42819,-87,12,221,0
42830,-79,17,240,0
42841,-83,14,235,0
42852,-86,21,235,0
42863,-73,26,226,0
42874,-75,23,207,0
42885,-82,19,196,0
42896,-90,18,193,0
42907,-79,23,193,0
42918,-82,17,195,0
42929,-90,18,205,0
42940,-87,21,215,0
42951,-85,16,217,0
42962,-88,10,211,0
42973,-95,6,216,0
42984,-99,7,222,0
42995,-102,12,223,0
43006,-107,18,223,0
43017,-111,21,216,0
43028,-108,22,209,0
43039,-104,17,200,0
43050,-109,17,197,0
43061,-107,13,203,0
43072,-96,10,204,0
43083,-91,7,208,0
43094,-91,2,212,0
43105,-82,-1,210,0
43116,-78,-1,206,0
43127,-80,-1,212,0
43138,-87,2,202,0
43149,-105,14,201,0
43160,-116,19,206,0
43171,-120,22,205,0
43182,-114,24,204,0
43193,-109,23,202,0
43204,-97,21,200,0
43215,-98,19,196,0
43226,-97,18,198,0
43237,-97,21,201,0
43248,-105,21,205,0
43259,-104,21,211,0
43270,-97,18,213,0
43281,-110,21,221,0
43292,-101,23,223,0
43303,-108,19,219,0
43314,-118,22,222,0
43326,-119,26,217,0
43337,-121,26,211,0
43348,-125,30,209,0
43359,-114,28,204,0
43370,-110,25,198,0
43381,-99,20,196,0
43392,-102,22,201,0
43403,-108,22,209,0
43415,-104,24,216,0
43426,-102,27,222,0
43437,-109,29,224,0
43448,-108,25,224,0
43459,-113,20,212,0
43470,-111,17,205,0
43481,-100,19,199,0
43492,-103,21,196,0
43503,-115,25,202,0
43514,-106,29,206,0
43525,-107,27,207,0
43536,-115,28,223,0
43547,-114,22,220,0
43558,-118,18,214,0
43569,-104,16,203,0
43580,-112,17,200,0
43591,-120,22,208,0
43602,-96,32,229,0
43613,-96,33,221,0
43624,-91,32,212,0
43635,-85,26,194,0
43646,-87,21,188,0
43657,-92,19,187,0
43668,-82,18,193,0
43679,-92,23,204,0
43690,-97,24,222,0
43701,-83,23,225,0
43712,-78,17,217,0
43723,-82,16,223,0
43734,-81,11,209,0
43745,-86,14,205,0
43756,-91,32,214,0
43767,-121,39,215,0
43778,-101,42,224,0
43789,-78,43,211,0
43800,-101,38,205,0
43811,-115,27,201,0
43822,-81,20,195,0
43833,-95,13,194,0
43844,-96,15,198,0
43855,-86,23,207,0
43866,-84,27,220,0
43877,-98,27,227,0
43888,-71,31,218,0
43899,-83,32,223,0
43910,-87,28,229,0
43921,-90,25,204,0
43932,-94,29,209,0
43943,-98,34,216,0
43954,-92,33,219,0
43965,-80,32,222,0
43976,-96,32,225,0
43987,-105,29,228,0
43998,-80,22,220,0
44009,-76,23,202,0
44020,-95,23,200,0
44031,-92,26,204,0
44042,-87,30,216,0
44053,-82,30,220,0
44064,-85,32,226,0
44075,-92,27,219,0
44086,-86,23,204,0
44097,-92,25,200,0
44108,-92,17,208,0
44119,-84,18,203,0
44131,-82,19,212,0
44142,-71,17,218,0
44153,-92,16,228,0
44164,-92,16,234,0
44175,-78,15,230,0
44186,-66,17,218,0
44197,-77,17,209,0
44208,-82,16,206,0
44219,-70,14,207,0
44230,-87,16,216,0
44241,-98,18,225,0
44252,-86,24,230,0
44263,-76,24,216,0
44274,-95,27,216,0
44285,-88,24,218,0
44296,-91,19,216,0
44307,-99,19,214,0
44318,-102,18,216,0
44329,-95,17,221,0
44340,-95,24,217,0
44351,-98,28,227,0
44362,-78,27,220,0
44373,-68,28,211,0
44384,-83,26,213,0
44395,-67,29,219,0
44406,-67,27,218,0
44417,-76,27,218,0
44428,-79,23,218,0
44439,-72,25,207,0
44450,-76,25,208,0
44461,-87,25,214,0
44472,-95,24,220,0
44483,-81,27,229,0
44494,-75,22,217,0
44505,-87,20,214,0
44516,-79,15,208,0
44527,-77,12,202,0
44538,-76,9,205,0
44549,-76,3,212,0
44560,-78,6,216,0
44571,-78,6,215,0
44582,-79,7,209,0
44593,-86,8,209,0
44604,-102,11,223,0
44615,-91,13,227,0
44626,-85,18,226,0
44637,-86,15,218,0
44648,-83,13,222,0
44659,-70,11,216,0
44670,-79,11,217,0
44681,-78,12,217,0
44692,-74,18,200,0
44703,-84,21,201,0
44714,-72,22,199,0
44725,-79,21,200,0
44736,-88,21,207,0
44747,-83,26,211,0
44758,-84,26,220,0
44769,-88,30,224,0
44780,-95,30,232,0
44791,-89,27,225,0
44802,-86,27,222,0
44813,-78,24,214,0
44824,-85,24,212,0
44835,-84,25,204,0
44846,-93,27,199,0
44857,-96,25,199,0
44868,-108,27,198,0
44879,-116,29,202,0
44890,-120,27,203,0
44901,-117,23,209,0
44912,-111,21,216,0
44923,-113,18,213,0
44934,-118,13,204,0
44945,-124,9,196,0
44956,-125,9,193,0
44967,-124,11,193,0
44978,-123,18,198,0
44989,-131,25,204,0
45000,-133,29,216,0
45011,-123,31,232,0
45022,-123,27,220,0
45033,-121,28,210,0
45044,-117,28,203,0
45055,-118,33,197,0
45066,-111,34,203,0
45077,-102,36,207,0
45088,-100,35,207,0
45099,-100,35,206,0
45110,-100,37,208,0
45121,-99,40,215,0
45132,-98,39,216,0
45143,-95,36,218,0
45155,-92,38,219,0
45166,-101,40,212,0
45177,-107,40,208,0
45188,-109,41,209,0
45199,-111,39,211,0
45210,-111,37,213,0
45221,-105,32,217,0
45232,-96,32,221,0
45243,-91,33,223,0
45254,-84,32,223,0
45265,-82,33,224,0
45276,-91,33,224,0
45287,-91,34,228,0
45298,-84,32,228,0
45309,-92,29,223,0
45320,-95,27,219,0
45331,-98,23,212,0
45342,-101,28,210,0
45353,-98,31,215,0
45364,-98,32,224,0
45375,-103,34,233,0
45386,-98,35,227,0
45397,-89,32,221,0
45408,-93,28,219,0
45419,-94,27,219,0
45430,-100,24,222,0
45441,-96,21,229,0
45452,-81,21,219,0
45463,-80,20,198,0
45474,-84,29,193,0
45485,-85,34,197,0
45496,-106,36,199,0
45507,-114,33,195,0
45518,-101,27,183,0
45529,-97,25,172,0
45540,-104,26,163,0
45551,-112,34,159,0
45562,-129,42,161,0
45573,-149,47,168,0
45584,-161,56,171,0
45595,-177,55,176,0
45606,-188,44,184,0
45617,-193,36,185,0
45628,-174,34,184,0
45639,-164,38,177,0
45650,-156,42,183,0
45661,-143,52,192,0
45672,-142,55,189,0
45683,-163,52,187,0
45694,-174,48,187,0
45705,-177,45,187,0
45716,-179,39,186,0
45727,-178,40,187,0
45738,-172,39,189,0
45749,-153,37,192,0
45760,-146,35,188,0
45771,-137,37,181,0
45782,-134,34,173,0
45793,-135,33,173,0
45804,-134,34,171,0
45815,-136,33,173,0
45826,-150,35,182,0
45837,-147,37,185,0
45848,-159,34,187,0
45859,-154,31,185,0
45870,-157,30,182,0
45881,-159,27,175,0
45892,-154,22,175,0
45903,-142,22,167,0
45914,-142,24,169,0
45925,-150,26,173,0
45936,-141,27,172,0
45947,-140,29,174,0
45958,-137,33,184,0
45969,-140,30,188,0
45980,-123,31,181,0
45991,-132,35,172,0
46002,-136,34,179,0
46013,-140,33,175,0
46024,-156,32,166,0
46035,-153,40,170,0
46046,-163,43,175,0
46057,-169,45,183,0
46068,-164,45,186,0
46079,-158,46,188,0
46090,-153,43,188,0
46101,-152,42,185,0
46112,-158,44,177,0
46123,-150,44,189,0
46134,-133,47,193,0
46145,-136,47,193,0
46156,-123,44,183,0
46167,-125,42,174,0
46178,-126,48,169,0
46189,-117,51,169,0
46200,-134,52,176,0
46211,-135,55,176,0
46222,-130,56,180,0
46233,-139,56,180,0
46244,-140,54,185,0
46255,-141,55,186,0
46266,-148,58,189,0
46277,-143,62,194,0
46288,-141,66,194,0
46299,-142,56,185,0
46310,-134,53,179,0
46321,-134,47,176,0
46332,-127,47,179,0
46343,-124,48,185,0
46354,-120,49,190,0
46365,-113,53,192,0
46376,-129,55,190,0
46387,-147,55,192,0
46398,-157,54,188,0
46409,-161,49,182,0
46420,-164,44,173,0
46431,-161,40,172,0
46442,-153,40,177,0
46453,-160,41,184,0
46464,-165,46,191,0
46475,-158,50,192,0
46486,-160,46,191,0
46497,-147,50,189,0
46508,-148,46,183,0
46519,-146,43,174,0
46530,-151,44,172,0
46541,-152,40,167,0
46552,-143,40,176,0
46563,-145,44,180,0
46574,-149,47,184,0
46585,-143,53,186,0
46596,-145,57,189,0
46607,-143,63,183,0
46618,-151,63,183,0
46629,-148,63,189,0
46640,-147,63,184,0
46651,-145,63,184,0
46662,-143,63,183,0
46673,-129,63,186,0
46684,-131,60,179,0
46695,-128,59,180,0
46706,-122,58,180,0
46717,-127,57,179,0
46728,-127,59,177,0
46739,-131,55,170,0
46750,-136,55,173,0
46761,-136,54,175,0
46772,-137,56,182,0
46783,-134,53,190,0
46794,-133,53,188,0
46805,-132,52,183,0
46816,-141,53,181,0
46827,-137,53,178,0
46838,-152,50,181,0
46849,-143,51,186,0
46860,-152,49,191,0
46871,-146,49,193,0
46882,-142,49,194,0
46893,-133,48,190,0
46904,-143,49,186,0
46915,-129,47,182,0
46926,-133,51,181,0
46937,-148,50,184,0
46948,-132,51,191,0
46959,-142,50,193,0
46970,-131,52,189,0
46981,-136,53,184,0
46992,-142,54,188,0
47003,-134,52,179,0
47014,-134,52,185,0
47025,-130,50,181,0
47036,-134,50,185,0
47047,-129,46,187,0
47058,-126,53,187,0
47069,-116,46,186,0
47080,-132,52,190,0
47091,-131,48,192,0
47102,-118,49,185,0
47113,-139,48,186,0
47124,-112,48,185,0
47135,-121,45,185,0
47146,-113,43,183,0
47157,-118,42,187,0
47168,-120,45,191,0
47179,-125,48,195,0
47190,-115,53,196,0
47201,-137,50,196,0
47212,-139,51,196,0
47223,-149,52,196,0
47234,-149,53,193,0
47245,-140,54,191,0
47256,-150,53,187,0
47267,-135,55,189,0
47278,-152,54,190,0
47289,-143,57,189,0
47300,-146,54,190,0
47312,-134,56,192,0
47323,-138,55,192,0
47334,-137,53,197,0
47345,-123,57,196,0
47356,-125,55,189,0
47367,-119,53,189,0
47378,-113,56,187,0
47389,-125,54,186,0
47400,-124,57,189,0
47411,-133,51,187,0
47422,-120,48,186,0
47433,-129,50,189,0
47444,-124,49,192,0
47455,-132,51,198,0
47466,-128,49,193,0
47477,-114,49,191,0
47488,-134,43,189,0
47499,-120,40,180,0
47510,-125,40,180,0
47521,-129,42,184,0
47532,-129,46,188,0
47543,-134,44,183,0
47554,-129,48,186,0
47565,-138,50,186,0
47576,-137,50,192,0
47587,-130,48,192,0
47598,-118,51,191,0
47609,-147,45,191,0
47620,-140,51,191,0
47631,-137,53,189,0
47642,-137,51,190,0
47653,-144,45,194,0
47664,-148,44,194,0
47675,-130,43,188,0
47686,-130,47,178,0
47697,-132,46,179,0
47708,-131,47,181,0
47719,-124,49,186,0
47730,-149,51,194,0
47741,-131,55,199,0
47752,-130,53,194,0
47763,-145,52,190,0
47775,-137,52,188,0
47786,-132,53,189,0
47797,-149,52,193,0
47808,-132,60,189,0
47819,-137,58,188,0
47830,-138,56,191,0
47841,-137,53,194,0
47852,-131,50,197,0
47863,-128,47,192,0
47874,-130,44,185,0
47885,-134,46,178,0
47896,-135,49,180,0
47907,-134,58,180,0
47918,-134,61,180,0
47929,-141,64,192,0
47940,-147,62,196,0
47951,-144,58,201,0
47962,-127,46,196,0
47973,-114,38,184,0
47984,-107,32,171,0
47995,-104,32,170,0
48006,-106,34,173,0
48017,-116,36,181,0
48028,-122,39,194,0
48039,-134,46,201,0
48050,-133,45,202,0
48061,-131,45,195,0
48072,-136,43,191,0
48083,-128,39,189,0
48094,-127,38,177,0
48105,-131,38,171,0
48116,-138,40,178,0
48127,-141,41,189,0
48138,-149,39,205,0
48149,-146,44,206,0
48160,-144,42,202,0
48171,-140,43,194,0
48182,-142,45,184,0
48193,-141,47,181,0
48204,-137,51,187,0
48215,-133,53,189,0
48226,-129,54,189,0
48237,-129,55,190,0
48248,-129,59,191,0
48259,-127,62,192,0
48270,-128,59,187,0
48281,-130,56,179,0
48292,-134,56,179,0
48303,-136,53,181,0
48314,-138,53,179,0
48325,-139,54,183,0
48336,-136,55,189,0
48347,-133,56,192,0
48358,-133,50,189,0
48369,-134,49,183,0
48380,-136,45,188,0
48391,-136,41,191,0
48402,-135,41,182,0
48413,-138,42,182,0
48424,-139,43,184,0
48435,-143,45,187,0
48446,-145,47,184,0
48457,-147,48,181,0
48468,-149,50,179,0
48479,-147,51,176,0
48490,-146,48,173,0
48501,-143,46,175,0
48512,-142,42,176,0
48523,-140,39,197,0
48534,-140,30,224,0
48545,-133,44,201,0
48556,-130,41,195,0
48567,-125,39,194,0
48578,-120,33,198,0
48589,-115,36,195,0
48600,-115,38,191,0
48611,-122,40,191,0
48622,-126,42,192,0
48633,-128,45,188,0
48644,-129,46,181,0
48655,-132,47,178,0
48666,-136,41,181,0
48677,-135,43,181,0
48688,-136,42,183,0
48699,-137,46,187,0
48710,-141,44,189,0
48721,-142,46,193,0
48732,-143,48,192,0
48743,-143,50,193,0
48754,-145,50,195,0
48765,-147,43,190,0
48776,-148,40,190,0
48787,-142,41,187,0
48798,-141,39,180,0
48809,-145,32,174,0
48820,-148,30,169,0
48831,-149,32,166,0
48842,-154,37,169,0
48853,-155,36,171,0
48864,-150,40,165,0
48875,-154,38,162,0
48886,-168,29,170,0
48897,-180,14,188,0
48908,-191,1,223,0
48919,-185,10,240,0
48930,-184,5,243,0
48941,-177,-4,240,0
48952,-163,-5,233,0
48963,-154,1,214,0
48974,-153,5,194,0
48985,-150,8,183,0
48996,-148,15,180,0
49007,-138,24,181,0
49018,-130,30,180,0
49029,-126,33,179,0
49040,-120,27,181,0
49051,-114,28,177,0
49062,-107,27,166,0
49073,-102,28,159,0
49084,-95,31,158,0
49095,-89,31,160,0
49106,-87,30,170,0
49117,-84,42,170,0
49128,-85,49,165,0
49139,-91,58,163,0
49150,-91,65,167,0
49161,-100,65,172,0
49172,-120,60,164,0
49183,-139,58,173,0
49194,-151,63,187,0
49205,-146,66,192,0
49216,-136,63,196,0
49227,-132,53,198,0
49238,-134,49,203,0
49249,-140,53,212,0
49260,-138,57,216,0
49271,-129,63,220,0
49282,-130,58,221,0
49293,-132,47,214,0
49304,-126,44,214,0
49315,-108,47,214,0
49326,-96,43,209,0
49337,-108,36,202,0
49348,-104,38,207,0
49359,-103,32,208,0
49370,-101,26,206,0
49381,-101,23,202,0
49392,-108,27,201,0
49403,-113,30,206,0
49414,-113,34,214,0
49425,-114,39,225,0
49436,-112,43,232,0
49447,-111,40,232,0
49458,-108,38,218,0
49469,-107,34,205,0
49480,-112,30,193,0
49491,-129,28,182,0
49502,-136,26,182,0
49513,-139,30,190,0
49524,-137,34,194,0
49535,-133,33,200,0
49546,-128,35,193,0
49557,-130,36,195,0
49568,-129,33,196,0
49579,-131,31,194,0
49590,-135,29,192,0
49601,-136,26,191,0
49612,-132,27,191,0
49623,-129,29,190,0
49634,-128,28,190,0
49645,-129,33,186,0
49656,-146,36,181,0
49667,-154,37,184,0
49678,-165,34,187,0
49689,-172,33,192,0
49700,-167,33,199,0
49711,-157,34,205,0
49722,-148,32,202,0
49733,-145,36,195,0
49744,-138,38,187,0
49755,-126,39,179,0
49766,-124,33,173,0
49777,-123,29,164,0
49788,-128,30,161,0
49799,-134,33,161,0
49810,-138,43,163,0
49821,-148,53,180,0
49832,-157,51,190,0
49843,-148,50,189,0
49854,-146,50,186,0
49865,-149,49,180,0
49876,-155,48,178,0
49887,-158,47,180,0
49898,-153,51,188,0
49909,-150,58,196,0
49920,-138,56,194,0
49931,-133,47,188,0
49942,-135,44,184,0
49953,-134,42,183,0
49964,-140,39,185,0
49975,-140,42,182,0
49986,-139,49,191,0
49997,-136,52,189,0
50008,-131,57,196,0
50019,-124,61,192,0
50030,-119,64,182,0
50042,-123,63,174,0
50053,-124,64,178,0
50064,-125,66,191,0
50075,-106,67,193,0
50086,-103,70,199,0
50097,-104,75,213,0
50108,-98,79,225,0
50119,-89,77,227,0
50130,-87,73,220,0
50141,-94,73,210,0
50152,-94,71,203,0
50163,-93,70,202,0
50174,-99,69,204,0
50185,-98,67,201,0
50196,-99,65,203,0
50207,-99,62,205,0
50218,-104,58,201,0
50229,-106,56,205,0
50240,-103,53,207,0
50251,-100,54,205,0
50262,-97,50,199,0
50273,-94,48,199,0
50284,-96,51,200,0
50295,-101,51,196,0
50306,-110,47,195,0
50317,-119,46,191,0
50328,-129,44,193,0
50340,-132,40,199,0
50351,-129,40,196,0
50362,-128,41,195,0
50373,-123,38,198,0
50384,-124,34,195,0
50395,-123,33,194,0
50406,-121,34,192,0
50417,-136,34,194,0
50428,-148,37,206,0
50439,-155,43,214,0
50450,-159,36,216,0
50461,-160,31,214,0
50472,-159,33,203,0
50483,-158,44,198,0
50494,-155,36,196,0
50505,-150,31,196,0
50516,-140,36,209,0
50527,-138,25,212,0
50538,-132,16,210,0
50549,-121,14,199,0
50560,-111,22,189,0
50571,-109,28,184,0
50582,-112,36,182,0
50593,-109,45,179,0
50604,-112,47,186,0
50615,-112,50,191,0
50626,-112,53,192,0
50637,-110,51,193,0
50648,-110,44,185,0
50659,-105,50,185,0
50670,-107,49,184,0
50681,-115,47,190,0
50692,-113,53,192,0
50703,-118,59,191,0
50714,-111,58,192,0
50725,-99,57,193,0
50736,-92,58,192,0
50747,-93,63,187,0
50758,-86,60,176,0
50769,-84,56,167,0
50780,-78,54,174,0
50791,-70,56,183,0
50802,-73,52,186,0
50813,-75,46,189,0
50824,-69,44,193,0
50835,-65,37,188,0
50846,-70,33,184,0
50857,-87,29,188,0
50868,-102,32,214,0
50879,-114,42,227,0
50890,-118,50,231,0
50901,-123,50,241,0
50912,-123,58,250,0
50923,-113,62,245,0
50934,-105,60,235,0
50945,-93,62,231,0
50956,-90,60,220,0
50967,-95,60,217,0
50978,-105,61,219,0
50989,-113,63,220,0
51000,-121,64,219,0
51011,-121,65,216,0
51022,-114,65,213,0
51033,-107,57,197,0
51044,-117,54,198,0
51055,-117,50,199,0
51066,-114,46,200,0
51077,-111,40,207,0
51088,-120,36,208,0
51099,-113,39,214,0
51110,-111,41,214,0
51121,-114,43,213,0
51132,-119,45,213,0
51143,-112,47,209,0
51154,-117,45,207,0
51165,-121,47,208,0
51176,-128,50,210,0
51187,-131,47,216,0
51198,-138,43,219,0
51209,-143,43,214,0
51220,-139,45,207,0
51231,-136,46,206,0
51242,-121,42,205,0
51253,-112,37,221,0
51264,-111,17,231,0
51275,-107,7,244,0
51286,-101,13,250,0
51297,-100,13,239,0
51308,-106,8,225,0
51319,-107,1,210,0
51330,-99,4,202,0
51341,-98,7,202,0
51352,-99,7,196,0
51363,-98,4,185,0
51374,-91,8,178,0
51385,-81,13,171,0
51396,-83,26,162,0
51407,-82,32,163,0
51418,-82,28,164,0
51429,-78,32,165,0
51440,-78,35,171,0
51451,-79,32,177,0
51462,-74,35,180,0
51473,-75,39,182,0
51484,-82,41,182,0
51495,-84,43,180,0
51506,-87,45,180,0
51517,-95,46,183,0
51528,-101,49,186,0
51539,-94,50,189,0
51550,-80,48,189,0
51561,-69,47,189,0
51572,-75,45,170,0
51583,-101,25,160,0
51594,-148,10,198,0
51605,-155,34,241,0
51616,-144,54,248,0
51627,-139,50,249,0
51638,-136,29,246,0
51649,-118,36,251,0
51660,-107,35,238,0
51671,-106,42,234,0
51682,-105,49,234,0
51693,-107,55,230,0
51704,-101,65,228,0
51715,-104,61,213,0
51726,-112,59,214,0
51737,-113,56,216,0
51748,-109,51,214,0
51759,-106,46,212,0
51770,-103,39,208,0
51781,-101,35,204,0
51792,-101,29,203,0
51803,-106,26,202,0
51814,-111,27,207,0
51825,-112,28,211,0
51836,-105,29,212,0
51847,-101,30,207,0
51858,-101,34,198,0
51869,-105,37,192,0
51880,-126,38,183,0
51891,-133,41,185,0
51902,-136,41,186,0
51913,-138,37,188,0
51924,-139,38,188,0
51935,-139,40,190,0
51946,-140,39,191,0
51957,-140,40,190,0
51968,-142,42,190,0
51979,-141,45,190,0
51990,-141,46,190,0
52001,-137,47,189,0
52012,-135,48,191,0
52023,-134,48,193,0
52034,-133,42,189,0
52045,-134,38,189,0
52056,-137,37,188,0
52067,-138,37,189,0
52078,-139,38,190,0
52089,-139,39,193,0
52100,-139,40,196,0
52111,-138,40,198,0
52122,-138,39,201,0
52133,-136,40,201,0
52144,-134,39,200,0
52155,-133,37,199,0
52166,-130,40,199,0
52177,-129,45,208,0
52188,-129,45,212,0
52199,-135,56,224,0
52210,-133,53,223,0
52221,-126,44,221,0
52232,-113,35,211,0
52243,-103,25,201,0
52254,-96,10,183,0
52265,-101,16,179,0
52276,-109,20,190,0
52287,-123,16,193,0
52298,-128,19,211,0
52309,-121,29,235,0
52320,-114,33,245,0
52331,-113,34,247,0
52342,-107,31,240,0
52353,-103,28,228,0
52364,-90,20,201,0
52375,-94,15,194,0
52386,-94,24,199,0
52397,-99,23,205,0
52408,-105,17,216,0
52419,-91,10,221,0
52430,-80,20,218,0
52441,-86,21,215,0
52452,-89,7,219,0
52463,-80,3,216,0
52474,-69,10,212,0
52485,-65,17,208,0
52496,-62,22,199,0
52507,-60,28,194,0
52518,-50,35,206,0
52529,-44,42,211,0
52540,-44,44,209,0
52551,-40,45,209,0
52562,-37,40,206,0
52573,-35,34,198,0
52584,-43,31,193,0
52595,-48,29,188,0
52606,-43,27,184,0
52617,-52,22,183,0
52628,-56,21,187,0
52639,-61,18,192,0
52650,-59,17,196,0
52661,-61,14,195,0
52672,-61,22,194,0
52683,-96,15,182,0
52694,-106,12,192,0
52705,-104,5,216,0
52716,-91,1,238,0
52727,-83,8,252,0
52738,-84,19,257,0
52749,-82,28,249,0
52760,-83,30,226,0
52771,-74,35,208,0
52782,-63,42,201,0
52793,-57,40,193,0
52804,-64,47,193,0
52815,-76,53,194,0
52826,-88,56,194,0
52837,-80,46,193,0
52848,-93,43,219,0
52859,-109,37,241,0
52870,-105,50,247,0
52881,-105,64,254,0
52892,-116,62,242,0
52903,-131,65,237,0
52914,-128,64,218,0
52925,-125,66,214,0
52936,-112,54,193,0
52947,-118,60,197,0
52958,-109,65,203,0
52970,-108,72,208,0
52980,-112,77,206,0
52991,-112,81,205,0
53002,-122,82,205,0
53013,-126,78,198,0
53024,-130,72,193,0
53035,-129,67,190,0
53046,-132,67,191,0
53057,-123,64,196,0
53068,-112,65,203,0
53079,-115,67,205,0
53090,-119,67,209,0
53101,-103,68,204,0
53112,-108,65,195,0
53123,-109,64,194,0
53134,-112,60,189,0
53145,-109,64,186,0
53156,-110,66,191,0
53167,-121,67,198,0
53178,-114,71,203,0
53189,-118,71,197,0
53200,-129,75,196,0
53211,-145,74,193,0
53222,-165,73,198,0
53233,-178,69,207,0
53244,-189,69,229,0
53255,-182,68,235,0
53266,-167,68,211,0
53277,-160,72,206,0
53288,-143,68,206,0
53299,-133,63,199,0
53310,-138,60,197,0
53321,-152,57,190,0
53332,-141,60,185,0
53343,-131,61,183,0
53354,-133,54,178,0
53365,-131,46,165,0
53376,-127,40,150,0
53387,-122,37,145,0
53398,-122,28,150,0
53409,-116,21,155,0
53420,-98,19,165,0
53431,-88,23,181,0
53442,-72,29,192,0
53453,-75,34,206,0
53464,-72,32,213,0
53475,-74,35,202,0
53486,-96,47,180,0
53497,-110,50,176,0
53508,-121,46,177,0
53519,-118,47,187,0
53530,-103,49,194,0
53541,-104,46,193,0
53552,-107,47,196,0
53563,-107,48,201,0
53574,-104,46,206,0
53585,-95,41,206,0
53596,-84,36,207,0
53607,-80,28,208,0
53618,-74,21,206,0
53629,-79,12,202,0
53640,-87,7,192,0
53651,-95,23,208,0
53662,-106,34,215,0
53673,-109,37,213,0
53684,-118,47,219,0
53695,-119,55,214,0
53706,-131,61,216,0
53717,-130,66,214,0
53728,-131,71,206,0
53739,-137,66,196,0
53750,-132,65,196,0
53761,-127,67,192,0
53772,-132,65,196,0
53783,-125,65,196,0
53794,-133,65,195,0
53805,-152,66,215,0
53816,-143,60,222,0
53827,-150,57,202,0
53838,-156,53,203,0
53849,-148,55,204,0
53860,-157,48,209,0
53871,-168,39,208,0
53882,-166,41,190,0
53893,-162,52,182,0
53904,-167,51,185,0
53915,-167,45,187,0
53926,-161,39,190,0
53937,-158,38,190,0
53948,-149,32,185,0
53959,-143,30,181,0
53970,-130,34,172,0
53981,-107,29,170,0
53992,-100,30,167,0
54003,-102,29,161,0
54014,-101,28,156,0
54025,-94,28,157,0
54036,-90,26,160,0
54047,-83,25,165,0
54058,-87,29,171,0
54069,-98,30,180,0
54080,-97,27,184,0
54091,-107,25,183,0
54102,-113,20,185,0
54113,-128,20,185,0
54124,-154,24,188,0
54135,-168,25,192,0
54146,-174,20,196,0
54157,-164,28,200,0
54168,-150,22,195,0
54179,-137,21,195,0
54190,-129,23,195,0
54201,-144,29,191,0
54212,-152,41,191,0
54223,-140,52,197,0
54234,-129,54,198,0
54245,-126,59,198,0
54256,-136,65,199,0
54267,-144,71,202,0
54278,-149,73,202,0
54289,-134,62,201,0
54300,-129,58,198,0
54311,-131,56,197,0
54322,-131,51,198,0
54333,-129,47,196,0
54344,-134,43,192,0
54355,-138,43,192,0
54366,-133,46,189,0
54377,-133,49,190,0
54388,-129,54,192,0
54399,-126,56,192,0
54410,-125,56,188,0
54421,-127,55,178,0
54432,-136,52,168,0
54443,-144,52,168,0
54454,-143,39,170,0
54465,-144,36,165,0
54476,-145,38,169,0
54487,-147,43,176,0
54498,-148,44,182,0
54509,-146,43,184,0
54520,-146,45,184,0
54531,-143,47,184,0
54542,-141,50,187,0
54553,-143,50,188,0
54564,-144,51,186,0
54575,-145,50,180,0
54586,-145,50,177,0
54597,-146,51,176,0
54608,-145,53,175,0
54619,-145,54,179,0
54630,-144,57,182,0
54641,-141,57,187,0
54653,-140,56,188,0
54664,-138,56,188,0
54675,-139,58,186,0
54686,-139,59,186,0
54697,-139,59,185,0
54708,-140,60,181,0
54719,-140,59,178,0
54730,-140,58,178,0
54741,-141,58,178,0
54752,-148,57,178,0
54763,-148,58,179,0
54774,-149,57,179,0
54785,-147,55,177,0
54796,-145,53,176,0
54807,-144,52,174,0
54818,-148,53,178,0
54829,-148,46,171,0
54840,-152,46,176,0
54851,-155,48,176,0
54862,-151,46,177,0
54873,-149,47,179,0
54884,-149,45,178,0
54895,-149,45,179,0
54906,-148,47,179,0
54917,-151,47,178,0
54928,-151,48,182,0
54939,-155,39,168,0
54950,-153,46,179,0
54961,-152,46,180,0
54972,-149,44,178,0
54983,-150,44,175,0
54994,-149,47,177,0
55005,-148,46,179,0
55016,-146,45,177,0
55027,-146,45,178,0
55038,-145,48,177,0
55049,-145,48,180,0
55060,-147,46,178,0
55071,-143,45,177,0
55082,-146,48,177,0
55093,-148,50,179,0
55104,-145,49,179,0
55115,-145,49,183,0
55126,-147,47,182,0
55137,-148,48,181,0
55148,-148,47,178,0
55159,-150,47,179,0
55170,-149,46,178,0
55181,-148,46,177,0
55192,-149,45,178,0
55203,-148,45,177,0
55214,-148,44,178,0
55225,-149,42,175,0
55236,-150,45,183,0
55247,-148,46,180,0
55258,-147,44,179,0
55269,-145,44,177,0
55280,-145,44,178,0
55291,-145,43,178,0
55302,-147,45,179,0
55313,-150,44,177,0
55324,-150,46,177,0
55335,-149,47,179,0
55346,-148,45,179,0
55357,-147,47,178,0
55368,-145,48,178,0
55379,-145,48,179,0
55390,-144,48,181,0
55401,-148,49,182,0
55412,-149,48,181,0
55423,-147,46,178,0
55434,-147,46,179,0
55445,-147,46,176,0
55456,-146,44,177,0
55467,-145,44,177,0
55478,-148,46,179,0
55489,-150,47,181,0
55500,-149,44,179,0
55511,-150,45,178,0
55522,-149,46,181,0
