timestamp,accX,accY,accZ,step
337939,-166,55,160,0
337950,-164,52,161,0
337961,-163,55,161,0
337972,-162,56,163,0
337983,-163,56,163,0
337993,-162,55,162,0
338003,-162,54,163,0
338014,-164,54,164,0
338025,-161,55,161,0
338036,-162,55,163,0
338046,-163,55,162,0
338057,-163,55,162,0
338068,-165,56,162,0
338079,-164,56,163,0
338090,-165,56,162,0
338101,-164,58,162,0
338112,-164,56,162,0
338123,-165,57,163,0
338134,-165,57,164,0
338145,-165,57,165,0
338156,-164,57,163,0
338167,-167,54,160,0
338178,-164,54,163,0
338189,-163,55,165,0
338200,-162,55,164,0
338211,-163,54,164,0
338222,-162,54,160,0
338233,-164,56,161,0
338244,-166,57,161,0
338255,-163,57,162,0
338266,-163,57,164,0
338277,-164,57,164,0
338288,-161,57,164,0
338299,-163,56,166,0
338310,-161,57,166,0
338321,-162,57,167,0
338332,-160,56,164,0
338343,-159,55,164,0
338354,-160,55,164,0
338365,-162,56,163,0
338376,-163,56,165,0
338387,-165,55,164,0
338398,-163,56,166,0
338409,-162,54,165,0
338420,-162,54,165,0
338431,-161,54,163,0
338442,-161,53,164,0
338453,-161,54,163,0
338464,-164,57,164,0
338475,-162,55,164,0
338486,-164,58,164,0
338497,-164,57,166,0
338508,-162,55,163,0
338519,-161,57,164,0
338530,-161,56,163,0
338541,-162,58,163,0
338552,-164,58,164,0
338563,-167,58,165,0
338574,-166,58,166,0
338585,-166,57,164,0
338596,-163,55,165,0
338607,-162,54,166,0
338618,-159,54,165,0
338629,-157,53,164,0
338640,-157,53,163,0
338651,-156,54,165,0
338662,-157,54,164,0
338673,-159,52,165,0
338684,-161,53,166,0
338695,-160,52,166,0
338706,-161,52,167,0
338717,-162,52,167,0
338728,-162,51,167,0
338739,-161,50,167,0
338750,-161,49,167,0
338761,-161,50,166,0
338772,-161,48,166,0
338783,-162,47,165,0
338794,-162,47,164,0
338805,-163,47,164,0
338816,-164,49,166,0
338827,-165,50,165,0
338838,-167,51,165,0
338849,-166,50,164,0
338860,-166,52,165,0
338871,-166,53,165,0
338882,-163,52,165,0
338893,-161,51,165,0
338904,-160,51,162,0
338915,-160,51,164,0
338926,-161,51,163,0
338937,-163,50,165,0
338948,-164,51,166,0
338959,-165,51,166,0
338970,-164,49,169,0
338981,-161,49,167,0
338992,-160,48,166,0
339003,-159,50,165,0
339014,-159,50,165,0
339025,-159,51,163,0
339036,-159,50,163,0
339047,-160,52,162,0
339058,-160,49,163,0
339069,-161,51,165,0
339080,-161,50,164,0
339091,-161,52,168,0
339102,-159,52,169,0
339113,-157,52,169,0
339124,-157,52,167,0
339135,-158,52,165,0
339146,-162,52,167,0
339157,-165,56,167,0
339168,-166,56,166,0
339179,-167,57,167,0
339190,-167,56,165,0
339201,-164,55,166,0
339212,-162,53,166,0
339223,-160,52,168,0
339234,-160,52,168,0
339245,-159,51,166,0
339256,-160,50,166,0
339267,-160,51,166,0
339278,-160,50,164,0
339289,-161,51,164,0
339300,-162,49,165,0
339311,-165,50,163,0
339322,-165,50,165,0
339333,-166,50,163,0
339344,-167,50,163,0
339355,-166,50,164,0
339366,-164,50,164,0
339377,-163,50,164,0
339388,-160,51,165,0
339399,-159,50,166,0
339410,-156,51,167,0
339421,-157,51,168,0
339432,-160,53,167,0
339443,-160,52,169,0
339454,-161,51,169,0
339465,-161,50,169,0
339476,-160,51,168,0
339487,-161,51,169,0
339498,-160,51,168,0
339509,-157,50,167,0
339520,-159,50,165,0
339531,-159,49,164,0
339542,-161,49,163,0
339553,-163,50,166,0
339564,-164,51,166,0
339575,-165,53,167,0
339586,-164,53,168,0
339597,-163,56,171,0
339608,-160,57,173,0
339619,-160,56,172,0
339630,-159,54,170,0
339641,-160,49,167,0
339652,-164,46,163,0
339663,-168,44,162,0
339674,-171,45,162,0
339685,-169,45,166,0
339696,-166,45,168,0
339707,-161,44,167,0
339718,-157,44,168,0
339729,-154,45,168,0
339740,-155,46,168,0
339751,-159,45,168,0
339762,-163,44,167,0
339773,-166,44,168,0
339784,-167,45,165,0
339795,-165,46,165,0
339806,-162,47,162,0
339817,-158,47,163,0
339828,-157,51,163,0
339839,-156,54,163,0
339850,-158,55,163,0
339861,-162,56,162,0
339872,-166,57,161,0
339883,-168,56,162,0
339894,-169,55,163,0
339905,-170,53,164,0
339916,-169,50,166,0
339927,-168,46,165,0
339938,-166,44,163,0
339949,-162,43,166,0
339960,-158,41,170,0
339971,-157,40,175,0
339982,-162,32,188,0
339993,-153,37,171,0
340004,-159,36,166,0
340015,-159,35,171,0
340026,-160,35,167,0
340037,-160,35,162,0
340048,-162,34,156,0
340059,-165,36,155,0
340070,-165,37,156,0
340081,-166,39,160,0
340092,-167,43,165,0
340103,-167,44,168,0
340114,-167,44,169,0
340125,-169,43,166,0
340136,-168,45,166,0
340147,-168,46,163,0
340158,-167,47,160,0
340169,-167,48,157,0
340180,-168,50,155,0
340191,-168,53,157,0
340202,-168,55,157,0
340213,-169,56,162,0
340224,-170,57,166,0
340235,-172,59,170,0
340246,-171,61,173,0
340257,-170,62,179,0
340268,-172,59,180,0
340279,-174,56,179,0
340290,-170,49,167,0
340301,-163,50,162,0
340312,-160,54,165,0
340323,-159,55,175,0
340334,-159,53,185,0
340345,-160,52,183,0
340356,-162,51,175,0
340367,-160,50,170,0
340378,-156,44,167,0
340389,-154,41,164,0
340400,-156,40,163,0
340411,-160,40,165,0
340422,-160,39,167,0
340433,-158,38,168,0
340444,-159,38,168,0
340455,-160,33,159,0
340466,-162,33,158,0
340477,-162,35,159,0
340488,-164,37,164,0
340499,-163,39,171,0
340510,-165,44,177,0
340521,-167,47,180,0
340532,-167,50,180,0
340543,-164,47,177,0
340554,-159,41,174,0
340565,-156,38,173,0
340576,-151,38,169,0
340587,-148,36,162,0
340598,-147,36,159,0
340609,-146,34,160,0
340620,-154,31,166,0
340631,-152,31,171,0
340642,-153,28,174,0
340653,-155,30,176,0
340664,-158,27,173,0
340675,-158,27,172,0
340686,-156,29,174,0
340697,-162,29,173,0
340708,-157,28,174,0
340719,-156,30,172,0
340730,-161,31,170,0
340741,-166,33,172,0
340752,-162,34,176,0
340763,-163,30,178,0
340774,-163,32,177,0
340785,-163,22,177,0
340796,-153,21,171,0
340807,-153,14,168,0
340818,-154,26,161,0
340829,-162,30,147,0
340840,-162,28,145,0
340851,-166,28,152,0
340862,-164,28,165,0
340873,-154,31,175,0
340884,-159,31,177,0
340895,-156,28,178,0
340906,-159,26,175,0
340917,-157,25,169,0
340928,-154,25,168,0
340939,-161,26,172,0
340950,-161,26,176,0
340961,-163,24,178,0
340972,-163,24,183,0
340983,-160,19,184,0
340994,-160,17,181,0
341005,-157,17,170,0
341016,-159,16,164,0
341027,-162,10,161,0
341038,-165,14,161,0
341049,-165,14,162,0
341060,-159,23,164,0
341071,-160,23,162,0
341082,-169,26,163,0
341093,-167,27,160,0
341104,-165,32,164,0
341115,-161,34,162,0
341126,-158,35,161,0
341138,-160,36,157,0
341149,-156,37,154,0
341160,-159,33,152,0
341171,-162,31,150,0
341182,-166,31,149,0
341193,-171,35,157,0
341205,-172,36,164,0
341216,-173,37,172,0
341227,-174,35,182,0
341238,-172,34,184,0
341249,-170,35,184,0
341260,-182,37,175,0
341271,-170,36,170,0
341282,-173,38,163,0
341293,-170,34,153,0
341304,-164,38,154,0
341315,-164,37,152,0
341326,-162,35,152,0
341337,-161,37,152,0
341348,-166,34,151,0
341359,-165,35,159,0
341370,-170,42,163,0
341381,-165,38,159,0
341392,-168,38,164,0
341403,-169,43,173,0
341414,-165,44,173,0
341425,-170,42,173,0
341436,-171,41,175,0
341447,-161,41,167,0
341458,-165,40,169,0
341469,-160,44,173,0
341480,-160,46,169,0
341491,-158,45,166,0
341502,-162,45,171,0
341513,-163,44,167,0
341524,-172,47,167,0
341535,-179,46,169,0
341546,-178,44,173,0
341557,-174,46,174,0
341568,-170,47,172,0
341579,-166,42,169,0
341590,-158,39,168,0
341601,-159,34,163,0
341612,-155,35,161,0
341623,-153,35,163,0
341634,-151,40,167,0
341645,-150,43,178,0
341656,-156,44,192,0
341667,-150,43,186,0
341678,-149,42,182,0
341689,-152,38,190,0
341700,-150,39,183,0
341711,-157,36,180,0
341722,-160,37,184,0
341733,-161,45,169,0
341744,-157,74,183,0
341755,-157,34,165,0
341766,-150,40,166,0
341777,-151,40,176,0
341788,-153,36,180,0
341799,-147,33,185,0
341810,-144,31,179,0
341821,-148,27,191,0
341832,-146,34,188,0
341843,-144,33,176,0
341854,-146,35,167,0
341865,-154,35,160,0
341876,-160,33,155,0
341887,-158,33,155,0
341898,-174,32,159,0
341909,-173,33,166,0
341920,-166,36,167,0
341931,-166,32,169,0
341942,-164,32,173,0
341953,-157,25,164,0
341964,-156,27,162,0
341975,-155,29,160,0
341986,-158,32,156,0
341997,-164,31,146,0
342008,-168,33,142,0
342019,-177,32,138,0
342030,-174,30,140,0
342041,-169,27,151,0
342052,-165,26,164,0
342063,-159,35,187,0
342074,-165,42,191,0
342085,-176,46,192,0
342096,-186,48,189,0
342107,-187,51,184,0
342118,-186,51,185,0
342130,-179,51,180,0
342140,-169,49,175,0
342151,-160,48,179,0
342162,-144,47,177,0
342173,-133,48,178,0
342184,-131,53,181,0
342195,-132,56,182,0
342206,-144,57,183,0
342217,-156,59,188,0
342228,-166,50,186,0
342239,-170,48,192,0
342250,-166,46,199,0
342261,-161,43,205,0
342272,-156,38,198,0
342283,-145,37,190,0
342294,-148,28,185,0
342305,-140,30,174,0
342316,-141,26,172,0
342327,-143,28,166,0
342338,-142,34,164,0
342349,-148,39,171,0
342360,-147,42,165,0
342371,-155,40,166,0
342382,-156,37,166,0
342394,-166,33,167,0
342405,-163,34,166,0
342416,-164,31,163,0
342427,-161,29,166,0
342438,-155,26,166,0
342449,-152,21,163,0
342460,-148,20,157,0
342471,-147,17,153,0
342482,-153,16,156,0
342493,-151,15,160,0
342504,-154,12,161,0
342515,-157,14,160,0
342526,-153,15,161,0
342537,-159,19,163,0
342548,-160,18,163,0
342559,-158,18,164,0
342570,-163,17,160,0
342581,-166,16,157,0
342592,-161,18,158,0
342603,-170,21,160,0
342614,-178,19,165,0
342625,-178,19,171,0
342636,-174,20,171,0
342647,-171,22,160,0
342658,-176,19,158,0
342669,-172,15,164,0
342680,-167,13,163,0
342691,-165,7,154,0
342702,-162,14,133,0
342713,-174,22,133,0
342724,-175,27,144,0
342735,-191,39,154,0
342746,-197,42,156,0
342757,-195,41,157,0
342768,-202,37,156,0
342779,-203,38,158,0
342790,-194,41,162,0
342801,-182,40,161,0
342813,-177,34,158,0
342823,-173,31,150,0
342834,-172,27,146,0
342845,-163,29,140,0
342856,-176,29,146,0
342867,-177,37,155,0
342878,-187,39,158,0
342889,-178,47,163,0
342900,-179,54,167,0
342911,-176,54,168,0
342922,-179,54,168,0
342933,-180,50,168,0
342944,-169,48,167,0
342955,-167,47,170,0
342967,-176,40,174,0
342978,-164,33,174,0
342989,-164,32,168,0
343000,-164,26,165,0
343011,-158,24,176,0
343022,-162,39,165,0
343033,-156,47,163,0
343044,-163,45,154,0
343055,-165,50,161,0
343066,-168,49,158,0
343077,-161,49,158,0
343088,-178,48,159,0
343099,-182,47,157,0
343110,-168,44,151,0
343121,-172,45,152,0
343132,-179,43,144,0
343143,-171,51,145,0
343154,-176,55,152,0
343165,-172,57,160,0
343176,-164,54,162,0
343187,-170,45,161,0
343198,-170,44,158,0
343209,-180,40,169,0
343221,-179,40,173,0
343232,-173,41,167,0
343243,-175,40,167,0
343254,-176,38,174,0
343265,-168,42,165,0
343276,-171,40,162,0
343287,-169,38,157,0
343298,-165,39,159,0
343309,-172,41,161,0
343320,-177,40,165,0
343331,-157,56,185,0
343342,-151,58,204,0
343353,-130,62,209,0
343364,-151,50,203,0
343375,-159,42,194,0
343386,-144,37,179,0
343397,-152,31,172,0
343408,-149,27,146,0
343419,-146,27,129,0
343430,-153,31,136,0
343441,-161,41,148,0
343452,-169,50,170,0
343463,-166,55,187,0
343474,-168,51,204,0
343485,-166,52,206,0
343496,-177,52,186,0
343507,-174,47,168,0
343518,-172,43,156,0
343529,-165,45,153,0
343540,-166,44,150,0
343551,-162,46,143,0
343562,-159,48,147,0
343573,-156,51,156,0
343584,-155,50,162,0
343595,-155,51,173,0
343606,-150,52,181,0
343617,-142,51,185,0
343628,-142,50,185,0
343639,-148,46,183,0
343650,-146,43,176,0
343661,-153,40,166,0
343672,-151,41,168,0
343683,-158,44,172,0
343694,-159,45,172,0
343705,-159,46,173,0
343716,-157,45,176,0
343727,-155,42,175,0
343738,-152,46,173,0
343749,-154,46,171,0
343760,-154,49,169,0
343772,-157,48,166,0
343782,-162,48,161,0
343793,-160,47,161,0
343804,-166,47,165,0
343815,-168,46,160,0
343826,-165,49,163,0
343837,-163,50,162,0
343848,-164,49,166,0
343859,-161,50,172,0
343870,-155,47,171,0
343881,-164,47,175,0
343892,-162,43,170,0
343903,-160,39,169,0
343914,-168,34,164,0
343925,-175,36,163,0
343936,-175,36,160,0
343947,-180,38,162,0
343958,-183,38,165,0
343969,-173,34,165,0
343980,-175,36,170,0
343991,-166,32,166,0
344002,-163,40,164,0
344013,-165,37,152,0
344024,-160,40,164,0
344035,-154,39,156,0
344046,-172,37,157,0
344057,-165,42,164,0
344068,-166,40,153,0
344079,-170,37,148,0
344090,-171,39,155,0
344101,-175,38,159,0
344112,-163,42,159,0
344123,-168,39,158,0
344134,-167,41,157,0
344145,-168,41,160,0
344156,-163,37,161,0
344167,-170,34,164,0
344178,-176,33,168,0
344189,-172,33,167,0
344200,-169,38,166,0
344211,-177,40,167,0
344222,-170,42,170,0
344233,-149,51,170,0
344244,-148,53,169,0
344255,-163,47,158,0
344266,-170,39,147,0
344277,-180,40,151,0
344288,-195,39,154,0
344299,-198,36,162,0
344310,-191,36,174,0
344321,-168,30,166,0
344332,-162,24,167,0
344343,-160,20,163,0
344354,-158,19,159,0
344365,-156,22,154,0
344376,-161,27,149,0
344387,-169,35,149,0
344398,-174,41,152,0
344409,-171,48,156,0
344420,-178,51,160,0
344431,-180,55,167,0
344442,-178,55,173,0
344453,-180,51,177,0
344464,-179,42,170,0
344475,-171,35,159,0
344486,-170,31,147,0
344497,-163,32,149,0
344508,-160,34,156,0
344519,-163,36,159,0
344530,-167,39,164,0
344541,-166,41,169,0
344552,-164,41,170,0
344563,-166,40,173,0
344574,-171,42,174,0
344585,-178,43,171,0
344596,-186,38,175,0
344607,-178,41,166,0
344618,-170,45,158,0
344629,-166,51,150,0
344640,-161,54,162,0
344651,-149,47,176,0
344662,-148,42,167,0
344673,-153,40,161,0
344684,-158,39,156,0
344695,-162,43,159,0
344706,-165,49,171,0
344717,-164,50,181,0
344728,-162,52,186,0
344739,-163,55,183,0
344750,-165,55,178,0
344761,-164,51,174,0
344772,-162,49,171,0
344783,-158,47,167,0
344794,-156,47,165,0
344805,-153,46,162,0
344816,-146,45,161,0
344827,-145,47,166,0
344838,-146,48,173,0
344849,-147,49,179,0
344860,-148,51,179,0
344871,-149,53,182,0
344882,-147,52,181,0
344893,-143,50,179,0
344904,-140,50,177,0
344915,-138,50,177,0
344926,-137,47,178,0
344937,-137,48,176,0
344948,-137,49,173,0
344959,-142,52,170,0
344970,-146,56,168,0
344981,-153,59,175,0
344992,-158,60,174,0
345003,-162,62,172,0
345015,-162,62,172,0
345026,-160,62,174,0
345037,-157,59,168,0
345048,-155,60,168,0
345059,-150,59,169,0
345070,-154,57,171,0
345081,-151,58,174,0
345092,-147,62,172,0
345103,-150,63,167,0
345114,-151,64,166,0
345125,-157,66,168,0
345136,-159,66,171,0
345147,-162,66,176,0
345158,-163,63,178,0
345169,-160,63,180,0
345180,-162,64,183,0
345191,-162,57,182,0
345202,-160,56,183,0
345213,-153,52,172,0
345224,-154,52,166,0
345235,-160,52,165,0
345246,-157,56,163,0
345257,-159,58,162,0
345268,-157,56,164,0
345279,-161,58,172,0
345290,-158,54,175,0
345301,-156,52,174,0
345312,-157,50,172,0
345323,-150,47,168,0
345334,-158,46,165,0
345345,-160,42,159,0
345356,-162,43,161,0
345367,-161,39,158,0
345378,-166,42,166,0
345389,-162,39,164,0
345400,-167,39,170,0
345411,-166,41,170,0
345422,-172,39,167,0
345433,-166,38,164,0
345444,-169,41,163,0
345455,-170,37,161,0
345466,-170,39,161,0
345477,-170,37,154,0
345488,-168,37,159,0
345499,-164,35,156,0
345510,-166,32,154,0
345521,-163,31,161,0
345532,-171,32,156,0
345543,-171,31,157,0
345554,-174,33,162,0
345565,-186,36,161,0
345576,-177,34,158,0
345587,-179,36,159,0
345598,-180,35,156,0
345609,-176,38,153,0
345620,-190,44,154,0
345631,-180,41,153,0
345642,-184,45,165,0
345653,-185,40,163,0
345664,-170,39,169,0
345675,-170,33,170,0
345686,-170,34,171,0
345697,-163,34,172,0
345708,-167,42,170,0
345719,-166,42,172,0
345730,-161,46,167,0
345741,-172,49,164,0
345752,-180,49,154,0
345763,-178,45,153,0
345774,-172,44,155,0
345785,-169,32,172,0
345796,-168,36,178,0
345807,-172,30,189,0
345818,-161,36,188,0
345829,-153,34,176,0
345840,-156,32,167,0
345851,-159,28,161,0
345862,-161,27,154,0
345874,-157,23,148,0
345885,-162,24,140,0
345896,-171,25,143,0
345907,-169,23,146,0
345918,-168,29,146,0
345929,-180,31,149,0
345940,-177,27,145,0
345951,-173,26,141,0
345962,-179,28,142,0
345973,-183,31,146,0
345984,-178,29,157,0
345995,-173,23,171,0
346006,-167,16,175,0
346017,-159,7,182,0
346028,-157,11,180,0
346039,-157,13,172,0
346050,-151,16,171,0
346061,-148,19,170,0
346072,-153,22,171,0
346083,-153,26,172,0
346094,-153,30,169,0
346105,-155,31,164,0
346116,-160,35,169,0
346127,-166,38,176,0
346138,-166,44,178,0
346149,-164,48,185,0
346160,-159,44,187,0
346171,-155,43,183,0
346183,-152,42,178,0
346194,-150,38,175,0
346205,-146,35,170,0
346216,-141,35,172,0
346227,-136,31,173,0
346238,-132,31,174,0
346249,-134,33,183,0
346260,-142,33,185,0
346271,-151,34,187,0
346282,-158,36,183,0
346293,-163,37,178,0
346304,-168,41,176,0
346315,-172,48,177,0
346326,-173,56,180,0
346337,-174,58,182,0
346348,-174,59,176,0
346359,-176,58,170,0
346370,-171,57,167,0
346381,-164,54,163,0
346393,-151,54,177,0
346404,-146,55,181,0
346415,-142,52,181,0
346426,-141,51,178,0
346437,-136,50,181,0
346448,-139,46,179,0
346459,-134,46,173,0
346470,-140,48,176,0
346481,-143,52,178,0
346492,-144,53,175,0
346503,-150,58,176,0
346514,-154,58,174,0
346525,-156,62,175,0
346536,-151,62,175,0
346547,-154,63,171,0
346558,-146,63,169,0
346569,-148,63,170,0
346580,-148,61,174,0
346591,-144,62,177,0
346602,-144,60,177,0
346613,-147,58,178,0
346624,-148,60,179,0
346635,-149,59,176,0
346646,-155,58,174,0
346657,-155,57,170,0
346668,-155,58,169,0
346679,-162,55,169,0
346690,-168,53,168,0
346701,-168,53,169,0
346712,-161,54,167,0
346723,-170,54,166,0
346734,-172,51,165,0
346745,-157,51,173,0
346756,-164,47,176,0
346767,-157,47,167,0
346778,-163,49,171,0
346789,-165,47,164,0
346800,-170,43,157,0
346811,-167,44,164,0
346822,-167,45,155,0
346833,-169,46,156,0
346844,-172,47,163,0
346855,-172,46,168,0
346866,-164,48,166,0
346877,-163,46,163,0
346888,-164,45,158,0
346899,-163,46,161,0
346910,-164,46,165,0
346921,-170,46,158,0
346932,-163,50,166,0
346943,-180,46,171,0
346954,-173,44,164,0
346965,-163,49,172,0
346976,-171,49,167,0
346987,-178,51,172,0
346998,-172,51,176,0
347009,-169,47,173,0
347020,-165,44,166,0
347031,-159,39,162,0
347042,-156,37,161,0
347053,-151,36,159,0
347064,-156,38,158,0
347075,-151,40,156,0
347086,-160,42,155,0
347097,-172,39,162,0
347108,-155,40,166,0
347119,-158,39,161,0
347130,-167,38,161,0
347141,-165,38,166,0
347152,-176,37,162,0
347163,-161,40,166,0
347174,-155,39,162,0
347185,-167,38,157,0
347196,-165,42,164,0
347207,-155,44,167,0
347218,-165,41,163,0
347229,-161,46,164,0
347240,-162,45,163,0
347251,-165,46,168,0
347262,-169,47,170,0
347273,-170,47,170,0
347284,-171,46,166,0
347295,-167,45,165,0
347306,-169,45,163,0
347317,-170,46,164,0
347328,-168,42,162,0
347339,-169,41,162,0
347350,-159,41,164,0
347361,-161,41,163,0
347372,-170,46,162,0
347383,-164,45,163,0
347394,-164,44,160,0
347405,-169,44,159,0
347416,-169,43,163,0
347427,-166,43,160,0
347438,-168,43,155,0
347449,-176,43,155,0
347461,-171,47,155,0
347472,-168,49,154,0
347483,-175,49,152,0
347494,-181,51,159,0
347505,-169,52,164,0
347516,-164,52,161,0
347527,-180,51,163,0
347538,-173,50,160,0
347549,-176,50,156,0
347560,-179,49,157,0
347571,-176,53,158,0
347582,-178,51,158,0
347593,-178,50,157,0
347604,-171,50,156,0
347615,-176,50,160,0
347626,-175,51,162,0
347637,-170,50,162,0
347648,-171,48,163,0
347659,-171,48,162,0
347670,-168,49,160,0
347681,-171,48,158,0
347692,-167,50,160,0
347703,-167,51,160,0
347714,-166,53,162,0
347725,-166,53,165,0
347736,-166,50,165,0
347747,-166,48,161,0
347758,-163,46,160,0
347769,-160,43,159,0
347780,-162,44,156,0
347791,-166,45,155,0
347802,-165,45,156,0
347813,-165,44,158,0
347824,-163,46,159,0
347835,-164,46,160,0
347846,-171,46,159,0
347857,-170,47,163,0
347868,-167,46,163,0
347879,-165,46,163,0
347890,-163,45,165,0
347901,-160,46,167,0
347912,-161,49,168,0
347923,-160,50,167,0
347934,-162,55,170,0
347945,-163,55,169,0
347956,-162,54,166,0
347967,-161,54,167,0
347978,-156,54,167,0
347989,-152,57,168,0
348000,-151,57,169,0
348011,-153,57,168,0
348022,-153,59,170,0
348033,-153,57,171,0
348044,-154,57,172,0
348055,-158,58,170,0
348066,-162,55,172,0
348077,-162,59,173,0
348088,-158,61,176,0
348099,-152,61,178,0
348110,-149,60,180,0
348121,-147,60,178,0
348132,-144,58,177,0
348143,-142,55,175,0
348154,-143,54,173,0
348165,-146,54,169,0
348176,-154,55,171,0
348187,-156,55,173,0
348198,-154,53,172,0
348209,-153,53,174,0
348220,-152,52,177,0
348231,-148,52,178,0
348242,-143,51,179,0
348253,-141,51,179,0
348264,-143,49,175,0
348275,-153,54,172,0
348286,-165,60,170,0
348297,-169,63,169,0
348308,-167,62,174,0
348319,-163,58,173,0
348330,-152,54,173,0
348341,-139,50,180,0
348352,-138,50,173,0
348363,-145,50,166,0
348374,-151,53,170,0
348385,-156,58,171,0
348396,-159,61,170,0
348407,-162,62,173,0
348418,-165,63,170,0
348429,-161,65,172,0
348440,-151,70,176,0
348451,-135,74,184,0
348462,-128,71,180,0
348473,-128,57,170,0
348484,-135,42,159,0
348495,-142,29,164,0
348506,-145,36,196,0
348517,-145,52,205,0
348528,-148,56,199,0
348539,-154,53,185,0
348550,-158,50,172,0
348561,-163,48,163,0
348572,-170,46,157,0
348583,-173,43,152,0
348594,-175,44,154,0
348605,-172,46,157,0
348616,-168,44,162,0
348627,-163,42,165,0
348638,-159,38,168,0
348649,-159,35,169,0
348660,-158,32,169,0
348671,-155,26,170,0
348682,-154,28,176,0
348693,-152,29,177,0
348704,-153,33,178,0
348715,-155,35,172,0
348726,-156,39,169,0
348737,-155,40,169,0
348748,-155,40,166,0
348759,-157,42,166,0
348770,-158,44,165,0
348781,-161,42,165,0
348792,-164,43,161,0
348803,-168,43,161,0
348814,-167,43,163,0
348825,-166,46,168,0
348836,-155,52,179,0
348847,-150,55,181,0
348858,-146,57,180,0
348869,-144,60,177,0
348880,-147,62,176,0
348891,-149,63,174,0
348902,-155,64,172,0
348913,-159,62,171,0
348924,-164,62,173,0
348935,-165,61,175,0
348946,-165,59,173,0
348957,-162,57,173,0
348968,-160,55,172,0
348979,-158,53,171,0
348990,-155,52,172,0
349001,-151,50,170,0
349012,-152,51,171,0
349023,-153,51,170,0
349034,-154,51,170,0
349045,-155,50,171,0
349056,-156,50,168,0
349067,-158,50,167,0
349078,-159,50,167,0
349089,-159,50,168,0
349100,-158,51,168,0
349111,-158,50,170,0
349122,-157,50,169,0
349133,-158,52,172,0
349144,-156,52,174,0
349155,-155,53,173,0
349166,-157,53,176,0
349177,-155,53,175,0
349188,-152,53,176,0
349199,-148,52,174,0
349210,-147,52,174,0
349221,-146,54,173,0
349232,-145,54,173,0
349243,-147,54,174,0
349254,-147,56,175,0
349265,-148,54,173,0
349276,-151,55,173,0
349287,-149,52,172,0
349298,-150,51,172,0
349309,-148,51,170,0
349320,-149,49,170,0
349331,-149,47,170,0
349342,-148,46,171,0
349353,-147,45,171,0
349364,-148,46,172,0
349375,-148,47,172,0
349386,-151,47,174,0
349397,-150,48,173,0
349408,-151,47,172,0
349419,-152,48,172,0
349430,-156,47,169,0
349441,-158,49,170,0
349452,-160,50,170,0
349463,-161,51,170,0
349474,-164,54,171,0
349485,-165,56,171,0
349496,-161,54,169,0
349507,-160,54,168,0
349518,-160,54,168,0
349529,-162,55,167,0
349540,-162,54,167,0
349551,-162,53,170,0
349562,-162,53,169,0
349573,-160,53,169,0
349584,-160,53,167,0
349595,-160,51,168,0
349606,-162,51,166,0
349617,-165,49,165,0
349628,-169,45,164,0
349639,-174,46,163,0
349650,-177,44,166,0
349661,-173,45,165,0
349672,-169,46,168,0
349683,-164,46,168,0
349694,-161,48,167,0
349705,-158,50,167,0
349716,-158,54,169,0
349727,-155,56,171,0
349738,-155,59,172,0
349749,-158,63,172,0
349760,-161,67,171,0
349771,-162,67,173,0
349782,-160,67,174,0
349793,-157,65,173,0
349804,-155,61,169,0
349815,-152,58,168,0
349826,-149,55,169,0
349837,-147,51,166,0
349848,-149,48,164,0
349859,-151,50,165,0
349870,-152,54,165,0
349881,-156,58,166,0
349892,-158,60,170,0
349903,-158,63,170,0
349914,-157,63,168,0
349925,-156,63,168,0
349936,-155,62,165,0
349947,-156,62,161,0
349958,-159,61,156,0
349969,-160,60,155,0
349980,-167,60,150,0
349991,-169,62,152,0
350002,-170,63,154,0
350013,-171,62,155,0
350024,-170,62,162,0
350035,-167,61,162,0
350046,-164,61,162,0
350057,-160,59,162,0
350068,-159,57,159,0
350079,-162,57,159,0
350090,-162,58,159,0
350101,-165,55,159,0
350112,-167,55,157,0
350123,-168,54,154,0
350134,-175,54,154,0
350145,-172,56,163,0
350156,-168,57,164,0
350167,-170,58,161,0
350178,-171,59,164,0
350189,-172,59,166,0
350200,-174,57,165,0
350211,-173,57,162,0
350222,-169,52,159,0
350233,-166,53,155,0
350245,-164,52,155,0
350256,-168,53,158,0
350267,-168,53,159,0
350278,-170,54,159,0
350289,-169,55,158,0
350300,-167,53,158,0
350311,-167,50,161,0
350322,-168,53,159,0
350333,-168,53,159,0
350344,-163,52,152,0
350355,-169,55,154,0
350366,-175,58,158,0
350377,-178,59,161,0
350388,-170,60,163,0
350399,-167,59,168,0
350410,-170,57,162,0
350421,-171,56,161,0
350432,-173,56,159,0
350443,-178,54,156,0
350454,-176,51,153,0
350465,-179,49,149,0
350476,-175,50,151,0
350487,-175,49,158,0
350498,-170,49,162,0
350509,-171,50,163,0
350520,-174,49,160,0
350531,-170,48,159,0
350542,-175,42,154,0
350553,-178,39,153,0
350564,-178,37,157,0
350575,-187,38,161,0
350586,-189,42,162,0
350598,-193,48,168,0
350609,-196,58,161,0
350620,-196,53,156,0
350631,-198,50,152,0
350642,-189,43,152,0
350653,-174,35,156,0
350664,-158,30,149,0
350675,-146,32,147,0
350686,-144,34,142,0
350697,-139,36,135,0
350708,-142,33,132,0
350719,-154,31,136,0
350730,-157,27,140,0
350741,-159,26,146,0
350752,-172,30,161,0
350763,-177,33,176,0
350774,-174,36,190,0
350785,-162,41,195,0
350796,-154,42,187,0
350807,-156,39,165,0
350818,-159,41,145,0
350829,-166,46,134,0
350840,-172,51,134,0
350851,-162,56,145,0
350862,-159,61,153,0
350873,-157,63,154,0
350884,-158,64,150,0
350895,-171,66,144,0
350906,-171,64,139,0
350917,-180,62,142,0
350928,-187,58,150,0
350939,-180,46,162,0
350950,-177,49,159,0
350961,-185,60,161,0
350972,-196,60,151,0
350983,-189,63,147,0
350994,-199,63,150,0
351005,-202,63,154,0
351016,-193,66,163,0
351027,-193,64,168,0
351038,-190,58,166,0
351049,-183,58,167,0
351060,-176,60,168,0
351071,-168,61,165,0
351082,-159,65,168,0
351093,-153,71,168,0
351104,-149,63,165,0
351115,-156,59,160,0
351126,-164,55,152,0
351137,-175,52,147,0
351148,-181,48,150,0
351159,-175,49,157,0
351170,-164,49,159,0
351181,-151,56,162,0
351192,-150,50,166,0
351203,-145,40,174,0
351214,-139,36,180,0
351225,-134,33,185,0
351236,-123,33,186,0
351247,-122,38,186,0
351258,-120,44,180,0
351269,-140,55,157,0
351280,-145,60,153,0
351291,-148,63,154,0
351302,-146,65,163,0
351313,-148,68,170,0
351324,-149,71,179,0
351335,-145,69,182,0
351346,-143,67,179,0
351357,-150,66,173,0
351368,-149,58,164,0
351379,-150,57,155,0
351390,-157,56,163,0
351401,-154,59,172,0
351412,-161,61,174,0
351423,-158,62,178,0
351434,-159,65,182,0
351445,-161,62,175,0
351456,-161,54,165,0
351467,-163,46,160,0
351478,-160,45,167,0
351489,-158,44,174,0
351500,-155,45,183,0
351511,-158,47,177,0
351522,-173,48,157,0
351533,-180,47,147,0
351544,-189,47,145,0
351555,-199,56,149,0
351566,-201,60,160,0
351577,-191,64,169,0
351588,-185,56,169,0
351599,-162,46,142,0
351610,-146,43,133,0
351621,-153,46,130,0
351632,-177,45,145,0
351643,-194,52,158,0
351654,-207,61,164,0
351665,-228,66,190,0
351676,-236,75,195,0
351687,-223,75,174,0
351698,-201,65,135,0
351709,-183,45,120,0
351720,-172,28,106,0
351731,-166,22,107,0
351742,-164,21,115,0
351753,-171,21,130,0
351764,-192,23,165,0
351775,-199,22,164,0
351786,-208,33,142,0
351797,-208,41,128,0
351808,-208,48,119,0
351819,-208,56,109,0
351831,-205,62,109,0
351842,-198,62,125,0
351853,-187,59,142,0
351864,-174,56,147,0
351875,-164,56,152,0
351886,-152,50,151,0
351897,-149,47,159,0
351908,-151,51,171,0
351919,-159,54,158,0
351930,-169,57,162,0
351941,-172,60,172,0
351952,-163,59,182,0
351963,-156,54,174,0
351974,-161,57,160,0
351985,-170,51,162,0
351996,-178,53,161,0
352007,-178,56,167,0
352018,-179,58,166,0
352029,-179,61,158,0
352040,-175,58,159,0
352051,-169,60,161,0
352062,-170,63,162,0
352073,-173,63,165,0
352084,-171,59,163,0
352095,-167,54,163,0
352106,-169,54,161,0
352117,-169,53,165,0
352128,-170,49,171,0
352139,-166,50,170,0
352150,-164,50,169,0
352161,-167,51,170,0
352172,-168,48,165,0
352183,-173,47,159,0
352194,-182,44,152,0
352205,-189,44,150,0
352216,-189,47,152,0
352227,-189,47,150,0
352238,-179,42,161,0
352249,-171,37,161,0
352260,-170,34,154,0
352271,-167,31,154,0
352282,-161,28,156,0
352293,-161,27,154,0
352304,-164,30,150,0
352315,-171,38,151,0
352326,-174,41,156,0
352337,-168,48,158,0
352348,-174,38,177,0
352359,-166,40,180,0
352370,-161,37,173,0
352381,-157,33,170,0
352392,-154,30,167,0
352403,-158,43,154,0
352414,-163,47,160,0
352425,-164,49,162,0
352436,-165,51,157,0
352447,-164,51,163,0
352458,-156,48,168,0
352469,-154,41,173,0
352480,-155,44,171,0
352491,-155,45,171,0
352502,-155,46,174,0
352513,-154,47,176,0
352524,-152,51,178,0
352535,-154,50,181,0
352546,-157,51,183,0
352557,-159,48,174,0
352568,-157,34,167,0
352579,-153,34,149,0
352590,-158,35,143,0
352601,-161,38,148,0
352612,-163,45,154,0
352623,-169,52,161,0
352634,-175,56,169,0
352645,-178,59,168,0
352656,-187,59,163,0
352667,-183,62,164,0
352678,-177,52,160,0
352689,-169,46,150,0
352700,-164,45,141,0
352711,-159,55,149,0
352722,-152,66,167,0
352734,-146,75,196,0
352745,-147,69,198,0
352756,-153,64,196,0
352767,-158,66,196,0
352778,-161,60,193,0
352789,-158,57,195,0
352800,-151,53,188,0
352811,-146,57,177,0
352822,-140,60,173,0
352833,-134,65,171,0
352844,-131,66,170,0
352855,-129,67,168,0
352866,-129,65,168,0
352877,-136,69,171,0
352888,-142,71,178,0
352899,-144,70,186,0
352910,-144,68,189,0
352921,-143,69,187,0
352932,-140,69,186,0
352943,-139,69,184,0
352954,-137,69,181,0
352965,-138,71,177,0
352976,-139,75,174,0
352987,-140,76,170,0
352998,-139,78,166,0
353009,-140,79,163,0
353020,-140,81,164,0
353031,-139,78,166,0
353042,-136,72,174,0
353053,-133,69,174,0
353064,-130,66,173,0
353075,-130,64,174,0
353086,-132,62,175,0
353097,-135,62,175,0
353108,-138,63,178,0
353119,-143,63,179,0
353130,-148,64,182,0
353141,-152,65,180,0
353152,-153,66,179,0
353163,-153,66,178,0
353174,-153,65,179,0
353185,-151,64,177,0
353196,-151,63,176,0
353207,-147,64,173,0
353218,-149,65,172,0
353229,-151,66,172,0
353240,-152,68,172,0
353251,-152,66,173,0
353262,-153,66,173,0
353273,-154,65,171,0
353284,-154,65,170,0
353295,-154,66,168,0
353306,-154,65,167,0
353317,-155,66,165,0
353328,-155,66,167,0
353339,-155,64,168,0
353350,-154,64,164,0
353361,-152,64,164,0
353372,-153,64,167,0
353383,-154,66,169,0
353394,-158,65,168,0
353405,-159,67,171,0
353416,-159,68,174,0
353427,-157,67,177,0
353438,-155,66,176,0
353449,-150,64,175,0
353460,-148,65,175,0
353471,-145,65,176,0
353482,-142,66,179,0
353493,-140,67,181,0
353504,-139,67,178,0
353515,-138,68,176,0
353526,-139,68,175,0
353537,-137,67,175,0
353548,-136,67,175,0
353559,-137,70,177,0
353570,-136,71,178,0
353581,-136,71,179,0
353592,-136,71,180,0
353603,-137,67,181,0
353614,-137,64,179,0
353625,-139,61,176,0
353636,-139,57,175,0
353647,-141,57,174,0
353658,-141,58,173,0
353669,-144,56,172,0
353680,-147,57,171,0
353691,-152,57,171,0
353702,-151,56,173,0
353713,-151,55,173,0
353724,-151,54,173,0
353735,-151,55,178,0
353746,-152,57,182,0
353757,-156,57,187,0
353768,-156,60,177,0
353779,-162,57,173,0
353790,-163,55,165,0
353801,-164,53,161,0
353812,-168,50,165,0
353823,-164,50,168,0
353834,-160,48,166,0
353845,-158,47,172,0
353856,-158,45,173,0
353867,-161,45,169,0
353878,-164,46,169,0
353889,-166,48,167,0
353900,-169,50,168,0
353911,-170,52,157,0
353922,-171,49,150,0
353933,-171,51,150,0
353944,-171,52,156,0
353955,-169,53,149,0
353966,-171,54,148,0
353977,-174,54,150,0
353988,-177,57,157,0
353999,-177,56,158,0
354010,-175,59,165,0
354021,-173,59,169,0
354032,-167,56,164,0
354043,-165,55,165,0
354054,-160,50,163,0
354065,-158,48,159,0
354076,-158,46,156,0
354087,-159,41,155,0
354098,-155,40,154,0
354109,-155,40,150,0
354120,-160,37,154,0
354131,-163,36,158,0
354142,-170,34,162,0
354153,-175,33,168,0
354164,-175,32,171,0
354175,-175,30,171,0
354186,-173,26,168,0
354197,-175,20,166,0
354208,-175,20,166,0
354219,-170,18,166,0
354230,-166,18,169,0
354241,-175,18,171,0
354252,-174,20,173,0
354263,-168,22,176,0
354274,-165,22,171,0
354285,-165,21,170,0
354296,-176,21,164,0
354307,-170,21,161,0
354318,-162,22,155,0
354329,-160,24,150,0
354340,-159,25,152,0
354351,-157,28,161,0
354362,-154,26,162,0
354373,-150,24,158,0
354384,-155,21,160,0
354395,-146,21,159,0
354406,-151,24,163,0
354417,-157,28,162,0
354429,-164,32,163,0
354440,-168,34,168,0
354451,-169,36,169,0
354462,-177,38,169,0
354473,-182,42,171,0
354484,-182,44,171,0
354495,-179,40,162,0
354507,-178,32,156,0
354517,-166,33,155,0
354528,-176,36,160,0
354539,-177,33,164,0
354550,-168,33,166,0
354561,-180,31,163,0
354572,-171,27,161,0
354583,-176,32,157,0
354594,-182,30,152,0
354605,-189,32,156,0
354616,-177,31,160,0
354627,-174,35,154,0
354638,-190,36,155,0
354649,-184,36,162,0
354660,-178,39,162,0
354671,-176,35,163,0
354682,-177,33,162,0
354693,-169,33,163,0
354704,-173,32,161,0
354715,-167,29,156,0
354726,-176,33,154,0
354737,-177,35,159,0
354748,-182,37,162,0
354759,-171,35,160,0
354770,-171,39,161,0
354781,-177,37,167,0
354792,-166,34,172,0
354803,-164,35,168,0
354814,-161,35,161,0
354825,-166,35,158,0
354836,-164,30,158,0
354847,-165,28,160,0
354858,-159,29,163,0
354869,-155,30,171,0
354880,-173,23,184,0
354891,-172,24,192,0
354902,-171,22,199,0
354913,-168,32,167,0
354924,-168,31,157,0
354935,-175,30,157,0
354946,-170,29,163,0
354957,-161,29,161,0
354968,-156,27,154,0
354979,-167,27,149,0
354990,-173,29,158,0
355001,-173,29,164,0
355012,-176,29,165,0
355023,-179,28,168,0
355034,-176,23,166,0
355045,-166,16,161,0
355056,-154,10,161,0
355067,-159,2,159,0
355078,-166,-2,159,0
355089,-175,-6,157,0
355100,-181,-8,158,0
355111,-186,-8,162,0
355122,-195,-10,165,0
355133,-195,-13,176,0
355144,-186,-10,179,0
355155,-180,-1,162,0
355166,-183,1,163,0
355177,-189,8,167,0
355188,-198,16,165,0
355199,-204,23,161,0
355210,-203,26,155,0
355221,-201,28,150,0
355232,-194,30,147,0
355243,-187,28,150,0
355254,-182,27,158,0
355265,-176,27,163,0
355276,-172,27,157,0
355287,-172,26,155,0
355298,-174,26,157,0
355309,-176,24,155,0
355320,-171,18,157,0
355331,-154,15,163,0
355342,-159,12,163,0
355354,-163,12,170,0
355365,-161,17,173,0
355376,-159,16,170,0
355387,-161,18,171,0
355398,-165,17,179,0
355409,-164,23,175,0
355420,-169,24,168,0
355431,-168,21,167,0
355442,-164,20,167,0
355453,-163,20,167,0
355464,-160,14,169,0
355475,-158,11,169,0
355486,-151,13,158,0
355497,-153,13,159,0
355508,-152,12,160,0
355519,-155,9,164,0
355530,-154,18,162,0
355541,-154,25,155,0
355552,-154,29,152,0
355563,-151,27,153,0
355574,-152,30,157,0
355585,-154,30,158,0
355596,-157,29,160,0
355607,-164,33,163,0
355618,-177,37,162,0
355629,-178,37,167,0
355640,-175,37,171,0
355651,-173,32,166,0
355662,-167,29,172,0
355673,-159,24,178,0
355684,-157,21,177,0
355695,-156,18,169,0
355706,-156,19,159,0
355717,-161,22,152,0
355728,-165,28,152,0
355739,-166,33,159,0
355750,-170,35,174,0
355761,-165,34,188,0
355772,-158,38,187,0
355783,-158,40,183,0
355794,-159,43,182,0
355805,-160,40,182,0
355816,-165,37,165,0
355827,-171,34,172,0
355838,-173,33,179,0
355849,-169,41,156,0
355860,-175,45,141,0
355871,-179,46,156,0
355882,-178,47,187,0
355893,-169,43,204,0
355904,-157,33,191,0
355915,-149,25,174,0
355926,-149,14,172,0
355937,-149,19,164,0
355948,-158,22,152,0
355959,-168,26,156,0
355971,-177,37,164,0
355982,-182,33,180,0
355993,-178,23,191,0
356004,-170,19,181,0
356015,-167,16,171,0
356026,-163,14,170,0
356037,-158,16,165,0
356048,-159,20,163,0
356059,-165,27,169,0
356070,-169,31,178,0
356081,-172,31,179,0
356092,-168,28,179,0
356103,-162,23,178,0
356114,-159,21,172,0
356125,-160,10,156,0
356136,-156,13,151,0
356147,-160,16,154,0
356158,-158,21,165,0
356169,-159,25,166,0
356180,-162,26,173,0
356191,-160,26,177,0
356202,-160,27,182,0
356213,-158,26,183,0
356224,-160,26,185,0
356235,-161,28,181,0
356246,-161,21,176,0
356257,-160,19,167,0
356268,-163,19,159,0
356279,-164,20,154,0
356290,-169,25,155,0
356301,-170,26,158,0
356312,-171,28,158,0
356323,-170,26,156,0
356334,-171,25,154,0
356345,-172,27,150,0
356356,-172,26,152,0
356367,-168,27,156,0
356378,-167,26,156,0
356389,-164,24,157,0
356400,-165,24,156,0
356411,-167,25,151,0
356422,-170,23,149,0
356433,-172,23,147,0
356444,-176,24,145,0
356455,-186,27,151,0
356466,-190,29,147,0
356477,-193,31,146,0
356488,-192,36,151,0
356499,-187,42,157,0
356510,-183,45,163,0
356521,-176,40,171,0
356532,-170,30,189,0
356543,-157,26,199,0
356554,-146,24,195,0
356565,-143,22,182,0
356576,-150,22,170,0
356587,-153,23,159,0
356598,-148,24,157,0
356609,-146,27,156,0
356620,-147,26,157,0
356631,-150,29,162,0
356642,-153,33,168,0
356653,-158,37,170,0
356664,-165,42,173,0
356675,-170,44,175,0
356686,-168,44,177,0
356697,-158,39,178,0
356708,-149,35,176,0
356719,-146,33,180,0
356730,-145,34,185,0
356741,-152,37,186,0
356752,-161,38,181,0
356763,-170,42,178,0
356774,-176,43,175,0
356785,-177,44,160,0
356796,-176,45,157,0
356807,-176,44,158,0
356818,-175,43,161,0
356829,-167,42,168,0
356840,-162,42,169,0
356851,-161,44,170,0
356862,-163,43,172,0
356873,-164,41,169,0
356884,-165,40,169,0
356895,-162,37,167,0
356906,-159,39,167,0
356917,-159,38,164,0
356928,-161,40,161,0
356939,-164,44,161,0
356950,-172,51,164,0
356961,-176,48,165,0
356972,-177,46,163,0
356983,-175,49,167,0
356994,-171,49,173,0
357005,-170,50,180,0
357016,-168,48,181,0
357027,-167,46,178,0
357038,-169,46,175,0
357049,-170,47,172,0
357060,-169,46,173,0
357071,-170,49,173,0
357082,-172,52,175,0
357093,-167,51,180,0
357104,-161,50,182,0
357115,-147,47,184,0
357126,-141,45,185,0
357137,-139,45,188,0
357148,-136,41,186,0
357159,-136,39,186,0
357170,-136,37,185,0
357181,-138,39,187,0
357192,-141,41,191,0
357203,-140,46,193,0
357214,-140,47,192,0
357225,-140,46,192,0
357236,-141,45,193,0
357247,-142,44,193,0
357258,-139,42,191,0
357269,-134,36,190,0
357280,-121,39,191,0
357291,-123,46,190,0
357302,-132,47,191,0
357313,-139,46,193,0
357324,-137,41,194,0
357335,-129,39,197,0
357346,-120,37,198,0
357357,-112,36,198,0
357368,-100,36,195,0
357379,-92,36,194,0
357390,-91,32,192,0
357401,-90,29,192,0
357412,-83,31,200,0
357423,-79,36,212,0
357434,-76,38,224,0
357445,-70,38,235,0
357456,-72,37,230,0
357467,-73,33,220,0
357478,-72,32,217,0
357489,-66,33,220,0
357500,-66,37,223,0
357511,-69,35,225,0
357522,-72,37,227,0
357533,-75,37,235,0
357544,-76,36,242,0
357555,-75,31,243,0
357566,-72,27,243,0
357577,-70,25,242,0
357588,-67,24,229,0
357599,-69,23,208,0
357610,-68,22,198,0
357621,-71,25,193,0
357632,-74,24,197,0
357643,-73,19,202,0
357654,-74,15,200,0
357665,-73,13,198,0
357676,-71,10,200,0
357687,-67,6,193,0
357698,-60,3,193,0
357709,-54,2,197,0
357720,-49,0,204,0
357731,-46,-1,214,0
357742,-42,0,218,0
357753,-44,-1,224,0
357764,-51,-1,221,0
357775,-59,1,224,0
357786,-63,1,219,0
357797,-67,-1,218,0
357808,-68,0,217,0
357819,-67,0,218,0
357830,-76,-7,221,0
357841,-69,-1,229,0
357852,-47,1,215,0
357863,-48,1,212,0
357874,-55,2,214,0
357886,-61,8,212,0
357897,-58,16,218,0
357908,-56,18,217,0
357919,-76,13,216,0
357930,-78,9,222,0
357941,-68,10,223,0
357952,-70,8,218,0
357963,-77,8,215,0
357974,-85,7,221,0
357985,-75,15,223,0
357996,-81,19,219,0
358007,-89,21,224,0
358018,-94,20,221,0
358029,-91,24,220,0
358040,-92,26,208,0
358051,-98,23,203,0
358062,-95,14,200,0
358073,-85,14,203,0
358084,-85,11,209,0
358095,-84,10,211,0
358106,-84,15,213,0
358117,-82,15,214,0
358128,-84,11,212,0
358139,-82,12,206,0
358150,-82,16,201,0
358161,-85,12,198,0
358172,-90,11,197,0
358183,-85,12,194,0
358194,-87,12,198,0
358205,-86,8,195,0
358216,-87,8,199,0
358227,-88,2,209,0
358238,-79,0,211,0
358249,-73,0,216,0
358260,-67,2,214,0
358271,-65,7,206,0
358282,-75,11,204,0
358293,-79,15,202,0
358304,-87,18,201,0
358315,-93,24,205,0
358326,-106,29,215,0
358337,-108,32,218,0
358348,-115,33,214,0
358359,-119,36,216,0
358370,-122,34,209,0
358381,-117,29,205,0
358392,-121,24,201,0
358403,-114,15,200,0
358414,-121,20,196,0
358425,-127,26,196,0
358436,-138,31,198,0
358447,-147,35,201,0
358458,-137,37,211,0
358469,-142,36,203,0
358480,-138,36,197,0
358492,-141,36,194,0
358503,-135,34,193,0
358514,-137,34,192,0
358525,-131,30,190,0
358536,-134,30,184,0
358547,-137,32,183,0
358558,-141,47,186,0
358569,-151,47,189,0
358580,-151,41,188,0
358591,-148,41,189,0
358602,-144,46,195,0
358613,-142,49,203,0
358624,-143,45,201,0
358635,-148,43,192,0
358647,-145,44,188,0
358658,-141,47,189,0
358669,-136,49,190,0
358680,-133,50,191,0
358691,-131,50,193,0
358702,-126,47,204,0
358713,-128,40,197,0
358724,-138,39,189,0
358735,-138,39,179,0
358746,-136,39,175,0
358757,-144,40,170,0
358768,-150,39,174,0
358779,-157,42,178,0
358790,-162,42,182,0
358801,-162,44,187,0
358812,-161,44,189,0
358823,-160,47,188,0
358835,-156,48,189,0
358846,-152,46,187,0
358857,-147,48,181,0
358868,-149,49,177,0
358879,-149,46,172,0
358890,-151,43,170,0
358901,-152,41,166,0
358912,-154,42,164,0
358923,-157,43,162,0
358934,-160,50,165,0
358945,-160,54,172,0
358956,-159,56,180,0
358967,-158,60,188,0
358978,-159,61,192,0
358989,-161,52,199,0
359000,-154,45,199,0
359011,-150,42,178,0
359022,-153,41,166,0
359033,-152,42,163,0
359044,-150,44,162,0
359055,-147,46,158,0
359066,-147,47,158,0
359077,-148,49,161,0
359088,-150,47,166,0
359099,-154,47,169,0
359110,-156,44,169,0
359121,-157,42,167,0
359132,-157,40,164,0
359143,-161,37,161,0
359154,-166,33,156,0
359165,-166,32,155,0
359176,-166,35,157,0
359187,-164,44,165,0
359198,-162,47,165,0
359209,-162,48,164,0
359220,-162,48,162,0
359231,-163,49,157,0
359242,-169,51,156,0
359253,-175,53,153,0
359264,-177,53,157,0
359275,-178,55,162,0
359286,-176,56,167,0
359297,-174,59,169,0
359308,-173,62,167,0
359319,-172,61,161,0
359330,-172,62,155,0
359341,-173,64,151,0
359352,-180,58,149,0
359363,-177,57,154,0
359374,-177,57,155,0
359385,-177,55,156,0
359397,-176,55,154,0
359408,-179,57,152,0
359419,-183,57,154,0
359430,-183,58,152,0
359441,-181,59,151,0
359452,-184,59,150,0
359463,-183,55,153,0
359474,-181,50,151,0
359485,-178,46,148,0
359496,-172,40,150,0
359507,-173,37,149,0
359518,-175,37,147,0
359529,-179,40,148,0
359540,-176,43,154,0
359551,-172,45,154,0
359562,-169,41,150,0
359573,-170,38,142,0
359584,-176,39,136,0
359595,-178,41,136,0
359606,-184,47,143,0
359617,-190,52,147,0
359628,-191,59,154,0
359639,-190,62,158,0
359650,-187,64,160,0
359661,-181,61,152,0
359672,-179,58,149,0
359683,-173,57,147,0
359694,-169,51,144,0
359705,-169,47,138,0
359716,-174,46,129,0
359727,-177,48,129,0
359738,-181,54,135,0
359749,-183,57,145,0
359760,-178,58,151,0
359771,-177,62,153,0
359782,-176,63,154,0
359794,-175,61,154,0
359805,-182,51,146,0
359816,-180,54,153,0
359827,-176,54,155,0
359838,-182,52,158,0
359849,-177,56,163,0
359860,-171,53,161,0
359871,-167,53,154,0
359882,-167,51,149,0
359893,-172,50,146,0
359904,-172,50,149,0
359915,-178,48,153,0
359926,-185,48,153,0
359937,-185,48,158,0
359948,-183,47,158,0
359959,-178,50,156,0
359970,-179,52,160,0
359981,-170,52,159,0
359992,-174,55,157,0
360003,-171,49,150,0
360014,-161,47,144,0
360025,-160,49,139,0
360036,-170,51,136,0
360047,-169,52,144,0
360058,-165,55,158,0
360069,-162,56,166,0
360080,-169,55,168,0
360091,-172,51,171,0
360102,-172,46,174,0
360113,-174,41,178,0
360124,-172,38,187,0
360135,-162,34,176,0
360146,-160,35,176,0
360157,-161,38,172,0
360168,-154,42,166,0
360179,-148,47,167,0
360190,-146,52,166,0
360201,-149,55,161,0
360212,-149,55,159,0
360223,-146,57,157,0
360234,-149,62,164,0
360245,-156,60,165,0
360256,-155,63,167,0
360267,-153,67,173,0
360278,-158,69,175,0
360289,-158,70,175,0
360300,-157,66,166,0
360311,-163,66,167,0
360322,-168,64,169,0
360333,-166,64,173,0
360344,-159,64,177,0
360355,-153,64,181,0
360366,-149,64,183,0
360377,-151,65,184,0
360388,-150,63,172,0
360400,-148,65,168,0
360411,-152,63,162,0
360422,-164,65,161,0
360433,-176,63,159,0
360444,-176,65,156,0
360455,-178,64,153,0
360466,-168,64,158,0
360477,-149,61,169,0
360488,-131,61,176,0
360499,-119,60,177,0
360510,-116,57,175,0
360521,-122,49,177,0
360532,-133,47,186,0
360543,-144,53,192,0
360554,-159,56,199,0
360565,-165,56,203,0
360576,-166,54,196,0
360587,-162,49,183,0
360598,-156,47,173,0
360609,-136,44,154,0
360620,-134,41,152,0
360631,-138,43,151,0
360642,-149,49,158,0
360653,-153,53,167,0
360664,-154,54,177,0
360675,-160,53,182,0
360686,-167,52,180,0
360697,-166,50,174,0
360708,-166,49,167,0
360719,-170,50,159,0
360730,-172,50,153,0
360741,-166,51,152,0
360752,-166,53,155,0
360763,-172,52,156,0
360774,-179,44,154,0
360785,-180,44,155,0
360796,-178,44,158,0
360807,-177,43,156,0
360818,-171,39,151,0
360829,-166,38,147,0
360840,-166,38,143,0
360851,-168,37,141,0
360862,-171,37,141,0
360873,-178,40,145,0
360884,-185,39,146,0
360895,-188,41,153,0
360906,-190,41,158,0
360917,-186,39,159,0
360928,-178,38,154,0
360939,-170,40,142,0
360950,-168,43,142,0
360961,-175,45,144,0
360972,-182,48,149,0
360983,-186,52,152,0
360994,-188,56,157,0
361005,-186,56,157,0
361016,-187,55,157,0
361027,-181,52,153,0
361038,-177,53,149,0
361049,-174,51,143,0
361060,-172,52,140,0
361071,-176,55,144,0
361082,-174,53,147,0
361093,-174,56,150,0
361104,-178,56,152,0
361115,-177,57,156,0
361126,-176,55,155,0
361137,-170,52,153,0
361148,-171,50,151,0
361159,-171,48,150,0
361170,-175,46,158,0
361181,-172,48,159,0
361192,-175,52,160,0
361203,-177,52,156,0
361214,-177,52,148,0
361226,-174,55,144,0
361237,-178,58,137,0
361248,-185,60,144,0
361259,-183,64,151,0
361270,-184,64,156,0
361281,-174,64,152,0
361292,-174,63,149,0
361303,-174,62,143,0
361314,-174,60,140,0
361325,-168,62,143,0
361336,-171,61,142,0
361347,-172,62,144,0
361358,-169,64,152,0
361369,-171,63,157,0
361380,-169,63,163,0
361391,-174,62,163,0
361402,-176,62,168,0
361413,-172,62,182,0
361424,-168,60,177,0
361435,-167,60,162,0
361446,-166,62,156,0
361457,-164,60,156,0
361468,-158,61,157,0
361479,-156,61,154,0
361490,-157,62,152,0
361501,-161,62,154,0
361512,-166,61,154,0
361523,-169,62,154,0
361534,-170,63,155,0
361545,-175,63,159,0
361556,-170,64,159,0
361567,-171,66,157,0
361578,-175,67,153,0
361589,-173,64,154,0
361600,-168,61,158,0
361611,-172,63,162,0
361622,-175,62,172,0
361633,-170,62,164,0
361644,-180,63,150,0
361655,-183,63,148,0
361666,-188,67,156,0
361677,-191,67,161,0
361688,-190,72,153,0
361699,-191,77,149,0
361710,-191,71,161,0
361722,-188,64,165,0
361733,-165,64,156,0
361744,-153,63,157,0
361755,-143,61,156,0
361766,-138,62,159,0
361777,-139,58,159,0
361788,-149,58,161,0
361799,-172,61,162,0
361810,-179,62,168,0
361821,-182,64,173,0
361832,-181,61,171,0
361843,-181,56,165,0
361854,-178,51,154,0
361865,-170,48,146,0
361876,-160,46,142,0
361887,-156,46,139,0
361898,-153,44,145,0
361909,-155,46,148,0
361920,-158,51,156,0
361931,-160,54,160,0
361942,-166,52,167,0
361953,-169,52,167,0
361964,-168,53,163,0
361975,-168,47,157,0
361986,-164,44,152,0
361998,-165,43,150,0
362009,-167,41,146,0
362020,-171,42,147,0
362031,-171,43,149,0
362042,-173,44,150,0
362053,-178,46,151,0
362064,-180,50,150,0
362075,-188,51,152,0
362086,-185,49,152,0
362097,-186,48,149,0
362108,-181,47,147,0
362119,-181,48,146,0
362130,-176,46,142,0
362141,-173,44,142,0
362152,-173,41,145,0
362163,-171,42,151,0
362174,-165,44,157,0
362185,-158,47,160,0
362196,-159,49,160,0
362207,-166,57,155,0
362218,-170,57,145,0
362229,-174,54,132,0
362240,-183,56,128,0
362251,-184,61,137,0
362262,-183,66,153,0
362273,-181,67,160,0
362284,-177,69,164,0
362295,-168,67,164,0
362306,-165,64,162,0
362317,-157,57,159,0
362329,-151,55,157,0
362339,-149,51,154,0
362350,-154,54,158,0
362361,-163,60,168,0
362372,-173,64,169,0
362383,-182,66,164,0
362394,-183,68,159,0
362405,-181,69,156,0
362416,-178,69,155,0
362427,-171,69,152,0
362438,-161,68,151,0
362449,-164,71,152,0
362460,-165,73,153,0
362471,-168,75,150,0
362482,-174,78,152,0
362493,-177,81,156,0
362504,-179,86,162,0
362515,-180,81,161,0
362526,-181,77,156,0
362537,-179,76,160,0
362548,-178,75,158,0
362559,-175,74,158,0
362570,-174,73,160,0
362581,-173,71,162,0
362592,-168,68,158,0
362603,-163,65,150,0
362614,-159,66,146,0
362625,-161,64,147,0
362636,-164,66,147,0
362647,-166,66,149,0
362658,-167,71,146,0
362669,-167,75,152,0
362680,-167,75,157,0
362691,-174,73,163,0
362702,-173,70,156,0
362714,-166,69,152,0
362725,-154,68,152,0
362736,-152,70,153,0
362747,-147,68,148,0
362758,-148,68,144,0
362769,-153,71,141,0
362780,-167,79,147,0
362791,-177,81,158,0
362802,-170,85,170,0
362813,-174,86,177,0
362824,-175,84,180,0
362835,-171,79,172,0
362846,-160,69,161,0
362857,-162,67,158,0
362868,-165,67,158,0
362879,-171,64,161,0
362890,-173,61,158,0
362901,-172,59,160,0
362912,-169,59,161,0
362923,-166,59,165,0
362934,-165,59,164,0
362945,-162,57,164,0
362956,-160,55,161,0
362967,-158,55,157,0
362978,-158,54,153,0
362989,-158,52,149,0
363000,-160,50,149,0
363011,-161,52,150,0
363022,-165,53,152,0
363033,-168,54,151,0
363044,-168,59,155,0
363055,-168,58,158,0
363066,-169,53,157,0
363077,-170,51,154,0
363088,-169,52,151,0
363099,-168,51,151,0
363110,-172,53,155,0
363121,-175,54,156,0
363132,-175,55,156,0
363143,-175,56,155,0
363154,-177,55,155,0
363165,-173,50,150,0
363176,-173,48,150,0
363187,-174,50,152,0
363198,-175,45,148,0
363209,-176,47,144,0
363220,-177,49,149,0
363231,-177,49,151,0
363242,-182,50,153,0
363253,-177,51,154,0
363264,-181,51,153,0
363275,-174,52,153,0
363286,-173,52,150,0
363297,-177,50,145,0
363308,-177,51,140,0
363319,-179,55,147,0
363330,-178,52,151,0
363341,-170,48,148,0
363352,-171,48,145,0
363363,-172,47,145,0
363374,-171,49,146,0
363385,-168,48,146,0
363396,-174,47,144,0
363407,-173,46,142,0
363418,-173,47,138,0
363429,-170,58,131,0
363440,-172,72,136,0
363451,-173,88,144,0
363462,-174,92,156,0
363473,-180,77,167,0
363484,-176,64,168,0
363495,-166,43,155,0
363506,-166,37,153,0
363517,-163,28,154,0
363528,-162,23,151,0
363539,-165,22,148,0
363550,-166,29,149,0
363561,-171,32,152,0
363572,-177,38,155,0
363583,-184,46,149,0
363594,-190,50,144,0
363605,-190,54,139,0
363616,-186,60,142,0
363627,-188,61,144,0
363638,-188,60,152,0
363649,-179,62,161,0
363660,-161,66,179,0
363671,-157,68,179,0
363683,-155,72,170,0
363694,-158,75,162,0
363705,-162,79,158,0
363716,-162,78,164,0
363727,-166,82,165,0
363738,-168,82,149,0
363749,-169,79,148,0
363760,-167,78,151,0
363771,-167,76,155,0
363782,-165,78,156,0
363793,-163,80,163,0
363804,-175,75,150,0
363815,-178,75,146,0
363826,-176,79,146,0
363837,-179,83,149,0
363849,-178,83,154,0
363860,-179,85,160,0
363871,-178,83,161,0
363882,-174,82,158,0
363893,-178,78,159,0
363904,-177,71,155,0
363915,-175,66,156,0
363926,-169,64,156,0
363937,-167,63,154,0
363948,-171,64,152,0
363959,-176,66,151,0
363970,-178,76,150,0
363981,-183,83,147,0
363992,-179,81,152,0
364003,-180,84,154,0
364014,-184,80,161,0
364025,-180,72,160,0
364036,-179,70,155,0
364047,-178,64,152,0
364058,-170,60,148,0
364069,-158,52,138,0
364080,-150,48,132,0
364091,-153,49,134,0
364102,-161,48,137,0
364113,-167,51,144,0
364124,-177,62,156,0
364135,-186,67,160,0
364146,-187,68,159,0
364157,-179,69,158,0
364168,-172,68,150,0
364179,-167,65,140,0
364190,-164,64,135,0
364201,-167,64,141,0
364212,-171,64,146,0
364223,-175,63,153,0
364234,-173,64,165,0
364245,-171,65,172,0
364256,-173,66,167,0
364267,-168,67,164,0
364278,-148,61,149,0
364289,-147,57,141,0
364300,-152,56,136,0
364311,-161,55,130,0
364322,-164,51,130,0
364333,-166,52,139,0
364344,-169,52,151,0
364355,-171,53,160,0
364366,-169,54,166,0
364377,-166,52,165,0
364388,-163,48,159,0
364399,-165,47,154,0
364410,-168,47,154,0
364421,-168,43,149,0
364432,-169,38,149,0
364443,-167,34,151,0
364454,-171,38,158,0
364465,-174,40,162,0
364476,-177,44,165,0
364487,-179,46,165,0
364498,-181,52,164,0
364509,-182,55,162,0
364520,-184,50,167,0
364531,-180,42,169,0
364542,-169,33,166,0
364553,-158,28,159,0
364564,-151,21,154,0
364575,-150,17,146,0
364586,-154,15,141,0
364597,-152,17,142,0
364608,-142,28,169,0
364619,-140,31,184,0
364630,-138,38,195,0
364641,-136,45,206,0
364652,-137,51,210,0
364663,-141,54,211,0
364674,-139,55,200,0
364685,-139,52,192,0
364696,-138,45,182,0
364707,-136,34,170,0
364718,-142,39,165,0
364729,-149,48,167,0
364740,-155,51,169,0
364751,-166,56,169,0
364762,-177,61,169,0
364773,-179,61,167,0
364784,-177,58,169,0
364795,-179,58,170,0
364806,-177,58,173,0
364817,-173,52,174,0
364828,-169,48,171,0
364839,-167,52,169,0
364850,-183,52,154,0
364861,-188,52,157,0
364872,-193,50,164,0
364883,-199,49,168,0
364894,-205,52,175,0
364905,-198,50,171,0
364916,-188,49,165,0
364927,-180,43,154,0
364938,-188,44,134,0
364949,-182,47,127,0
364960,-183,51,124,0
364971,-187,52,126,0
364982,-188,57,135,0
364993,-193,57,142,0
365004,-189,56,149,0
365015,-192,55,155,0
365026,-188,57,159,0
365037,-198,58,156,0
365048,-193,61,149,0
365059,-193,63,145,0
365070,-203,65,140,0
365081,-197,71,135,0
365092,-196,72,140,0
365103,-171,71,155,0
365114,-171,71,153,0
365125,-170,72,150,0
365136,-168,68,150,0
365147,-167,65,144,0
365158,-171,63,135,0
365169,-177,64,137,0
365180,-177,66,139,0
365191,-178,66,140,0
365202,-177,66,146,0
365213,-168,69,156,0
365224,-167,68,152,0
365235,-157,67,155,0
365246,-158,68,153,0
365257,-158,64,148,0
365268,-162,62,148,0
365279,-168,60,139,0
365290,-178,59,135,0
365301,-179,59,139,0
365312,-186,60,140,0
365323,-187,63,140,0
365334,-194,64,147,0
365345,-193,60,145,0
365356,-187,57,144,0
365367,-185,58,143,0
365378,-182,56,142,0
365389,-177,57,141,0
365400,-179,56,143,0
365411,-178,57,141,0
365422,-181,55,144,0
365433,-181,53,144,0
365444,-179,52,144,0
365455,-179,55,145,0
365466,-180,51,144,0
365477,-177,52,145,0
365488,-178,56,143,0
365499,-180,55,143,0
365510,-185,58,150,0
365521,-187,61,156,0
365532,-191,63,160,0
365543,-184,64,158,0
365554,-183,64,154,0
365565,-186,63,147,0
365576,-188,61,141,0
365587,-192,64,134,0
365598,-199,66,140,0
365609,-195,69,147,0
365620,-191,69,155,0
365631,-192,61,151,0
365642,-187,59,149,0
365653,-180,60,146,0
365664,-180,57,143,0
365675,-187,56,140,0
365686,-187,56,140,0
365697,-187,58,142,0
365708,-188,57,144,0
365719,-182,58,149,0
365730,-177,58,152,0
365741,-169,54,151,0
365752,-161,46,149,0
365763,-158,47,149,0
365774,-161,46,150,0
365785,-162,47,153,0
365796,-168,46,148,0
365807,-172,52,147,0
365818,-170,50,152,0
365829,-167,50,158,0
365840,-163,50,159,0
365851,-165,49,156,0
365862,-167,52,159,0
365873,-166,54,159,0
365884,-171,56,153,0
365895,-178,54,150,0
365906,-176,54,152,0
365917,-178,58,147,0
365928,-180,59,144,0
365939,-184,58,144,0
365950,-174,59,146,0
365961,-176,58,149,0
365972,-175,53,161,0
365983,-166,49,163,0
365994,-161,43,160,0
366005,-157,46,161,0
366016,-158,46,161,0
366027,-157,45,161,0
366038,-156,46,157,0
366049,-158,47,154,0
366060,-159,51,154,0
366071,-161,48,153,0
366082,-168,47,167,0
366093,-161,50,169,0
366104,-167,51,163,0
366115,-168,49,159,0
366126,-167,42,160,0
366137,-158,29,163,0
366148,-161,27,152,0
366159,-170,51,153,0
366170,-159,64,190,0
366181,-129,65,208,0
366192,-124,61,194,0
366203,-139,54,171,0
366214,-154,53,155,0
366225,-154,52,148,0
366236,-161,58,148,0
366247,-178,64,153,0
366258,-179,68,162,0
366269,-179,72,172,0
366280,-178,72,179,0
366291,-168,70,181,0
366302,-162,68,180,0
366313,-154,69,180,0
366325,-152,71,179,0
366336,-152,68,182,0
366347,-155,64,176,0
366358,-154,63,169,0
366369,-151,63,161,0
366380,-151,65,162,0
366391,-153,67,163,0
366402,-152,69,168,0
366413,-150,69,169,0
366424,-146,74,175,0
366435,-139,76,181,0
366446,-138,73,185,0
366457,-136,71,183,0
366468,-134,68,183,0
366479,-132,66,179,0
366490,-135,67,177,0
366501,-137,68,176,0
366512,-140,68,176,0
366523,-139,71,177,0
366534,-138,70,179,0
366545,-138,73,179,0
366556,-139,73,180,0
366567,-146,71,178,0
366578,-149,68,175,0
366589,-149,69,174,0
366600,-150,67,172,0
366611,-149,66,171,0
366622,-150,67,171,0
366633,-151,70,173,0
366644,-152,72,174,0
366655,-152,75,177,0
366666,-150,73,179,0
366677,-149,74,179,0
366688,-145,74,178,0
366699,-144,72,178,0
366710,-144,72,176,0
366721,-146,72,171,0
366732,-145,68,166,0
366743,-147,69,164,0
366754,-150,69,169,0
366765,-151,67,178,0
366776,-149,69,170,0
366787,-154,67,173,0
366798,-151,66,175,0
366809,-153,68,167,0
366820,-153,69,162,0
366831,-154,67,162,0
366842,-154,67,167,0
366853,-156,64,164,0
366864,-152,62,160,0
366875,-151,61,157,0
366886,-152,63,159,0
366897,-164,64,163,0
366908,-168,65,167,0
366919,-165,64,169,0
366930,-160,63,166,0
366941,-158,62,162,0
366952,-162,58,159,0
366963,-160,59,163,0
366974,-166,56,160,0
366985,-174,54,164,0
366996,-168,54,171,0
367007,-167,50,170,0
367018,-166,50,168,0
367029,-155,47,169,0
367040,-152,47,161,0
367051,-156,45,154,0
367062,-167,50,157,0
367073,-167,56,156,0
367084,-181,56,155,0
367095,-170,62,160,0
367106,-174,62,157,0
367117,-173,64,156,0
367128,-180,65,159,0
367139,-172,70,162,0
367150,-173,64,158,0
367161,-168,63,162,0
367172,-168,56,165,0
367183,-157,57,162,0
367194,-172,49,154,0
367205,-169,50,153,0
367216,-178,50,149,0
367227,-192,49,155,0
367238,-191,44,155,0
367249,-184,42,155,0
367260,-177,42,151,0
367271,-173,45,147,0
367282,-184,43,145,0
367293,-177,44,145,0
367304,-182,46,142,0
367315,-193,45,135,0
367326,-190,50,142,0
367337,-192,48,144,0
367348,-191,51,148,0
367359,-190,51,148,0
367370,-186,53,148,0
367381,-183,53,152,0
367392,-176,49,153,0
367403,-179,48,155,0
367414,-182,48,164,0
367425,-168,55,170,0
367436,-170,46,176,0
367447,-169,57,157,0
367458,-164,54,149,0
367469,-155,58,154,0
367480,-159,56,158,0
367491,-154,48,161,0
367502,-147,45,158,0
367513,-153,43,151,0
367524,-156,48,151,0
367535,-163,43,154,0
367546,-173,47,147,0
367557,-183,47,150,0
367568,-186,55,161,0
367579,-184,55,162,0
367590,-192,57,157,0
367601,-193,54,142,0
367612,-192,52,134,0
367623,-193,55,131,0
367634,-196,58,135,0
367645,-195,63,137,0
367656,-195,64,153,0
367667,-193,68,151,0
367678,-193,66,147,0
367689,-191,62,152,0
367700,-189,53,152,0
367711,-185,44,149,0
367722,-185,39,158,0
367733,-183,36,164,0
367744,-182,35,162,0
367755,-180,35,159,0
367766,-179,34,156,0
367777,-178,34,149,0
367788,-175,33,145,0
367799,-172,33,140,0
367810,-171,32,138,0
367821,-168,30,138,0
367832,-150,41,144,0
367843,-155,47,163,0
367854,-142,47,171,0
367865,-141,43,162,0
367876,-167,24,134,0
367887,-173,24,146,0
367898,-174,24,192,0
367909,-158,29,180,0
367920,-155,23,193,0
367931,-153,36,190,0
367942,-164,22,182,0
367953,-169,21,166,0
367964,-166,28,158,0
367975,-166,38,154,0
367986,-167,47,154,0
367997,-166,60,162,0
368008,-169,66,167,0
368019,-173,68,172,0
368030,-178,65,177,0
368041,-173,48,163,0
368052,-172,40,151,0
368063,-170,37,151,0
368074,-167,41,151,0
368085,-164,47,158,0
368096,-163,52,169,0
368107,-165,55,177,0
368118,-167,58,177,0
368129,-167,54,175,0
368140,-162,48,174,0
368151,-160,46,172,0
368162,-157,39,166,0
368173,-156,37,161,0
368184,-158,36,157,0
368195,-160,38,156,0
368206,-165,45,157,0
368217,-165,46,159,0
368228,-164,44,160,0
368239,-163,45,159,0
368250,-161,45,159,0
368261,-159,42,161,0
368272,-157,40,165,0
368283,-157,39,170,0
368294,-156,39,172,0
368305,-154,39,176,0
368316,-154,36,174,0
368327,-157,34,172,0
368338,-155,32,170,0
368349,-153,31,170,0
368360,-152,32,169,0
368371,-158,36,168,0
368382,-163,39,163,0
368393,-168,39,159,0
368404,-168,41,156,0
368415,-170,42,152,0
368426,-174,43,154,0
368437,-175,44,156,0
368448,-177,43,163,0
368459,-177,45,168,0
368470,-174,45,173,0
368481,-175,45,175,0
368492,-169,43,176,0
368503,-169,40,176,0
368514,-164,38,172,0
368525,-162,37,169,0
368536,-157,33,163,0
368547,-160,34,159,0
368558,-155,35,156,0
368569,-157,35,157,0
368580,-157,38,158,0
368591,-158,41,162,0
368602,-165,44,166,0
368613,-165,47,169,0
368624,-160,51,169,0
368635,-156,54,166,0
368646,-159,56,163,0
368657,-161,60,163,0
368668,-167,61,163,0
368679,-170,63,166,0
368690,-172,61,156,0
368701,-168,60,157,0
368712,-169,58,151,0
368723,-172,61,153,0
368734,-175,62,156,0
368745,-173,62,155,0
368757,-172,65,156,0
368768,-179,66,154,0
368779,-183,68,151,0
368790,-188,71,154,0
368801,-195,70,149,0
368812,-197,72,151,0
368823,-194,72,146,0
368834,-190,71,148,0
368845,-183,65,144,0
368856,-181,64,142,0
368867,-179,64,143,0
368878,-174,63,144,0
368889,-181,64,146,0
368900,-185,69,144,0
368911,-187,70,150,0
368922,-189,66,162,0
368933,-178,65,149,0
368944,-178,61,144,0
368955,-181,56,161,0
368966,-170,59,141,0
368977,-175,57,138,0
368988,-174,50,157,0
368999,-168,51,161,0
369010,-174,49,144,0
369021,-178,45,153,0
369032,-183,45,149,0
369043,-185,44,139,0
369054,-190,48,141,0
369065,-190,52,145,0
369076,-190,54,150,0
369087,-188,55,158,0
369098,-187,54,163,0
369109,-188,51,168,0
369120,-186,46,152,0
369131,-184,45,135,0
369142,-184,41,128,0
369153,-190,38,130,0
369164,-192,32,151,0
369175,-155,16,191,0
369186,-137,20,195,0
369197,-142,17,185,0
369208,-148,18,178,0
369219,-140,17,169,0
369230,-134,20,158,0
369241,-134,23,143,0
369252,-137,28,129,0
369263,-143,31,127,0
369274,-146,32,129,0
369285,-149,29,136,0
369296,-152,24,149,0
369307,-152,25,168,0
369318,-148,21,178,0
369329,-142,19,183,0
369340,-157,41,163,0
369351,-165,59,175,0
369362,-164,62,185,0
369373,-163,62,186,0
369384,-167,57,176,0
369395,-169,55,167,0
369406,-174,52,159,0
369417,-183,56,155,0
369428,-190,62,156,0
369439,-187,67,167,0
369450,-177,69,181,0
369461,-169,69,189,0
369472,-165,66,186,0
369483,-161,65,179,0
369494,-160,64,175,0
369505,-171,58,176,0
369516,-171,55,178,0
369527,-169,53,176,0
369538,-171,55,178,0
369549,-171,54,182,0
369560,-166,58,184,0
369571,-158,59,179,0
369582,-152,59,176,0
369593,-147,58,175,0
369604,-140,58,170,0
369615,-135,59,169,0
369626,-136,58,168,0
369637,-133,57,164,0
369648,-130,52,161,0
369659,-135,48,165,0
369670,-135,48,164,0
369681,-139,48,166,0
369692,-144,51,175,0
369703,-148,51,182,0
369714,-145,51,182,0
369725,-141,53,181,0
369736,-147,54,180,0
369747,-146,55,179,0
369758,-147,57,177,0
369769,-150,57,175,0
369780,-148,57,172,0
369792,-152,59,171,0
369803,-151,58,168,0
369814,-155,60,166,0
369825,-151,62,167,0
369836,-158,62,170,0
369847,-157,61,172,0
369858,-163,60,171,0
369869,-158,62,173,0
369880,-164,62,174,0
369891,-161,62,172,0
369902,-162,62,171,0
369913,-164,59,172,0
369924,-163,57,167,0
369935,-166,57,168,0
369946,-163,58,164,0
369957,-166,58,165,0
369968,-163,55,161,0
369979,-165,51,164,0
369990,-160,53,163,0
370001,-155,54,161,0
370012,-152,56,156,0
370023,-175,61,151,0
370034,-177,54,154,0
370045,-173,58,151,0
370056,-173,57,142,0
370067,-177,57,151,0
370078,-185,57,160,0
370089,-179,57,165,0
370100,-182,55,161,0
370111,-171,54,156,0
370122,-168,56,149,0
370133,-172,53,143,0
370144,-183,61,159,0
370155,-189,61,153,0
370166,-190,61,157,0
370177,-190,59,153,0
370188,-192,61,147,0
370199,-189,59,143,0
370210,-189,59,144,0
370221,-185,55,142,0
370232,-184,52,146,0
370243,-181,51,148,0
370254,-174,53,157,0
370265,-176,50,153,0
370276,-174,55,168,0
370287,-172,53,177,0
370298,-165,54,173,0
370309,-176,56,136,0
370320,-174,57,141,0
370331,-168,59,138,0
370342,-173,62,140,0
370353,-173,62,142,0
370364,-171,62,143,0
370375,-172,59,141,0
370386,-172,56,134,0
370397,-178,57,132,0
370408,-174,54,134,0
370419,-183,58,134,0
370430,-185,58,138,0
370441,-184,59,142,0
370452,-184,60,151,0
370463,-179,55,148,0
370474,-178,48,143,0
370485,-171,45,151,0
370496,-166,46,157,0
370507,-167,47,170,0
370518,-154,44,181,0
370529,-150,47,182,0
370540,-154,46,180,0
370551,-155,47,179,0
370562,-154,45,172,0
370573,-154,46,168,0
370584,-159,49,164,0
370595,-163,53,159,0
370606,-168,53,153,0
370617,-175,59,154,0
370628,-172,64,161,0
370639,-167,62,160,0
370650,-166,60,153,0
370661,-161,60,155,0
370672,-163,59,155,0
370683,-166,60,153,0
370694,-165,63,158,0
370705,-168,64,161,0
370716,-174,67,161,0
370727,-184,70,161,0
370738,-185,74,160,0
370749,-177,76,160,0
370760,-188,77,157,0
370771,-191,76,159,0
370782,-181,79,166,0
370793,-176,73,162,0
370804,-171,70,162,0
370815,-167,67,155,0
370826,-163,67,154,0
370837,-161,62,147,0
370848,-163,61,148,0
370859,-159,60,147,0
370870,-162,61,148,0
370881,-168,61,150,0
370892,-172,60,153,0
370903,-165,55,156,0
370914,-165,51,155,0
370925,-170,47,148,0
370936,-166,48,151,0
370947,-162,46,150,0
370958,-171,46,145,0
370969,-176,49,148,0
370980,-174,54,150,0
370991,-184,53,151,0
371002,-177,54,152,0
371013,-172,55,150,0
371024,-167,57,150,0
371035,-173,54,153,0
371046,-168,61,156,0
371057,-158,58,163,0
371068,-161,60,166,0
371079,-171,60,167,0
371090,-182,64,163,0
371101,-179,76,159,0
371112,-180,75,155,0
371123,-177,71,150,0
371134,-170,75,154,0
371145,-176,73,152,0
371156,-172,80,159,0
371167,-171,74,158,0
371178,-168,76,160,0
371190,-171,73,164,0
371201,-164,63,167,0
371212,-155,57,168,0
371223,-154,52,166,0
371234,-150,48,165,0
371245,-147,49,165,0
371256,-157,49,157,0
371267,-153,55,159,0
371278,-161,58,155,0
371289,-164,62,162,0
371300,-169,59,164,0
371311,-168,54,155,0
371322,-155,57,162,0
371333,-163,54,160,0
371344,-167,53,159,0
371355,-166,58,162,0
371366,-164,56,160,0
371377,-170,57,160,0
371388,-170,60,156,0
371399,-167,62,157,0
371410,-171,63,155,0
371421,-169,62,153,0
371432,-167,70,151,0
371443,-176,72,146,0
371454,-178,75,147,0
371465,-179,76,148,0
371476,-190,77,151,0
371487,-183,72,152,0
371498,-176,75,154,0
371509,-174,75,161,0
371520,-179,72,165,0
371531,-176,72,167,0
371542,-179,69,163,0
371553,-176,68,166,0
371564,-169,66,160,0
371575,-165,68,158,0
371586,-163,66,152,0
371597,-149,63,148,0
371608,-149,57,143,0
371619,-147,56,141,0
371630,-146,55,140,0
371641,-152,55,141,0
371652,-157,55,143,0
371663,-168,55,142,0
371674,-170,56,145,0
371685,-180,59,148,0
371696,-183,62,149,0
371707,-189,64,151,0
371718,-192,63,153,0
371729,-187,64,155,0
371740,-185,63,159,0
371751,-180,62,161,0
371762,-178,60,159,0
371773,-178,60,163,0
371784,-165,59,162,0
371795,-154,61,163,0
371806,-152,59,162,0
371817,-139,63,157,0
371828,-147,61,152,0
371839,-157,60,152,0
371850,-160,61,161,0
371861,-171,56,164,0
371872,-178,57,169,0
371883,-183,54,172,0
371894,-182,50,165,0
371905,-177,50,158,0
371916,-177,49,151,0
371927,-166,53,149,0
371938,-170,57,157,0
371949,-158,61,160,0
371960,-174,63,163,0
371971,-180,65,157,0
371982,-179,65,155,0
371993,-181,67,164,0
372004,-176,70,165,0
372015,-184,69,161,0
372026,-192,68,164,0
372037,-192,68,166,0
372048,-183,65,170,0
372059,-181,60,165,0
372070,-175,58,158,0
372081,-172,58,143,0
372092,-166,53,137,0
372103,-164,49,139,0
372114,-167,47,145,0
372125,-160,43,146,0
372136,-158,41,148,0
372147,-162,38,146,0
372158,-168,38,148,0
372169,-172,39,153,0
372180,-174,38,153,0
372191,-175,36,153,0
372202,-177,32,147,0
372213,-179,31,145,0
372224,-181,32,140,0
372235,-185,33,140,0
372246,-184,32,141,0
372257,-178,27,147,0
372268,-179,29,152,0
372279,-181,31,156,0
372290,-182,31,160,0
372301,-175,30,160,0
372312,-162,25,161,0
372323,-158,26,161,0
372335,-169,29,156,0
372346,-181,31,148,0
372357,-185,36,140,0
372368,-189,40,135,0
372379,-190,45,135,0
372390,-191,48,139,0
372401,-182,54,150,0
372412,-179,57,154,0
372423,-181,56,151,0
372434,-180,51,151,0
372445,-178,47,154,0
372456,-176,45,154,0
372467,-175,44,158,0
372478,-173,45,163,0
372489,-172,47,165,0
372500,-176,50,160,0
372511,-180,53,156,0
372522,-181,56,151,0
372533,-184,60,150,0
372545,-190,66,155,0
372556,-187,67,153,0
372567,-184,67,156,0
372578,-178,69,158,0
372589,-172,67,158,0
372600,-168,67,158,0
372611,-162,66,156,0
372622,-162,62,164,0
372633,-162,57,158,0
372644,-166,60,152,0
372655,-170,59,155,0
372666,-171,59,155,0
372677,-174,62,153,0
372688,-182,63,156,0
372699,-183,71,158,0
372710,-181,70,171,0
372721,-174,65,174,0
372732,-166,55,170,0
372743,-166,51,161,0
372754,-172,48,154,0
372765,-177,45,149,0
372776,-180,46,146,0
372787,-178,47,144,0
372798,-177,46,149,0
372809,-177,41,148,0
372820,-177,36,147,0
372831,-178,37,148,0
372842,-177,38,153,0
372853,-174,35,153,0
372864,-172,33,155,0
372875,-168,34,151,0
372886,-169,36,150,0
372897,-170,34,149,0
372908,-175,30,146,0
372919,-180,32,142,0
372930,-184,36,144,0
372941,-188,38,149,0
372952,-189,36,150,0
372963,-191,34,149,0
372974,-189,31,146,0
372985,-182,27,142,0
372996,-178,26,140,0
373007,-173,22,137,0
373018,-174,26,134,0
373029,-179,29,141,0
373040,-191,40,141,0
373051,-195,45,142,0
373062,-196,44,136,0
373073,-190,38,129,0
373084,-191,33,126,0
373095,-196,34,131,0
373106,-194,33,140,0
373117,-193,31,142,0
373128,-200,29,143,0
373139,-206,36,145,0
373150,-208,39,152,0
373161,-199,37,152,0
373172,-182,37,149,0
373183,-177,36,141,0
373194,-174,34,142,0
373205,-175,30,132,0
373216,-182,33,138,0
373227,-192,38,148,0
373238,-193,44,155,0
373249,-193,50,164,0
373260,-187,55,171,0
373271,-176,55,175,0
373282,-159,53,173,0
373293,-156,46,158,0
373304,-154,42,145,0
373315,-160,45,143,0
373326,-159,47,143,0
373337,-165,50,142,0
373348,-171,54,144,0
373359,-173,57,140,0
373370,-189,60,144,0
373381,-189,62,150,0
373392,-189,59,152,0
373403,-191,57,155,0
373414,-193,60,147,0
373425,-205,63,142,0
373436,-201,68,144,0
373447,-199,72,149,0
373458,-191,72,147,0
373469,-184,68,145,0
373480,-185,59,139,0
373491,-188,52,135,0
373502,-195,46,142,0
373513,-196,40,155,0
373524,-188,38,163,0
373535,-172,40,177,0
373546,-157,44,176,0
373557,-152,55,166,0
373568,-156,57,151,0
373579,-161,62,134,0
373590,-167,70,125,0
373601,-178,79,122,0
373612,-189,78,126,0
373623,-190,76,148,0
373634,-180,78,160,0
373645,-165,78,172,0
373656,-156,72,176,0
373667,-156,57,167,0
373678,-159,50,152,0
373689,-170,54,147,0
373700,-191,52,160,0
373711,-196,46,158,0
373722,-195,44,156,0
373733,-184,39,155,0
373744,-174,39,148,0
373755,-156,36,142,0
373766,-140,37,134,0
373777,-138,36,129,0
373788,-147,37,128,0
373799,-165,43,131,0
373810,-175,47,140,0
373821,-185,51,150,0
373832,-189,49,155,0
373843,-188,58,162,0
373854,-181,59,168,0
373865,-181,61,152,0
373876,-189,64,143,0
373887,-195,64,139,0
373898,-203,63,139,0
373909,-198,62,141,0
373920,-194,62,146,0
373931,-186,62,149,0
373942,-179,61,154,0
373953,-172,61,153,0
373964,-171,55,145,0
373975,-170,53,145,0
373986,-177,48,144,0
373997,-176,47,143,0
374008,-176,48,142,0
374019,-187,46,147,0
374030,-186,48,146,0
374041,-180,44,146,0
374052,-170,38,152,0
374063,-165,33,149,0
374074,-159,38,148,0
374085,-172,42,159,0
374096,-178,47,160,0
374107,-178,48,154,0
374118,-186,51,146,0
374129,-188,46,141,0
374140,-182,45,145,0
374151,-169,53,172,0
374162,-181,57,182,0
374173,-184,58,175,0
374184,-150,53,164,0
374195,-148,49,174,0
374206,-144,49,156,0
374217,-149,55,162,0
374228,-144,62,171,0
374239,-141,65,170,0
374250,-146,66,165,0
374261,-151,68,162,0
374272,-154,72,154,0
374283,-160,74,148,0
374294,-175,77,153,0
374305,-179,72,152,0
374316,-181,69,151,0
374327,-192,70,159,0
374339,-178,58,148,0
374350,-182,64,149,0
374361,-180,64,154,0
374372,-174,64,147,0
374383,-173,62,140,0
374394,-189,61,148,0
374405,-191,58,144,0
374416,-194,60,146,0
374427,-197,62,146,0
374438,-196,66,149,0
374449,-197,65,151,0
374460,-193,64,148,0
374471,-192,60,147,0
374482,-186,61,143,0
374493,-183,65,150,0
374504,-183,61,151,0
374515,-181,59,152,0
374526,-188,66,164,0
374537,-198,65,165,0
374548,-209,64,171,0
374559,-211,59,185,0
374570,-199,48,169,0
374581,-182,54,144,0
374592,-159,56,169,0
374603,-129,62,155,0
374614,-113,64,138,0
374625,-106,71,133,0
374636,-110,78,142,0
374647,-126,77,139,0
374658,-155,80,143,0
374669,-178,70,145,0
374680,-178,67,144,0
374691,-169,68,146,0
374702,-166,65,150,0
374713,-164,61,149,0
374724,-164,56,149,0
374735,-165,53,153,0
374746,-170,49,153,0
374757,-176,47,156,0
374768,-179,48,159,0
374779,-183,50,162,0
374790,-177,49,159,0
374801,-176,49,157,0
374812,-172,49,158,0
374823,-171,47,154,0
374834,-178,50,152,0
374845,-180,50,147,0
374856,-181,51,145,0
374867,-178,52,144,0
374878,-185,56,149,0
374889,-191,57,149,0
374900,-188,55,148,0
374911,-191,53,150,0
374922,-190,52,155,0
374933,-192,51,155,0
374944,-176,47,149,0
374955,-182,48,139,0
374966,-180,51,135,0
374977,-174,52,139,0
374988,-177,48,136,0
374999,-179,49,133,0
375010,-183,50,135,0
375021,-182,52,138,0
375032,-182,54,139,0
375043,-185,54,141,0
375054,-183,52,141,0
375065,-176,49,139,0
375076,-179,47,139,0
375087,-177,40,141,0
375098,-173,37,142,0
375109,-168,33,143,0
375120,-164,35,147,0
375131,-167,40,152,0
375142,-172,50,159,0
375153,-170,51,150,0
375164,-177,52,139,0
375175,-179,51,137,0
375186,-182,50,145,0
375197,-181,51,158,0
375208,-174,52,174,0
375219,-169,56,187,0
375230,-170,55,172,0
375241,-171,57,172,0
375252,-169,59,165,0
375263,-165,56,156,0
375274,-159,53,151,0
375285,-159,50,148,0
375296,-158,51,150,0
375307,-162,57,150,0
375318,-171,63,155,0
375329,-179,67,158,0
375340,-181,72,161,0
375351,-185,73,161,0
375362,-181,71,156,0
375373,-177,69,156,0
375384,-177,70,155,0
375395,-179,71,153,0
375406,-180,70,147,0
375417,-184,66,147,0
375428,-179,67,149,0
375439,-181,74,155,0
375450,-183,77,161,0
375461,-181,76,161,0
375472,-182,77,164,0
375483,-180,70,146,0
375494,-177,72,139,0
375505,-175,72,143,0
375516,-166,75,151,0
375527,-159,81,161,0
375538,-156,83,162,0
375549,-159,86,159,0
375560,-161,89,153,0
375571,-155,87,151,0
375582,-153,92,147,0
375593,-156,95,151,0
375604,-153,100,155,0
375615,-146,95,157,0
375626,-143,88,155,0
375637,-138,87,158,0
375648,-139,86,172,0
375659,-142,79,179,0
375670,-141,67,187,0
375681,-134,52,185,0
375692,-130,42,182,0
375703,-128,38,181,0
375714,-132,45,176,0
375725,-141,48,173,0
375736,-150,54,174,0
375747,-156,57,181,0
375758,-157,59,192,0
375769,-149,50,197,0
375780,-143,36,192,0
375791,-134,27,181,0
375803,-129,32,166,0
375813,-128,40,171,0
375824,-128,47,180,0
375835,-135,51,180,0
375846,-151,47,174,0
375857,-165,38,170,0
375868,-172,38,170,0
375879,-174,37,171,0
375890,-174,34,180,0
375901,-174,29,187,0
375912,-172,25,197,0
375923,-169,32,197,0
375934,-165,36,198,0
375945,-167,38,202,0
375956,-167,39,200,0
375967,-163,31,194,0
375978,-159,6,174,0
375989,-162,7,157,0
376000,-158,22,151,0
376011,-148,32,162,0
376022,-143,39,175,0
376033,-143,39,187,0
376044,-142,38,196,0
376055,-139,43,200,0
376066,-139,41,191,0
376077,-141,37,180,0
376088,-146,39,174,0
376099,-149,41,175,0
376110,-149,48,171,0
376121,-149,54,165,0
376132,-146,55,170,0
376143,-137,48,185,0
376154,-138,48,180,0
376165,-141,46,177,0
376176,-140,46,177,0
376187,-133,49,182,0
376198,-124,48,187,0
376209,-116,42,190,0
376220,-105,32,193,0
376231,-98,36,210,0
376242,-101,38,210,0
376253,-107,43,202,0
376264,-108,52,203,0
376275,-106,58,200,0
376286,-107,59,193,0
376297,-106,60,192,0
376308,-98,60,192,0
376319,-93,63,191,0
376330,-89,64,192,0
376341,-84,67,192,0
376352,-84,70,196,0
376363,-83,73,206,0
376374,-82,70,195,0
376385,-83,73,195,0
376396,-85,77,200,0
376407,-88,80,202,0
376418,-88,83,207,0
376429,-89,80,212,0
376440,-86,80,212,0
376451,-86,82,211,0
376462,-83,83,206,0
376473,-88,86,196,0
376484,-96,90,194,0
376495,-104,91,192,0
376506,-109,94,199,0
376517,-109,95,206,0
376528,-111,95,205,0
376539,-106,94,212,0
376550,-104,92,217,0
376561,-98,84,218,0
376572,-100,82,220,0
376583,-102,78,214,0
376594,-103,79,213,0
376605,-109,80,208,0
376616,-112,86,210,0
376627,-118,85,205,0
376638,-113,82,215,0
376649,-115,78,211,0
376660,-101,74,202,0
376671,-101,70,185,0
376682,-98,70,179,0
376693,-102,66,173,0
376704,-105,65,176,0
376715,-103,65,185,0
376726,-108,64,191,0
376737,-103,67,197,0
376748,-113,65,201,0
376759,-101,67,196,0
376770,-104,66,193,0
376781,-108,66,187,0
376792,-103,69,186,0
376803,-108,69,190,0
376814,-108,75,194,0
376825,-113,81,200,0
376836,-120,80,200,0
376847,-125,78,202,0
376858,-130,71,196,0
376869,-122,71,196,0
376880,-132,63,191,0
376891,-116,74,194,0
376902,-121,63,205,0
376913,-127,62,199,0
376924,-120,64,197,0
376935,-124,62,210,0
376946,-116,63,206,0
376957,-112,57,206,0
376968,-122,59,200,0
376979,-124,59,188,0
376990,-122,64,189,0
377001,-122,69,192,0
377012,-131,64,192,0
377023,-127,65,197,0
377034,-121,61,193,0
377045,-117,57,191,0
377056,-104,52,179,0
377067,-101,47,174,0
377078,-98,44,176,0
377089,-91,47,180,0
377100,-94,47,186,0
377111,-92,51,193,0
377122,-104,46,202,0
377133,-108,42,206,0
377144,-111,38,203,0
377155,-103,32,202,0
377166,-95,32,199,0
377177,-98,32,191,0
377188,-100,33,191,0
377199,-97,39,194,0
377210,-105,40,191,0
377221,-116,36,192,0
377232,-110,33,191,0
377243,-113,34,190,0
377254,-114,26,192,0
377265,-116,27,190,0
377276,-113,32,192,0
377287,-113,36,201,0
377298,-115,40,199,0
377309,-118,46,202,0
377320,-123,48,192,0
377331,-136,46,185,0
377342,-133,43,180,0
377353,-132,44,185,0
377364,-131,45,189,0
377375,-132,43,186,0
377386,-127,46,189,0
377397,-130,45,183,0
377408,-137,42,178,0
377419,-135,41,182,0
377430,-137,36,183,0
377441,-137,32,184,0
377452,-137,28,190,0
377463,-137,30,191,0
377474,-140,29,193,0
377485,-130,33,194,0
377496,-135,33,197,0
377507,-140,35,198,0
377518,-136,34,191,0
377529,-141,32,182,0
377541,-141,34,176,0
377552,-146,35,174,0
377563,-150,40,174,0
377574,-155,41,172,0
377585,-157,43,170,0
377596,-151,39,163,0
377607,-153,41,164,0
377618,-156,42,168,0
377629,-159,41,167,0
377640,-161,42,164,0
377651,-165,45,167,0
377662,-163,49,169,0
377673,-168,51,170,0
377684,-171,49,171,0
377695,-174,45,167,0
377706,-173,41,165,0
377717,-176,41,166,0
377728,-176,42,168,0
377739,-173,44,175,0
377750,-169,45,176,0
377761,-164,46,176,0
377772,-160,42,181,0
377783,-154,40,175,0
377794,-156,42,166,0
377805,-160,51,158,0
377816,-170,56,158,0
377827,-171,58,164,0
377838,-175,55,165,0
377849,-179,54,166,0
377860,-184,55,166,0
377871,-182,54,169,0
377882,-175,51,166,0
377893,-172,48,156,0
377904,-163,48,153,0
377915,-159,50,151,0
377926,-158,55,152,0
377937,-164,61,162,0
377948,-168,64,163,0
377959,-170,66,163,0
377970,-176,67,160,0
377981,-179,70,158,0
377992,-177,68,158,0
378003,-176,67,158,0
378014,-174,68,159,0
378025,-171,66,160,0
378036,-166,66,160,0
378047,-167,64,156,0
378058,-164,64,157,0
378069,-164,62,155,0
378080,-164,62,156,0
378092,-169,58,154,0
378103,-169,56,158,0
378114,-170,56,163,0
378125,-170,56,167,0
378136,-170,54,168,0
378147,-169,54,165,0
378158,-167,53,163,0
378169,-166,51,160,0
378180,-166,50,157,0
378191,-165,50,156,0
378202,-167,51,156,0
378213,-169,53,158,0
378224,-169,52,158,0
378235,-168,53,160,0
378246,-168,55,160,0
378257,-167,54,158,0
378268,-171,53,159,0
378279,-165,55,159,0
378290,-164,54,159,0
378301,-165,57,159,0
378312,-164,54,156,0
378323,-166,53,161,0
378334,-162,59,165,0
378345,-168,52,161,0
378356,-165,54,163,0
378367,-164,54,161,0
378378,-164,47,159,0
378389,-168,51,158,0
378400,-169,53,160,0
378411,-170,52,157,0
378422,-171,53,156,0
378433,-171,53,159,0
378444,-170,52,158,0
378455,-172,52,157,0
378466,-172,51,157,0
378477,-172,50,158,0
378488,-171,50,159,0
378499,-170,49,157,0
378510,-169,49,157,0
378521,-170,48,157,0
378532,-172,47,156,0
378543,-174,48,157,0
378554,-175,48,159,0
378565,-175,48,159,0
378576,-174,46,157,0
378587,-173,47,156,0
378598,-174,46,154,0
378609,-173,46,154,0
378620,-172,46,155,0
378631,-172,47,156,0
378642,-174,46,154,0
378653,-177,47,156,0
378664,-178,47,154,0
378675,-177,47,153,0
378686,-176,47,154,0
378698,-174,47,155,0
378709,-172,48,160,0
378720,-179,43,152,0
378731,-168,46,158,0
378742,-170,46,156,0
378753,-173,44,160,0
378764,-181,45,153,0
378775,-172,44,152,0
378786,-177,44,152,0
378797,-180,48,156,0
378808,-178,45,150,0
378819,-176,46,151,0
378830,-175,46,155,0
378841,-176,46,153,0
378852,-175,45,152,0
378863,-174,47,153,0
378874,-175,47,153,0
378885,-176,45,147,0
378896,-176,46,151,0
378907,-177,46,151,0
