timestamp,accX,accY,accZ,step
569426,26,8,230,1
569438,27,8,229,0
569449,26,8,230,0
569460,27,8,231,0
569471,26,8,232,0
569482,27,8,231,0
569492,27,8,230,0
569503,27,9,231,0
569514,26,8,232,0
569525,26,7,231,0
569536,27,8,231,0
569546,26,8,231,0
569557,26,9,232,0
569568,25,10,231,0
569579,25,11,232,0
569589,25,9,233,0
569600,27,8,233,0
569611,27,8,232,0
569622,28,8,229,0
569633,28,8,230,0
569644,30,8,231,0
569655,30,8,232,0
569665,31,7,232,0
569676,29,7,232,0
569686,28,9,230,0
569696,27,7,231,0
569707,28,7,232,0
569718,27,6,230,0
569729,27,7,232,0
569740,27,7,231,0
569751,26,6,229,0
569761,27,5,231,0
569772,29,6,230,0
569783,26,10,231,0
569793,27,13,237,0
569804,28,9,233,0
569815,26,6,230,0
569826,27,8,234,0
569837,27,6,232,0
569847,28,5,231,0
569858,28,5,229,0
569868,29,5,229,0
569879,27,5,228,0
569889,24,8,230,0
569900,24,7,234,0
569911,25,5,232,0
569922,25,4,232,0
569932,26,5,230,0
569943,27,3,228,0
569954,28,5,229,0
569965,29,8,232,0
569976,29,6,232,0
569987,29,7,233,0
569998,32,5,235,0
570009,30,9,229,0
570020,30,16,228,0
570031,30,15,233,0
570043,30,14,234,0
570054,26,10,230,0
570065,29,10,231,0
570076,30,12,232,0
570087,30,15,230,0
570098,30,14,229,0
570109,33,13,231,0
570120,36,11,231,0
570131,39,11,230,0
570142,37,14,228,0
570153,38,16,228,0
570164,36,16,228,0
570175,37,15,229,0
570186,37,16,230,0
570197,36,13,232,0
570208,36,13,233,0
570219,34,15,230,0
570230,34,14,227,0
570241,34,15,229,0
570252,34,15,231,0
570263,34,15,230,0
570274,38,11,231,0
570285,39,11,230,0
570296,40,11,227,0
570307,40,10,226,0
570318,41,10,223,0
570329,38,11,226,0
570340,36,14,230,0
570351,35,13,232,0
570362,35,14,239,0
570373,32,12,239,0
570384,30,10,237,0
570395,30,7,231,0
570406,29,8,229,0
570417,28,8,226,0
570428,27,7,225,0
570439,27,8,227,0
570450,27,9,228,0
570461,26,13,231,0
570472,27,9,232,0
570483,28,9,232,0
570494,28,9,231,0
570505,29,10,228,0
570516,31,9,228,0
570527,32,11,230,0
570538,32,10,232,0
570549,34,10,232,0
570560,37,7,232,0
570571,37,6,230,0
570582,37,6,228,0
570594,38,5,231,0
570605,37,5,231,0
570616,39,5,233,0
570627,38,4,234,0
570638,40,4,231,0
570649,38,3,232,0
570660,34,2,230,0
570671,34,2,229,0
570682,33,2,228,0
570693,32,3,228,0
570704,31,3,228,0
570715,30,3,228,0
570726,29,3,229,0
570737,29,2,229,0
570748,28,3,230,0
570759,29,4,230,0
570770,29,4,230,0
570781,31,3,229,0
570792,32,3,228,0
570803,36,1,229,0
570814,37,1,229,0
570825,39,2,229,0
570836,40,3,229,0
570847,42,7,234,0
570858,42,6,239,0
570869,43,2,238,0
570880,41,0,237,0
570891,38,2,234,0
570902,43,3,232,0
570913,41,6,227,0
570924,37,12,228,0
570935,38,10,237,0
570946,37,14,239,0
570957,38,11,240,0
570968,41,14,231,0
570979,43,12,225,0
570990,43,7,223,0
571001,43,9,223,0
571012,42,14,225,0
571024,41,13,227,0
571035,40,12,227,0
571046,39,13,226,0
571057,41,12,227,0
571068,41,12,227,0
571080,40,14,227,0
571091,45,10,224,0
571102,46,8,226,0
571113,49,9,225,0
571124,53,8,226,0
571135,54,10,225,0
571146,53,10,225,0
571157,54,10,227,0
571168,52,14,230,0
571179,49,12,231,0
571190,45,11,233,0
571201,42,13,233,0
571212,39,12,234,0
571223,37,11,236,0
571234,36,11,238,0
571245,36,14,238,0
571256,38,18,239,0
571267,37,19,237,0
571278,36,16,239,0
571289,36,16,237,0
571301,36,16,237,0
571312,35,14,233,0
571323,34,13,231,0
571334,36,12,231,0
571345,37,10,229,0
571356,39,11,228,0
571367,42,12,228,0
571378,49,12,227,0
571389,52,11,227,0
571400,54,12,224,0
571411,55,16,223,0
571422,55,16,222,0
571433,54,19,224,0
571444,49,18,226,0
571455,47,16,231,0
571466,46,20,235,0
571477,42,20,238,0
571488,40,19,236,0
571499,41,19,235,0
571510,39,17,235,0
571521,42,18,234,0
571532,44,15,232,0
571543,43,16,231,0
571554,42,17,230,0
571565,39,16,228,0
571576,37,15,228,0
571587,33,16,227,0
571598,33,16,227,0
571609,32,20,227,0
571620,32,24,229,0
571631,32,22,229,0
571642,32,22,230,0
571653,33,23,229,0
571664,34,21,229,0
571675,34,20,227,0
571686,32,18,226,0
571697,33,19,225,0
571708,33,21,224,0
571719,35,19,227,0
571730,36,18,225,0
571741,38,17,227,0
571752,40,16,227,0
571763,42,19,226,0
571774,44,17,226,0
571785,46,17,228,0
571796,47,17,229,0
571807,49,15,231,0
571818,51,16,231,0
571829,52,14,229,0
571840,53,13,228,0
571851,54,13,227,0
571862,54,13,227,0
571873,52,13,225,0
571884,49,15,225,0
571895,46,18,226,0
571906,43,15,226,0
571917,41,17,227,0
571928,42,18,230,0
571939,41,19,233,0
571950,41,18,237,0
571961,43,18,235,0
571972,44,17,232,0
571983,45,15,228,0
571994,47,12,221,0
572005,47,14,220,0
572016,46,15,221,0
572027,45,17,223,0
572038,43,18,223,0
572049,42,18,222,0
572060,41,18,224,0
572071,41,20,228,0
572082,43,21,234,0
572093,42,22,238,0
572104,39,23,238,0
572115,37,19,233,0
572126,34,15,225,0
572137,33,12,214,0
572148,25,16,213,0
572159,22,19,222,0
572170,19,25,232,0
572181,19,26,241,0
572192,20,32,249,0
572203,21,34,255,0
572214,25,30,260,0
572225,30,29,264,0
572236,37,26,258,0
572247,42,18,249,0
572258,47,11,241,0
572269,47,12,235,0
572280,44,14,234,0
572291,39,17,237,0
572302,36,22,243,0
572313,38,23,242,0
572324,39,20,238,0
572335,43,17,237,0
572346,47,17,230,0
572357,47,16,225,0
572368,47,16,224,0
572379,47,17,222,0
572390,47,17,220,0
572401,45,18,222,0
572412,43,19,223,0
572423,41,23,224,0
572434,42,23,225,0
572445,42,25,224,0
572456,41,22,220,0
572467,41,20,220,0
572478,41,21,221,0
572489,43,21,221,0
572500,45,21,221,0
572511,48,20,222,0
572522,50,17,222,0
572533,52,18,221,0
572544,51,19,219,0
572555,47,18,221,0
572566,44,18,224,0
572577,43,19,226,0
572589,36,21,231,0
572600,35,20,231,0
572611,36,19,232,0
572622,34,21,234,0
572633,35,19,233,0
572644,37,18,233,0
572655,38,19,234,0
572666,39,17,234,0
572677,40,17,234,0
572688,40,18,234,0
572699,41,17,233,0
572710,41,16,232,0
572721,42,18,231,0
572732,42,19,231,0
572743,44,18,233,0
572754,45,20,232,0
572765,45,19,232,0
572776,46,18,232,0
572787,46,18,231,0
572798,46,17,229,0
572809,48,17,226,0
572820,46,17,228,0
572831,44,19,228,0
572842,44,18,229,0
572853,42,19,228,0
572864,41,18,226,0
572875,40,20,226,0
572886,40,19,230,0
572897,40,21,231,0
572908,40,20,231,0
572919,40,21,230,0
572930,40,20,230,0
572941,41,20,229,0
572952,40,19,228,0
572963,40,18,230,0
572974,39,20,227,0
572985,38,18,227,0
572996,37,18,228,0
573007,36,21,226,0
573018,35,21,229,0
573029,33,22,231,0
573040,33,23,231,0
573051,35,22,233,0
573062,35,21,233,0
573073,35,24,236,0
573084,38,23,235,0
573095,39,22,234,0
573106,39,21,233,0
573117,39,21,231,0
573128,38,21,231,0
573139,38,19,225,0
573150,38,19,225,0
573161,38,18,223,0
573172,37,21,224,0
573183,35,22,224,0
573194,35,21,227,0
573205,34,21,233,0
573216,34,22,236,0
573227,34,21,237,0
573238,32,19,235,0
573249,31,19,235,0
573260,32,16,231,0
573271,31,17,228,0
573282,31,18,226,0
573293,30,18,224,0
573304,31,17,225,0
573315,32,18,226,0
573326,34,19,228,0
573337,33,21,231,0
573348,35,21,235,0
573359,34,21,239,0
573370,32,19,237,0
573381,32,17,236,0
573392,32,19,233,0
573403,33,16,231,0
573414,33,16,231,0
573425,33,15,231,0
573436,34,16,231,0
573447,35,16,230,0
573458,37,14,229,0
573469,38,14,229,0
573480,39,14,229,0
573491,39,15,231,0
573502,36,17,230,0
573513,35,15,230,0
573524,34,15,231,0
573535,32,16,233,0
573546,31,16,233,0
573557,32,16,234,0
573568,34,15,234,0
573579,34,15,232,0
573590,34,14,229,0
573601,36,12,227,0
573612,35,12,227,0
573623,34,14,227,0
573634,34,13,226,0
573645,33,13,228,0
573656,33,12,229,0
573667,31,11,227,0
573678,29,9,224,0
573689,27,9,221,0
573700,25,12,217,0
573711,25,10,215,0
573722,23,10,218,0
573733,24,13,223,0
573744,24,17,229,0
573755,25,17,234,0
573766,25,16,237,0
573777,23,18,235,0
573788,23,16,239,0
573799,22,13,241,0
573810,22,12,242,0
573821,24,7,240,0
573832,24,5,237,0
573843,27,8,237,0
573854,28,13,240,0
573865,29,14,242,0
573876,30,13,244,0
573887,30,14,238,0
573898,28,10,230,0
573909,26,11,227,0
573920,28,10,225,0
573931,27,14,223,0
573942,29,16,224,0
573953,30,13,224,0
573964,32,12,224,0
573975,33,13,226,0
573986,33,18,230,0
573997,30,22,232,0
574008,29,22,235,0
574019,27,22,236,0
574030,25,22,233,0
574041,24,21,229,0
574052,23,22,226,0
574063,23,24,225,0
574074,23,24,224,0
574085,25,23,223,0
574096,28,25,225,0
574107,31,26,226,0
574118,34,25,227,0
574129,37,27,228,0
574140,37,30,227,0
574151,35,27,227,0
574162,35,24,227,0
574173,36,23,224,0
574184,37,24,224,0
574195,39,28,222,0
574206,42,30,223,0
574217,43,30,222,0
574228,44,25,223,0
574239,42,26,223,0
574250,38,25,226,0
574261,35,27,228,0
574272,31,27,226,0
574283,27,28,226,0
574294,28,27,224,0
574305,28,28,224,0
574316,29,30,224,0
574327,32,28,221,0
574338,32,26,223,0
574349,32,27,220,0
574360,31,26,222,0
574371,28,29,225,0
574382,25,28,224,0
574393,24,26,223,0
574404,24,26,224,0
574415,28,26,225,0
574426,30,30,224,0
574437,29,32,227,0
574448,27,35,224,0
574459,26,33,225,0
574470,19,39,222,0
574481,12,42,224,0
574492,4,44,230,0
574503,0,46,235,0
574514,-8,49,246,0
574525,-13,52,260,0
574536,-17,55,277,0
574547,-16,60,284,0
574558,-13,61,287,0
574569,-9,62,283,0
574580,-7,60,281,0
574591,-3,60,278,0
574602,-9,65,273,0
574613,-17,70,271,0
574624,-26,69,268,0
574635,-30,67,258,1
574646,-32,71,248,0
574657,-29,69,247,0
574668,-15,56,247,0
574679,3,48,238,0
574690,22,40,220,0
574702,49,21,193,0
574713,58,26,155,0
574724,71,37,109,0
574735,130,32,47,0
574746,94,-15,73,0
574757,25,-76,111,0
574768,-52,-64,163,0
574779,-80,-15,200,1
574790,-75,22,258,0
574801,-47,45,311,0
574812,-36,32,356,0
574823,-18,37,453,0
574834,4,70,511,0
574845,26,95,511,0
574856,50,106,511,0
574867,47,95,486,0
574878,27,67,454,0
574889,-18,35,402,0
574900,-24,31,382,0
574911,-27,37,364,0
574922,-22,25,349,0
574933,-4,-7,319,0
574944,0,-49,281,0
574955,1,-70,242,0
574966,-8,-49,200,0
574977,-13,-25,167,0
574988,-24,-7,148,0
574999,-26,19,136,0
575010,-18,55,122,0
575021,-12,96,87,0
575032,-7,114,41,0
575043,37,-6,-19,0
575054,69,-27,-41,0
575065,100,-37,-47,0
575076,130,-50,-46,0
575087,159,-60,-60,0
575098,168,-40,-47,0
575109,142,-18,-45,0
575120,127,-18,-22,0
575131,106,6,3,0
575142,106,-34,36,1
575153,174,-88,146,0
575164,136,-22,156,0
575175,5,70,184,0
575186,-10,2,235,0
575197,-41,-34,476,0
575208,-71,-12,511,0
575219,-134,4,511,0
575230,-106,37,511,0
575241,-35,29,450,0
575252,-18,-24,374,0
575263,7,-12,373,0
575274,-1,28,417,1
575285,-28,55,467,0
575296,-45,201,415,0
575307,-89,24,418,0
575318,-101,79,411,0
575329,-79,57,349,0
575340,-59,47,323,0
575351,-45,43,315,0
575362,-24,87,318,0
575373,-35,82,284,0
575384,-25,56,238,0
575395,0,25,210,0
575406,32,-5,179,0
575417,52,-4,137,0
575428,47,12,118,0
575439,60,15,97,0
575450,55,58,61,0
575461,58,68,24,0
575472,64,46,-15,0
575483,63,11,-54,0
575494,51,-3,-76,0
575505,17,-17,-97,0
575516,22,-16,-100,0
575527,50,-7,-107,1
575538,18,40,-99,0
575549,196,50,-91,0
575560,160,-54,-9,0
575571,97,-148,68,0
575582,102,-137,155,0
575593,68,-97,315,0
575604,-29,-51,511,0
575615,-176,10,511,0
575626,-65,246,511,0
575637,39,126,511,0
575648,41,31,511,0
575659,-67,78,459,0
575670,-102,133,511,0
575681,-101,114,511,0
575692,-99,99,511,0
575703,-49,88,492,0
575714,-30,64,411,0
575725,-1,44,345,0
575736,22,13,284,0
575747,50,-31,237,0
575758,70,-17,200,0
575769,66,61,142,0
575780,44,93,109,0
575791,38,72,85,0
575802,78,10,7,1
575813,105,22,-41,0
575824,122,39,-56,0
575835,137,-4,-121,0
575846,136,-25,-127,0
575857,133,-9,-130,0
575868,128,16,-119,0
575879,112,5,-65,0
575890,128,-48,-17,0
575901,126,-39,-9,0
575912,96,-47,18,0
575923,54,-38,41,0
575934,46,24,32,0
575945,61,-25,59,0
575956,205,-104,272,0
575967,51,231,466,0
575978,-32,30,405,0
575989,-112,47,486,0
576001,-109,21,511,0
576012,-102,-28,511,0
576023,1,-11,372,0
576034,-17,50,353,0
576045,-30,42,381,0
576056,-17,86,450,0
576067,-26,108,501,0
576078,-51,108,511,0
576089,-54,112,511,1
576100,-69,97,481,0
576111,-27,53,324,0
576122,-22,62,318,0
576133,-25,89,313,0
576144,-34,123,326,0
576155,-30,109,289,0
576166,-16,97,262,0
576177,-3,77,226,0
576188,9,38,174,0
576199,4,23,145,0
576210,-5,23,117,0
576221,-11,18,91,0
576232,-6,21,77,0
576243,10,28,55,0
576254,38,19,10,0
576265,39,-19,-52,0
576276,33,-40,-66,0
576287,26,-26,-89,0
576298,23,1,-108,0
576309,46,7,-115,0
576320,114,17,-88,0
576331,163,-28,-35,0
576342,198,-16,30,1
576353,190,-8,89,0
576364,142,-45,162,0
576375,158,-85,260,0
576386,83,-123,429,0
576397,-76,-72,511,0
576408,14,240,511,0
576419,110,99,511,0
576430,73,63,510,0
576441,17,91,511,0
576452,-36,112,511,0
576463,-72,95,511,0
576474,-76,79,511,0
576485,-73,71,503,0
576496,-39,56,434,0
576507,-53,35,374,0
576518,-71,10,319,0
576529,-94,-27,266,0
576540,-79,-69,225,0
576551,-29,-78,172,0
576562,-20,58,82,0
576573,-9,44,41,0
576584,52,29,-13,0
576595,70,47,-62,0
576606,86,-1,-128,0
576617,93,-27,-73,0
576628,111,-76,-179,0
576639,103,-31,-144,0
576650,82,-24,-128,0
576661,78,-29,-83,0
576672,57,-31,-52,0
576683,60,-51,-18,0
576694,81,-87,9,0
576705,126,-111,46,0
576716,162,-127,227,0
576727,-28,194,416,1
576738,-72,137,439,0
576749,-89,118,427,0
576760,-5,-21,385,0
576771,-3,-14,434,0
576782,-23,22,484,0
576793,47,-3,435,0
576804,86,7,349,0
576815,136,-39,303,0
576826,166,-16,327,0
576837,187,19,369,0
576848,169,52,369,0
576859,131,47,362,0
576870,70,61,370,0
576881,-37,80,425,0
576892,-70,85,396,0
576903,-98,71,372,0
576914,-130,50,335,0
576925,-141,22,278,0
576936,-139,20,219,0
576947,-121,9,174,0
576958,-108,4,136,0
576969,-78,-25,97,0
576980,-36,-64,60,0
576991,7,-66,46,0
577002,45,-55,12,0
577013,73,-32,-10,0
577024,95,-18,-32,0
577035,94,-41,-96,0
577046,88,-29,-102,0
577057,82,11,-93,0
577068,98,39,-91,0
577079,122,35,-93,1
577090,199,15,-92,0
577101,214,14,-38,0
577112,160,-153,67,0
577123,120,-246,170,0
577134,36,-145,231,0
577145,-55,47,509,0
577156,-157,109,511,0
577167,16,343,511,0
577178,79,97,511,0
577189,78,17,511,0
577201,-3,49,511,0
577212,-79,34,511,0
577223,-123,53,511,0
577234,-136,67,511,0
577245,-117,50,497,0
577256,-68,19,424,0
577267,-32,-3,341,0
577278,-8,-38,277,0
577289,7,-78,210,0
577300,0,-47,136,0
577311,-19,14,90,0
577322,-19,49,59,0
577333,-26,67,30,0
577344,-8,42,-15,0
577355,25,22,-29,0
577366,53,9,-58,0
577377,74,-16,-100,0
577388,81,-38,-132,0
577399,85,-37,-135,0
577410,82,-33,-125,0
577421,79,-47,-114,0
577432,91,-58,-81,0
577443,122,-67,-32,0
577454,138,-44,-16,0
577465,135,-20,61,0
577476,161,41,306,0
577487,-16,289,396,0
577498,-31,191,441,1
577509,-86,135,442,0
577520,-127,108,511,0
577531,-91,23,511,0
577542,-127,30,488,0
577553,-86,-78,326,0
577564,16,-71,296,0
577575,71,-40,359,0
577586,128,15,423,0
577597,163,47,453,0
577608,135,62,454,0
577619,98,62,429,0
577630,-23,56,390,0
577641,-54,60,372,0
577652,-73,66,345,0
577663,-68,48,312,0
577674,-78,39,283,0
577685,-105,65,269,0
577696,-106,34,222,0
577707,-80,4,171,0
577718,-56,8,146,0
577729,-54,-2,93,0
577740,-45,-34,60,0
577751,-13,-56,46,0
577762,20,-45,-3,0
577773,42,-10,-46,0
577784,38,-47,-111,0
577796,58,-72,-118,0
577807,78,-54,-112,0
577818,108,-11,-103,0
577829,117,39,-86,0
577840,123,38,-65,0
577851,194,-8,-41,0
577862,246,-71,-1,1
577873,185,-153,76,0
577884,148,-187,231,0
577895,72,-122,338,0
577906,-74,25,511,0
577917,-109,292,511,0
577928,23,31,511,0
577939,-22,35,511,0
577950,-64,46,511,0
577961,-126,22,511,0
577972,-131,30,511,0
577983,-140,44,511,0
577994,-128,47,511,0
578005,-83,25,511,0
578016,-1,-5,465,0
578027,31,-15,382,0
578038,28,-26,317,0
578049,3,-47,273,0
578060,-8,-73,214,0
578071,-1,-34,187,0
578082,-21,19,97,0
578093,-24,36,39,0
578104,-35,57,-14,0
578115,-26,20,-54,0
578126,-2,-28,-89,0
578137,27,-57,-109,0
578148,53,-49,-106,0
578159,58,-29,-108,0
578171,62,-26,-97,0
578182,71,-18,-101,0
578193,81,-28,-65,0
578204,84,-27,-73,0
578215,75,-29,-40,0
578226,62,-4,33,0
578237,37,11,68,1
578248,1,15,79,0
578259,35,-52,105,0
578270,188,-265,256,0
578281,180,14,302,0
578292,68,224,386,0
578303,-7,110,322,0
578314,-38,64,382,0
578325,-111,13,450,0
578336,-105,-15,451,0
578347,-62,-55,452,0
578358,-74,-17,411,0
578369,-31,21,473,0
578380,16,20,499,0
578391,31,33,473,0
578402,27,9,434,0
578413,17,-4,406,0
578424,-8,3,371,0
578435,-40,10,374,0
578446,-55,19,372,0
578457,-64,12,360,0
578468,-57,47,373,0
578479,-51,59,358,0
578490,-57,71,328,0
578501,-52,72,285,0
578512,-51,53,228,0
578523,-8,-36,154,0
578534,-1,-91,132,0
578545,19,-107,123,0
578556,49,-85,53,0
578567,54,-5,-26,0
578578,47,27,-61,0
578589,56,3,-85,0
578600,57,-35,-118,0
578611,47,-68,-143,0
578622,40,-57,-159,0
578633,37,-21,-133,1
578644,41,0,-108,0
578655,88,0,-68,0
578666,167,28,-36,0
578677,102,-255,259,0
578688,83,-112,255,0
578699,-51,20,401,0
578710,-92,29,511,0
578721,-53,194,511,0
578732,98,188,511,0
578743,123,50,511,0
578754,80,74,511,0
578765,29,69,511,0
578777,-45,54,497,0
578788,-96,59,511,0
578799,-126,69,504,0
578810,-123,51,471,0
578821,-64,16,368,0
578832,-48,17,305,0
578843,-43,-1,252,0
578854,-35,-20,218,0
578865,-13,7,190,0
578876,-1,42,144,0
578887,4,44,101,0
578898,5,26,55,0
578909,14,6,3,0
578920,39,-28,-39,0
578931,68,-56,-72,0
578942,98,-66,-99,0
578953,114,-38,-107,0
578964,111,-15,-115,0
578975,116,-29,-119,0
578986,106,-3,-98,0
578997,96,18,-75,0
579008,73,30,-38,0
579019,38,17,-14,0
579030,-12,47,-12,1
579041,-37,25,5,0
579052,96,-162,85,0
579063,243,-215,258,0
579074,-1,246,335,0
579085,36,44,317,0
579097,34,-6,316,0
579108,-138,77,489,0
579119,-172,37,511,0
579130,-170,50,487,0
579141,-168,34,453,0
579152,-151,15,434,0
579163,-111,64,511,0
579174,-100,109,511,0
579185,-113,116,511,0
579196,-118,117,487,0
579207,-117,95,448,0
579218,-106,72,391,0
579229,-82,30,345,0
579240,-52,28,318,0
579251,-44,62,322,0
579262,-45,76,328,0
579273,-44,83,286,0
579284,-24,59,259,0
579295,8,29,225,0
579306,33,7,178,0
579317,50,-10,117,0
579328,67,-7,44,0
579339,59,36,-53,0
579350,73,31,-77,0
579361,63,8,-129,0
579372,49,-6,-157,0
579383,39,-25,-168,0
579394,22,-31,-165,1
579405,5,-26,-136,0
579416,4,-14,-93,0
579427,56,29,-70,0
579438,207,109,-92,0
579449,156,63,-31,0
579460,61,-262,127,0
579471,41,-388,293,0
579482,21,-203,327,0
579493,-78,-25,511,0
579504,-17,203,511,0
579515,142,299,511,0
579526,155,67,511,0
579537,98,8,483,0
579548,0,36,457,0
579559,-88,46,476,0
579570,-155,103,511,0
579581,-174,92,511,0
579592,-138,68,498,0
579603,-74,26,428,0
579614,-14,37,337,0
579625,9,71,262,0
579636,29,51,218,0
579647,30,25,167,0
579658,32,27,115,0
579669,29,43,94,0
579680,28,53,80,0
579691,26,63,59,0
579702,22,59,20,0
579713,39,23,-13,0
579724,64,-9,-47,0
579735,95,-35,-85,0
579746,96,-1,-112,0
579757,91,1,-118,0
579768,89,-1,-111,0
579779,87,-12,-89,0
579790,78,-23,-63,0
579801,69,-30,-32,0
579812,40,-24,-27,1
579823,97,-66,-33,0
579834,149,-42,90,0
579845,67,115,148,0
579856,-5,48,243,0
579867,82,-39,308,0
579878,36,-4,336,0
579889,22,1,386,0
579900,97,-8,511,0
579911,43,366,511,0
579922,8,363,511,0
579933,-3,150,400,0
579944,27,55,358,0
579955,22,35,400,0
579966,0,99,511,0
579977,-40,185,511,0
579988,-71,193,511,0
579999,-85,158,511,0
580010,-74,97,469,0
580021,-69,93,431,0
580032,-91,91,374,0
580043,-96,123,287,0
580054,-64,119,245,0
580065,-33,108,218,0
580076,0,90,181,0
580087,7,75,144,0
580098,2,53,125,0
580109,11,61,112,0
580120,28,44,105,0
580131,39,42,70,0
580142,24,38,16,0
580153,20,30,-45,0
580164,37,10,-92,0
580175,52,6,-95,0
580186,56,8,-88,0
580197,61,36,-45,1
580208,68,37,-45,0
580219,80,32,-42,0
580230,186,42,-56,0
580241,286,122,-48,0
580252,190,-9,57,0
580263,131,-267,202,0
580274,45,-300,224,0
580285,-47,-109,246,0
580296,-154,-4,437,0
580307,-181,68,511,0
580318,-19,201,511,0
580329,73,143,511,0
580340,69,52,511,0
580351,-35,92,511,0
580362,-83,60,454,0
580373,-105,120,511,0
580384,-97,102,500,0
580395,-88,92,473,0
580406,-54,81,434,0
580417,-17,81,383,0
580428,10,78,329,0
580439,38,56,288,0
580450,63,27,252,0
580461,73,15,222,0
580472,63,27,173,0
580483,37,44,124,0
580494,33,37,105,0
580505,89,15,32,0
580516,102,62,-2,0
580527,108,55,-43,0
580538,104,10,-64,0
580549,91,4,-70,0
580560,83,31,-69,0
580571,86,-10,-58,0
580582,95,-28,-46,0
580593,96,-23,-25,0
580604,87,-44,-30,1
580615,85,-63,-54,0
580626,112,-93,-26,0
580637,61,-21,-24,0
580648,-16,24,8,0
580659,2,-21,115,0
580670,5,22,224,0
580681,20,32,406,0
580692,83,30,511,0
580703,92,115,511,0
580714,-19,252,511,0
580725,18,214,511,0
580736,11,33,360,0
580747,-4,10,318,0
580758,1,56,418,0
580769,-17,93,481,0
580780,-49,132,511,0
580791,-64,146,511,0
580802,-85,128,472,0
580813,-68,116,422,0
580824,-34,121,347,0
580835,-31,114,281,0
580846,-28,113,249,0
580857,-17,108,237,0
580868,9,111,226,0
580879,27,86,194,0
580890,49,50,170,0
580901,62,36,152,0
580912,65,42,128,0
580923,67,46,100,0
580934,62,57,70,0
580945,63,25,37,0
580956,68,4,-3,0
580967,40,5,-56,0
580978,18,1,-66,0
580989,-4,-5,-76,0
581000,-17,-4,-78,1
581012,-4,-11,-80,0
581023,83,-1,-85,0
581034,141,22,-74,0
581045,126,-35,-3,0
581056,113,-125,80,0
581067,84,-145,154,0
581078,48,-99,254,0
581089,-19,-25,432,0
581100,-57,199,511,0
581111,40,213,511,0
581122,63,69,511,0
581133,27,50,497,1
581144,-22,87,507,0
581155,-57,61,435,0
581166,-86,134,511,0
581177,-82,99,504,0
581188,-85,105,489,0
581199,-80,83,441,0
581210,-59,53,358,0
581221,-40,23,309,0
581232,-14,-24,266,0
581243,31,-69,199,0
581254,4,120,125,0
581265,30,63,98,0
581276,72,10,78,0
581287,112,38,28,0
581298,138,43,-2,0
581309,156,41,-25,0
581320,165,16,-42,0
581331,171,-21,-65,0
581342,160,-28,-81,0
581353,149,-19,-75,0
581364,139,-36,-56,1
581375,141,-73,-56,0
581386,121,-70,-21,0
581397,57,-11,-23,0
581408,97,-68,141,0
581419,56,66,233,0
581430,-6,107,326,0
581441,-15,-7,367,0
581452,-84,32,348,0
581463,-121,-45,449,0
581474,-174,-8,511,0
581485,-118,61,486,0
581496,-51,79,419,0
581507,-32,66,416,0
581518,-17,54,419,0
581529,-16,78,444,0
581540,-27,80,468,0
581551,-43,73,459,0
581562,-56,58,421,0
581573,-53,46,383,0
581584,-28,46,359,0
581595,-21,79,346,0
581606,-28,93,331,0
581617,-26,99,299,0
581628,-8,92,265,0
581639,7,74,227,0
581650,25,43,184,0
581661,40,36,141,0
581672,40,41,103,0
581683,47,16,82,0
581694,50,-3,68,0
581705,43,1,57,0
581716,8,24,-5,0
581727,-4,18,-28,0
581738,-15,1,-42,0
581749,-16,-16,-65,0
581760,-11,-15,-64,0
581771,5,-2,-62,0
581782,60,13,-67,0
581793,186,95,-70,1
581804,223,100,-17,0
581815,169,-79,137,0
581826,162,-258,241,0
581837,106,-184,260,0
581848,-17,-53,394,0
581859,-138,-22,511,0
581870,46,170,511,0
581881,74,59,511,0
581892,46,63,511,0
581903,-4,114,511,0
581914,-53,115,511,0
581925,-78,100,511,1
581936,-89,77,507,0
581947,-94,59,469,0
581958,-82,41,422,0
581969,-62,32,395,0
581980,-39,-8,332,0
581991,-10,-18,255,0
582002,-7,59,211,0
582013,-28,79,176,0
582024,22,32,105,0
582035,64,9,79,0
582046,103,5,16,0
582057,126,-8,-21,0
582068,151,-45,-58,0
582079,156,-38,-90,0
582090,137,-11,-118,0
582101,110,5,-101,0
582112,97,4,-67,0
582123,111,-8,-46,0
582134,117,-20,-36,0
582145,106,-50,-28,1
582156,62,-33,-13,0
582167,-11,16,-11,0
582178,-12,-69,18,0
582189,134,-237,156,0
582200,93,143,331,0
582211,46,212,511,0
582222,71,12,437,0
582233,-85,-4,451,0
582244,-98,-41,491,0
582255,-71,-6,475,0
582266,-29,32,432,0
582277,-85,63,435,0
582288,-108,62,448,0
582299,-65,74,486,0
582310,-43,83,511,0
582321,-52,92,479,0
582332,-41,73,415,0
582343,-38,63,373,0
582354,-29,51,330,0
582365,-25,58,328,0
582376,-44,74,311,0
582387,-49,85,308,0
582398,-51,91,305,0
582409,-35,83,277,0
582420,-14,76,238,0
582431,10,51,180,0
582442,34,30,123,0
582453,47,25,71,0
582464,55,24,38,0
582475,65,21,5,0
582486,58,1,-40,0
582497,31,-15,-60,0
582508,3,-38,-87,0
582519,-19,-41,-95,0
582530,-27,-38,-88,0
582541,-19,-36,-70,0
582552,1,-20,-63,0
582563,50,-35,-58,1
582574,191,-5,-59,0
582585,230,59,-35,0
582596,133,-35,103,0
582607,153,-150,240,0
582618,92,-123,293,0
582629,11,-49,475,0
582640,-101,169,511,0
582651,-15,148,511,0
582662,26,29,511,0
582673,-3,38,511,1
582684,-38,40,453,0
582695,-74,162,511,0
582706,-98,115,511,0
582717,-141,101,511,0
582728,-159,76,489,0
582739,-139,38,430,0
582750,-99,-20,380,0
582761,-14,-155,296,0
582773,-24,5,208,0
582784,-10,19,139,0
582795,39,23,122,0
582806,75,37,63,0
582817,101,51,47,0
582828,126,56,30,0
582839,141,34,-27,0
582850,155,-14,-61,0
582861,165,-42,-76,0
582872,161,-41,-98,0
582883,132,-17,-127,0
582894,102,-17,-119,0
582905,93,-33,-83,0
582916,104,-62,-59,0
582927,89,-50,-28,0
582938,-35,12,8,1
582949,-19,-28,19,0
582960,159,-260,170,0
582971,136,103,249,0
582982,55,121,469,0
582994,57,16,400,0
583005,-58,60,456,0
583016,-104,40,511,0
583027,-153,52,511,0
583038,-102,-7,456,0
583049,-104,1,414,0
583060,-80,28,437,0
583071,-29,67,510,0
583082,-29,71,475,0
583093,-42,61,434,0
583104,-34,61,418,0
583115,-40,70,412,0
583126,-43,57,387,0
583137,-54,56,348,0
583148,-70,87,363,0
583159,-89,67,314,0
583170,-75,75,287,0
583181,-59,53,237,0
583192,-34,24,194,0
583203,4,16,161,0
583214,38,11,120,0
583225,75,-16,22,0
583236,87,-3,-11,0
583247,97,3,-44,0
583258,75,-21,-84,0
583269,57,-30,-120,0
583280,41,-38,-140,0
583291,25,-30,-133,1
583302,14,-6,-122,0
583313,26,10,-104,0
583324,32,29,-75,0
583335,101,18,-70,0
583346,220,108,-52,0
583357,160,57,37,0
583368,102,-197,209,0
583379,-9,-121,435,0
583390,-120,5,511,0
583401,-63,229,511,0
583412,33,195,511,0
583423,41,-17,478,0
583434,10,-19,459,0
583445,-47,45,481,0
583456,-107,44,422,0
583467,-138,98,511,0
583478,-162,111,511,0
583489,-187,99,502,0
583500,-182,66,442,0
583511,-156,50,372,0
583522,-117,30,323,0
583533,1,-137,245,0
583544,-1,32,192,0
583555,-15,124,119,0
583566,11,72,117,0
583577,48,57,91,0
583588,80,60,31,0
583599,112,54,8,0
583610,145,37,-41,0
583621,182,-4,-66,0
583632,199,-36,-88,0
583643,199,-35,-132,0
583654,177,-15,-130,0
583665,166,-5,-102,0
583676,168,-12,-66,0
583687,112,10,-7,0
583698,51,2,15,0
583709,-34,60,-2,0
583720,85,-100,145,0
583731,190,-151,261,1
583742,-22,167,354,0
583753,77,31,440,0
583764,-34,-22,285,0
583775,-145,-73,363,0
583786,-231,-53,482,0
583797,-256,-26,511,0
583808,-124,103,511,0
583819,-113,83,511,0
583830,-79,66,511,0
583841,-105,82,468,0
583852,-142,73,456,0
583863,-161,80,460,0
583874,-156,75,448,0
583885,-134,60,401,0
583896,-95,48,353,0
583907,-58,36,307,0
583918,-41,71,288,0
583929,-24,106,287,0
583940,-9,100,263,0
583951,15,91,249,0
583962,40,67,199,0
583973,60,48,165,0
583984,75,38,109,0
583995,71,24,46,0
584006,81,12,20,0
584017,88,8,-24,0
584028,73,14,-60,0
584039,45,12,-98,1
584050,26,-6,-122,0
584061,5,-15,-119,0
584072,-25,-9,-100,0
584083,-11,-11,-99,0
584094,22,4,-102,0
584105,139,41,-124,0
584116,181,102,-93,0
584127,141,-19,20,0
584138,85,-199,179,0
584149,13,-49,438,0
584160,-77,33,511,0
584171,-117,115,511,0
584182,15,188,511,0
584193,32,31,503,0
584204,-1,0,440,0
584215,-59,48,450,0
584226,-108,56,456,0
584237,-140,80,473,0
584248,-133,124,511,0
584259,-139,122,511,0
584270,-121,98,477,0
584281,-92,83,415,0
584292,-62,75,358,0
584303,-36,30,287,0
584314,-11,15,268,0
584325,27,13,217,0
584336,62,11,159,0
584347,77,58,113,0
584358,45,116,48,0
584369,45,56,41,0
584380,117,-52,-23,0
584391,139,8,-53,0
584402,142,-14,-81,0
584413,149,-55,-101,0
584424,157,-39,-96,0
584435,154,-5,-74,0
584446,157,-3,-32,0
584457,171,-36,-26,1
584468,134,-52,-18,0
584479,33,29,-37,0
584490,69,-67,61,0
584501,111,-106,166,0
584512,15,113,239,0
584523,-68,80,345,0
584534,-57,-18,317,0
584545,-135,-11,407,0
584556,-188,-49,511,0
584567,-187,3,511,0
584578,-45,67,455,0
584589,-20,82,407,0
584600,-30,62,413,0
584611,-42,79,485,0
584622,-92,96,505,0
584633,-137,110,501,0
584644,-154,101,469,0
584655,-144,91,398,0
584666,-119,60,327,0
584677,-74,47,275,0
584688,-25,60,267,0
584699,6,82,261,0
584710,28,114,268,0
584721,50,123,277,0
584732,54,123,270,0
584743,62,74,237,0
584754,63,23,199,0
584765,15,9,120,0
584777,-9,2,74,0
584788,-10,4,55,0
584799,-7,9,21,0
584810,-19,4,-14,0
584821,-42,-3,-51,1
584832,-52,-16,-76,0
584843,-41,-6,-89,0
584854,-32,-4,-103,0
584865,25,-2,-96,0
584876,114,28,-54,0
584887,146,-3,12,0
584898,105,-49,160,0
584909,90,-23,202,0
584920,69,-1,282,0
584931,47,23,462,0
584942,22,15,511,0
584953,95,137,511,0
584964,164,107,511,0
584975,169,40,486,0
584986,130,57,450,0
584997,66,59,422,0
585008,20,108,494,0
585019,-16,65,469,0
585030,-38,57,462,0
585041,-55,68,450,0
585052,-75,46,352,0
585063,-105,17,306,0
585074,-127,-5,282,0
585085,-118,-22,242,0
585096,-91,-33,183,0
585107,-47,-13,139,0
585118,1,30,123,0
585129,40,42,98,0
585140,80,37,60,0
585151,115,11,-18,0
585162,125,-3,-45,0
585173,122,-18,-69,0
585184,121,-48,-129,0
585195,114,-42,-144,0
585206,83,-17,-116,1
585217,70,1,-77,0
585228,20,51,-34,0
585239,55,-1,-40,0
585250,81,-83,-7,0
585261,106,-122,93,0
585272,84,-60,149,0
585283,2,95,134,0
585294,33,-60,238,0
585305,70,32,259,0
585316,87,-43,451,0
585327,70,64,511,0
585338,2,101,511,0
585349,-84,103,511,0
585360,26,-33,305,0
585371,38,-53,272,0
585382,12,-9,356,0
585393,28,35,431,0
585404,4,54,479,0
585415,-6,71,495,0
585426,-18,89,470,0
585437,-31,74,421,0
585448,-43,63,386,0
585459,-46,58,364,0
585470,-43,60,359,0
585481,-48,47,339,0
585492,-55,39,324,0
585503,-64,42,307,0
585514,-93,54,212,0
585525,-95,46,165,0
585536,-90,16,142,0
585547,-69,-23,114,0
585558,-27,-52,90,0
585569,4,-51,69,0
585580,27,-43,48,0
585591,54,-37,7,0
585602,77,-23,-30,1
585613,78,-20,-67,0
585624,66,-29,-93,0
585635,43,-37,-112,0
585646,33,-31,-121,0
585657,26,-24,-98,0
585668,132,35,-33,0
585679,115,9,47,0
585690,57,-113,151,0
585701,51,-149,248,0
585712,-6,-36,306,0
585723,-54,88,511,0
585734,-139,176,511,0
585745,56,313,511,0
585756,107,30,511,0
585767,122,-33,472,0
585778,77,66,511,0
585789,21,67,475,0
585800,-39,67,461,0
585811,-87,81,479,0
585822,-116,77,455,0
585833,-97,55,395,0
585844,-89,30,337,0
585855,-76,-6,294,0
585866,-75,-35,235,0
585877,-75,-14,184,0
585888,-93,34,143,0
585899,-88,32,131,0
585910,-66,29,98,0
585921,-30,20,71,0
585932,10,24,42,0
585943,49,7,-27,0
585954,72,-10,-44,0
585965,99,-40,-65,0
585976,155,-62,-85,0
585987,173,-59,-68,0
585998,182,-49,-63,0
586009,180,-2,-64,1
586020,148,36,-34,0
586031,119,21,-9,0
586042,115,-34,68,0
586053,104,-44,170,0
586064,44,131,206,0
586075,-51,153,237,0
586086,-90,50,271,0
586097,-109,72,379,0
586108,-134,40,511,0
586119,-216,96,511,0
586130,-56,3,343,0
586141,10,-38,316,0
586152,35,1,379,0
586163,35,53,438,0
586174,5,79,473,0
586186,-46,85,459,0
586197,-90,73,440,0
586208,-106,76,400,0
586219,-106,74,351,0
586230,-88,64,323,0
586241,-60,40,320,0
586252,-52,43,331,0
586263,-38,56,323,0
586274,-28,57,291,0
586285,-28,26,232,0
586296,-23,-7,201,0
586307,-24,-17,167,0
586318,-20,-24,115,0
586329,-20,-16,30,0
586340,-20,-9,-16,0
586351,-10,-25,-50,0
586362,-8,-34,-75,0
586373,-9,-31,-86,1
586384,-11,-35,-92,0
586395,7,-30,-82,0
586406,28,5,-58,0
586417,76,27,-49,0
586428,135,-10,33,0
586439,122,-122,107,0
586450,75,-136,170,0
586461,18,-64,214,0
586473,-19,17,353,0
586484,-45,48,511,0
586495,-79,101,511,0
586506,67,158,511,0
586517,118,20,511,0
586528,100,2,502,0
586539,32,59,461,0
586550,-49,80,467,0
586561,-121,50,492,0
586572,-124,65,494,0
586583,-98,48,450,0
586594,-67,36,386,0
586605,-42,26,318,0
586616,-28,4,259,0
586627,-26,-8,202,0
586638,-29,5,147,0
586649,-50,40,131,0
586660,-63,45,120,0
586672,-55,32,97,0
586683,-11,24,55,0
586694,32,42,9,0
586705,76,26,-54,0
586716,99,3,-76,0
586727,122,-12,-95,0
586738,137,-20,-121,0
586749,131,-14,-111,1
586760,120,-10,-86,0
586771,110,-5,-57,0
586782,85,-32,-23,0
586793,37,-12,-1,0
586804,66,-105,67,0
586815,144,-215,296,0
586826,59,220,392,0
586837,3,135,492,0
586848,-6,52,355,0
586859,-214,-10,422,0
586870,-282,16,449,0
586882,-194,16,401,0
586893,-104,25,352,0
586904,-39,34,353,0
586915,31,60,393,0
586926,66,103,460,0
586937,69,87,436,0
586948,65,60,394,0
586959,62,56,361,0
586970,47,42,324,0
586981,20,25,304,0
586992,5,19,277,0
587003,-23,15,214,0
587014,-53,23,212,0
587025,-60,35,222,0
587036,-59,58,237,0
587047,-33,58,227,0
587058,-14,58,206,0
587069,4,49,180,0
587080,19,25,158,0
587091,34,0,142,0
587102,46,-15,113,0
587113,67,-22,77,0
587124,79,-22,36,0
587135,77,-9,-13,1
587146,60,5,-55,0
587157,40,-32,-107,0
587168,54,-67,-109,0
587179,107,-31,-107,0
587190,83,25,-49,0
587201,28,-98,26,0
587212,5,-189,160,0
587223,4,-120,202,0
587234,-22,9,293,0
587245,-15,125,511,0
587256,-32,137,511,1
587267,-38,127,511,0
587278,111,100,511,0
587289,162,-31,462,0
587300,126,-9,359,0
587311,-19,68,410,0
587322,-69,93,445,0
587333,-107,117,478,0
587344,-122,107,464,0
587355,-127,103,436,0
587366,-98,85,390,0
587377,-67,68,349,0
587388,-35,36,310,0
587399,-19,-8,278,0
587410,-6,-37,247,0
587421,-2,-37,234,0
587432,-5,-45,202,0
587443,30,-55,202,0
587454,85,-80,160,0
587465,62,54,31,0
587476,45,-8,24,0
587487,57,-65,-9,0
587498,66,-48,-25,0
587509,69,7,-50,0
587520,63,25,-82,0
587531,26,23,-79,0
587542,34,32,-131,0
587553,31,38,-132,0
587564,36,57,-111,1
587575,58,21,-83,0
587586,132,-40,-44,0
587597,120,107,-13,0
587608,100,96,56,0
587619,167,48,324,0
587630,131,125,499,0
587641,77,38,511,0
587652,31,110,511,0
587663,26,48,484,0
587674,56,-29,389,0
587685,57,-16,461,0
587696,13,93,500,1
587707,-26,109,420,0
587718,-51,104,313,0
587729,-34,99,337,0
587740,-26,107,423,0
587751,-37,111,476,0
587762,-66,120,492,0
587773,-39,109,469,0
587784,-2,95,435,0
587795,26,81,383,0
587806,45,77,351,0
587817,40,90,343,0
587828,22,87,319,0
587839,3,66,275,0
587850,-24,60,250,0
587862,-63,72,246,0
587873,-89,59,207,0
587884,-100,39,179,0
587895,-102,26,170,0
587906,-68,14,169,0
587917,-37,11,67,0
587928,-35,24,41,0
587939,3,0,13,1
587950,31,11,-18,0
587961,47,24,-33,0
587972,48,29,-33,0
587983,60,24,-31,0
587994,62,23,-22,0
588005,67,68,-18,0
588016,75,89,-11,0
588027,80,53,4,0
588038,95,60,44,0
588049,77,70,94,0
588060,64,49,159,0
588071,-25,-108,341,1
588082,-211,-167,501,0
588093,-378,1,511,0
588104,-233,211,511,0
588115,-72,142,511,0
588126,12,63,511,0
588137,20,51,483,0
588148,7,27,420,0
588159,-15,17,406,0
588170,-46,10,401,0
588181,-77,4,397,0
588192,-99,-16,384,0
588203,-112,-23,354,0
588214,-112,-35,317,0
588225,-112,-39,270,0
588236,-97,-35,243,0
588247,-67,-22,220,0
588258,-35,-10,182,0
588269,-10,-15,137,0
588280,6,-17,94,0
588291,25,-23,55,0
588302,48,-36,13,0
588313,81,-58,-4,0
588324,102,-70,-37,0
588335,97,-33,-88,0
588346,93,8,-103,0
588357,108,-4,-102,0
588368,77,40,-74,1
588379,45,48,-61,0
588390,45,21,-52,0
588401,102,-49,31,0
588412,144,-57,106,0
588423,71,59,152,0
588434,20,88,202,0
588445,31,35,288,0
588456,-20,62,496,0
588467,-55,83,511,0
588478,-102,76,511,0
588489,-159,12,489,0
588500,-165,-5,369,0
588511,-148,0,347,0
588522,-132,1,383,0
588533,-105,39,430,0
588544,-95,56,438,0
588555,-111,55,436,0
588566,-110,34,403,0
588577,-88,1,349,0
588588,3,-147,294,0
588599,-11,-245,396,0
588610,24,64,299,0
588621,20,34,356,0
588632,21,63,359,0
588643,-8,83,338,0
588654,-30,60,289,0
588665,-58,60,261,0
588676,-77,53,224,0
588687,-72,26,107,0
588698,-56,19,63,0
588709,-19,-16,43,0
588720,4,-28,-6,0
588731,15,-18,-43,0
588742,15,-19,-55,0
588754,26,-16,-69,0
588765,37,6,-81,1
588776,51,25,-73,0
588787,88,33,-60,0
588798,216,80,-56,0
588809,175,58,4,0
588820,81,-216,140,0
588831,28,-171,121,0
588842,-19,-52,195,0
588853,-19,48,402,0
588864,-22,75,511,1
588875,-17,102,511,0
588886,19,92,511,0
588897,7,29,469,0
588908,-36,27,441,0
588919,-80,33,438,0
588930,-127,20,381,0
588941,-156,34,427,0
588952,-143,47,447,0
588963,-115,52,456,0
588974,-51,54,378,0
588985,-37,57,359,0
588996,-8,25,339,0
589007,4,-8,298,0
589018,11,-8,269,0
589029,6,24,213,0
589040,-2,59,167,0
589052,-1,78,137,0
589063,5,69,123,0
589074,32,45,67,0
589085,54,40,19,0
589096,66,23,-12,0
589107,79,-7,-21,0
589118,98,-51,-48,0
589129,95,-26,-40,1
589140,89,-11,-24,0
589151,95,-9,-1,0
589162,107,-14,7,0
589173,100,-30,-1,0
589184,49,13,-12,0
589195,13,1,-5,0
589206,113,-121,110,0
589217,169,-58,247,0
589228,83,151,364,0
589239,129,27,420,0
589250,67,33,340,0
589261,-63,-9,341,0
589272,-135,4,480,0
589283,-84,39,422,0
589294,-89,75,407,0
589305,-75,77,437,0
589316,-51,83,449,0
589327,-59,93,481,0
589338,-87,84,483,0
589349,-111,74,476,0
589360,-126,58,455,0
589371,-130,44,416,0
589382,-128,38,367,0
589393,-104,30,320,0
589404,-73,18,279,0
589415,-46,44,250,0
589426,-11,108,245,0
589437,-14,119,254,0
589448,-3,113,244,0
589459,1,98,234,0
589470,7,55,210,0
589481,9,37,193,0
589492,11,27,163,0
589503,12,32,128,0
589514,18,34,86,0
589525,37,5,20,0
589536,42,0,-34,0
589547,33,6,-61,0
589558,11,13,-73,0
589569,-14,3,-84,1
589580,-26,26,-70,0
589591,0,42,-56,0
589602,124,60,-64,0
589613,223,118,-46,0
589624,180,42,77,0
589635,132,-166,216,0
589646,77,-234,275,0
589657,-41,-135,310,0
589668,-162,-18,501,0
589679,-290,64,511,0
589690,-122,220,511,0
589701,15,114,511,0
589712,47,27,460,0
589723,10,51,433,0
589734,-53,74,410,0
589745,-84,112,493,0
589756,-103,91,483,0
589767,-109,76,454,0
589778,-101,78,427,0
589789,-69,68,378,0
589800,-32,63,312,0
589811,-11,60,260,0
589822,14,36,211,0
589833,35,4,170,0
589844,43,-19,149,0
589855,33,-1,129,0
589866,30,15,97,0
589877,51,5,74,0
589888,136,40,38,0
589899,153,41,36,0
589910,155,40,27,0
589921,146,15,32,0
589932,135,2,35,0
589943,125,23,23,0
589954,104,16,18,0
589965,89,-21,12,0
589976,48,-4,-2,0
589987,49,-34,22,0
589998,74,-49,108,0
590009,53,-35,114,1
590020,-12,32,154,0
590031,-21,19,225,0
590042,-50,-46,345,0
590053,-61,-65,429,0
590064,-102,-46,511,0
590075,-101,13,501,0
590086,-66,49,449,0
590097,-47,25,406,0
590108,-62,7,403,0
590119,-64,8,386,0
590130,-77,24,380,0
590141,-92,56,404,0
590152,-103,78,421,0
590163,-107,87,402,0
590174,-87,76,364,0
590185,-47,62,324,0
590196,11,57,317,0
590207,20,71,313,0
590218,12,67,288,0
590229,-9,73,278,0
590240,-16,55,248,0
590252,-1,12,185,0
590263,-5,-2,156,0
590274,-5,-5,115,0
590285,-8,0,68,0
590296,8,5,36,0
590307,20,23,-7,0
590318,13,33,-37,0
590329,-1,15,-60,0
590340,-39,-26,-106,0
590351,-20,-39,-128,0
590362,-17,-26,-96,0
590373,61,-13,-73,0
590384,116,4,-22,1
590395,124,-46,44,0
590406,143,-91,103,0
590417,107,-77,153,0
590428,84,-59,204,0
590439,66,21,309,0
590450,56,81,511,0
590461,57,74,511,0
590472,111,166,511,0
590483,128,66,511,0
590494,57,51,460,0
590505,11,80,481,0
590516,-21,57,449,0
590527,-50,49,466,0
590538,-68,56,492,0
590549,-80,61,486,0
590560,-89,65,463,0
590571,-87,61,433,0
590582,-81,39,380,0
590593,-81,-4,329,0
590604,-47,-75,297,0
590615,-23,-63,230,0
590626,-60,78,155,0
590637,-51,54,103,0
590648,1,33,39,0
590659,18,41,6,0
590670,33,23,-23,0
590681,44,-9,-46,0
590692,61,-48,-87,0
590703,65,-53,-73,0
590714,75,-62,-97,0
590725,81,-45,-80,0
590736,85,-6,-55,1
590747,85,5,-28,0
590758,92,-7,-11,0
590769,78,-27,19,0
590780,36,-19,48,0
590791,45,-96,84,0
590802,156,142,350,0
590813,-22,168,462,0
590824,40,92,396,0
590835,-27,56,482,0
590846,-19,100,466,0
590857,-24,38,401,0
590868,-52,-22,307,0
590879,-49,-59,282,0
590890,-9,-16,372,0
590901,17,18,424,0
590912,39,48,423,0
590923,25,67,401,0
590934,13,60,382,0
590945,2,59,372,0
590956,-50,61,344,0
590967,-70,50,324,0
590978,-68,50,315,0
590989,-70,49,293,0
591000,-78,60,287,0
591011,-66,64,263,0
591022,-52,40,216,0
591033,-43,20,177,0
591044,-38,-6,166,0
591055,-14,-31,135,0
591066,14,-36,111,0
591077,27,-29,70,0
591088,32,-27,17,0
591099,44,-28,-25,0
591110,55,-35,-77,0
591121,38,-32,-97,0
591132,29,-34,-108,0
591143,13,-37,-107,0
591154,16,-22,-82,1
591165,58,-29,-57,0
591176,146,21,-32,0
591187,143,34,29,0
591198,97,-107,122,0
591209,65,-190,260,0
591220,19,-127,286,0
591231,-30,108,511,0
591242,-64,176,511,0
591254,133,77,511,0
591265,165,-40,511,0
591276,125,-35,422,0
591287,55,77,511,0
591298,-23,56,479,0
591309,-101,76,511,0
591320,-138,87,511,0
591331,-139,78,509,0
591342,-133,81,458,0
591353,-119,73,406,0
591364,-90,30,348,0
591375,-78,-8,314,0
591386,-82,-25,295,0
591397,-53,-92,251,0
591408,-39,1,133,0
591419,-14,14,111,0
591430,28,13,51,0
591441,47,27,14,0
591452,70,16,-36,0
591463,80,26,-38,0
591474,75,23,-74,0
591485,72,2,-100,0
591496,74,-12,-107,0
591507,76,-20,-102,0
591518,61,-6,-128,0
591529,44,-4,-89,0
591540,47,-24,-57,1
591551,50,-18,-8,0
591562,-7,26,54,0
591573,22,-73,87,0
591584,191,-342,338,0
591595,153,234,317,0
591606,20,128,511,0
591617,61,152,452,0
591628,-17,98,511,0
591639,-9,80,464,0
591650,-34,-12,368,0
591661,-28,-60,340,0
591672,-10,-53,341,0
591683,-9,-3,404,0
591694,-2,68,510,0
591705,4,96,511,0
591716,-28,62,479,0
591727,-52,58,425,0
591738,-80,39,379,0
591749,-100,43,342,0
591760,-109,53,323,0
591771,-95,41,305,0
591782,-70,48,294,0
591793,-35,41,302,0
591804,-18,75,311,0
591815,-18,87,327,0
591826,-37,61,297,0
591837,-42,28,270,0
591848,-35,37,263,0
591859,-36,42,215,0
591870,-82,16,53,0
591881,-98,-19,-5,0
591892,-90,-49,-62,0
591903,-78,-11,-101,1
591914,-59,25,-111,0
591925,-42,3,-101,0
591936,-22,-25,-69,0
591947,-10,-30,-34,0
591958,22,-38,6,0
591969,50,-48,35,0
591980,177,19,22,0
591991,203,22,37,0
592002,201,-100,113,0
592013,182,-101,177,0
592024,74,23,257,0
592035,61,-107,454,0
592046,59,-87,511,0
592057,103,93,511,0
592068,93,126,511,0
592079,62,143,511,0
592090,18,163,511,0
592101,-52,158,511,0
592112,-125,145,511,0
592123,-161,119,511,0
592134,-185,109,505,0
592145,-181,87,473,0
592156,-153,64,446,0
592167,-140,36,401,0
592178,-76,4,259,0
592189,-42,8,207,0
592200,-1,5,180,0
592211,20,29,140,0
592222,10,83,95,0
592233,14,86,80,0
592244,27,40,10,0
592255,49,5,-42,0
592266,82,-36,-74,0
592277,117,-66,-84,0
592288,130,-77,-112,0
592299,129,-63,-118,0
592310,118,-44,-111,0
592321,108,-15,-100,0
592332,86,-28,-46,0
592343,80,-38,-6,1
592354,47,-32,29,0
592365,-7,28,36,0
592376,-5,-30,48,0
592387,112,-311,217,0
592398,102,21,320,0
592409,21,166,425,0
592420,-24,76,248,0
592431,-15,53,308,0
592442,-108,-48,381,0
592453,-128,56,506,0
592464,-147,29,478,0
592475,-101,37,456,0
592486,11,58,468,0
592497,46,59,471,0
592508,56,29,445,0
592519,53,11,415,0
592530,42,10,403,0
592541,15,13,397,0
592552,-20,33,376,0
592563,-58,46,340,0
592574,-108,45,306,0
592585,-140,38,278,0
592596,-146,38,249,0
592607,-138,33,208,0
592618,-118,31,179,0
592630,-59,-2,137,0
592641,-11,-25,131,0
592652,38,-44,107,0
592663,64,-38,68,0
592674,97,-5,32,0
592685,112,19,-29,0
592696,127,0,-60,0
592707,134,-6,-78,0
592718,126,-8,-90,0
592729,111,-17,-95,0
592740,99,-19,-93,1
592751,124,-4,-70,0
592762,151,5,-25,0
592773,64,-145,139,0
592784,51,-157,170,0
592795,4,-35,208,0
592806,-55,28,416,0
592817,-104,23,511,0
592828,-135,132,511,0
592839,21,176,511,0
592850,57,56,511,0
592861,34,57,511,0
592872,-13,54,479,0
592883,-68,36,419,0
592894,-106,65,487,0
592905,-126,71,491,0
592916,-134,86,486,0
592927,-103,70,387,0
592938,-85,57,337,0
592949,-78,31,281,0
592960,-103,4,257,0
592971,-118,-46,206,0
592982,-125,-82,174,0
592993,-103,-101,142,0
593004,-68,-71,105,0
593015,-45,23,71,0
593026,6,12,49,0
593037,68,27,2,0
593048,99,39,-39,0
593059,116,7,-63,0
593070,133,-7,-85,0
593081,112,3,-91,0
593092,107,-8,-68,1
593103,92,-1,-85,0
593114,81,17,-35,0
593125,43,72,3,0
593136,11,27,38,0
593147,-28,32,46,0
593158,-22,-23,42,0
593169,98,-370,137,0
593180,162,-304,216,0
593191,56,143,306,0
593202,69,63,348,0
593213,56,75,374,0
593224,-66,61,511,0
593235,-101,51,511,0
593246,-69,-26,410,0
593257,-56,-11,426,1
593268,-24,10,427,0
593279,-6,38,491,0
593290,4,26,485,0
593301,-3,30,457,0
593312,-12,31,418,0
593323,-23,21,368,0
593334,-61,31,332,0
593345,-91,54,321,0
593356,-117,44,315,0
593367,-129,43,310,0
593378,-124,50,301,0
593389,-70,47,277,0
593400,-36,52,250,0
593411,-19,43,212,0
593422,17,26,204,0
593433,45,12,171,0
593444,48,21,125,0
593455,40,21,85,0
593466,41,9,34,0
593477,49,-14,-31,0
593488,44,-22,-54,0
593499,27,-26,-67,0
593510,14,-35,-81,0
593521,8,-44,-86,0
593532,13,-41,-89,0
593543,71,9,-72,1
593554,94,36,-57,0
593565,80,-45,-11,0
593576,17,-110,77,0
593587,5,-119,140,0
593598,-33,-95,171,0
593609,-47,-41,303,0
593620,-62,-5,511,0
593631,-107,118,511,0
593642,22,247,511,0
593653,73,134,511,0
593664,39,54,454,0
593675,-26,50,397,0
593686,-112,110,466,0
593697,-159,71,497,0
593708,-159,58,492,0
593719,-114,34,450,0
593730,-88,85,425,0
593741,-33,36,369,0
593752,-3,9,283,0
593763,-9,20,210,0
593774,-25,-11,184,0
593785,-40,-39,166,0
593796,-56,-36,144,0
593807,-58,-3,99,0
593818,-53,27,83,0
593829,-35,21,73,0
593840,-23,22,40,0
593851,41,-17,-11,0
593862,80,-29,-33,0
593873,112,-28,-53,0
593884,131,-30,-61,0
593895,142,-24,-68,0
593906,163,-24,-53,0
593917,174,-6,-26,1
593928,155,-4,5,0
593939,149,-9,23,0
593950,223,-65,136,0
593961,196,36,208,0
593972,23,185,292,0
593983,-33,95,384,0
593994,-21,43,373,0
594005,-243,-62,414,0
594016,-338,-34,459,0
594027,-254,-7,387,0
594038,-194,-9,286,0
594049,-148,5,282,0
594060,-103,47,330,0
594071,-79,82,404,0
594082,-79,95,451,0
594093,-97,84,454,0
594104,-116,68,434,0
594115,-129,59,379,0
594126,-125,34,327,0
594137,-104,30,294,0
594148,-85,33,275,0
594159,-58,52,281,0
594170,-45,94,292,0
594181,-18,103,284,0
594192,-13,108,275,0
594203,-3,87,232,0
594214,11,74,205,0
594225,22,67,175,0
594236,27,46,129,0
594247,31,21,90,0
594258,34,-4,49,0
594269,48,-34,15,0
594280,52,-29,-13,0
594291,39,-13,-51,1
594302,18,-20,-77,0
594313,2,-22,-82,0
594324,39,0,-80,0
594335,157,89,-92,0
594346,213,140,-99,0
594357,90,12,-15,0
594368,45,-175,110,0
594379,30,-249,213,0
594390,18,-147,290,0
594401,6,17,446,0
594412,-93,83,511,0
594423,-115,193,511,0
594434,4,149,511,0
594445,-6,6,423,0
594456,-77,3,375,0
594467,-159,58,432,0
594478,-160,69,484,0
594489,-142,75,460,0
594500,-110,105,467,0
594511,-84,103,443,0
594522,-56,74,387,0
594533,-29,66,355,0
594544,-9,68,325,0
594555,3,65,300,0
594566,18,50,264,0
594577,28,39,228,0
594588,36,31,198,0
594599,36,38,162,0
594610,38,37,121,0
594621,30,54,42,0
594632,16,42,17,0
594643,15,53,51,0
594654,23,19,19,0
594665,39,10,7,0
594676,53,20,10,0
594687,62,27,14,0
594698,66,12,13,0
594709,55,9,8,0
594720,52,26,9,1
594731,57,4,15,0
594742,72,5,37,0
594753,93,-7,71,0
594764,53,78,64,0
594775,111,-11,123,0
594786,107,8,153,0
594797,103,4,209,0
594808,102,-12,254,0
594819,60,19,254,0
594830,7,18,316,0
594841,5,38,398,0
594852,-18,94,511,0
594863,-46,168,511,0
594874,-50,184,511,0
594885,-54,141,511,0
594896,-73,87,488,0
594907,-77,56,447,0
594918,-89,53,440,0
594929,-129,78,451,0
594940,-117,82,439,0
594951,-92,87,410,0
594962,-75,92,360,0
594973,-51,90,333,0
594984,-28,97,304,0
594995,-34,116,276,0
595006,-34,117,249,0
595017,-32,123,223,0
595028,-23,115,205,0
595039,-19,101,196,0
595050,-13,92,195,0
595061,-3,72,180,0
595072,19,52,163,0
595083,48,68,96,0
595094,63,27,29,0
595105,71,32,-16,1
595116,75,37,-39,0
595127,77,27,-67,0
595138,60,29,-70,0
595149,39,28,-66,0
595160,29,18,-61,0
595171,60,15,-62,0
595182,154,60,-67,0
595193,166,25,-27,0
595204,130,-73,84,0
595215,72,-190,176,0
595226,5,-182,201,0
595237,-146,7,426,0
595248,-235,24,511,0
595259,-140,194,511,0
595270,14,178,511,0
595281,64,57,498,0
595292,43,50,463,0
595303,13,85,473,0
595314,-11,51,452,0
595325,-44,64,422,0
595336,-31,84,480,0
595347,-34,60,431,0
595358,-20,48,414,0
595369,2,58,364,0
595380,18,56,302,0
595391,31,13,238,0
595402,28,-1,212,0
595413,11,-5,191,0
595424,0,14,179,0
595435,1,52,149,0
595446,4,83,142,0
595457,37,81,118,0
595468,75,43,87,0
595479,115,-7,58,0
595490,129,22,30,0
595501,111,21,13,0
595512,111,-11,-11,0
595523,118,-25,-40,1
595534,124,-12,-36,0
595545,109,-24,-22,0
595556,92,-23,-19,0
595567,97,-43,9,0
595578,108,-14,85,0
595589,81,-48,116,0
595600,-4,33,138,0
595611,-52,-5,192,0
595622,-170,-240,414,0
595633,-78,22,435,0
595644,-118,-52,511,0
595655,-138,30,511,0
595666,-71,87,511,0
595677,-28,46,396,0
595688,-24,-14,355,0
595699,-48,15,408,0
595710,-68,36,447,0
595721,-89,61,445,0
595732,-93,61,427,0
595743,-85,50,385,0
595754,-57,37,339,0
595765,-23,34,330,0
595776,3,57,320,0
595787,11,80,315,0
595798,11,89,321,0
595809,13,103,303,0
595820,21,70,273,0
595831,32,23,217,0
595842,14,26,172,0
595853,3,31,77,0
595864,13,16,36,0
595875,25,25,3,0
595886,33,27,-26,0
595897,18,16,-54,1
595908,-9,-18,-84,0
595919,-39,-37,-124,0
595930,-54,-49,-134,0
595941,-59,-39,-105,0
595952,-20,-28,-72,0
595963,81,9,-55,0
595974,134,20,-11,0
595985,135,-28,87,0
595996,121,-72,162,0
596007,59,-26,344,0
596018,-2,51,511,0
596029,-41,97,511,0
596040,31,197,511,0
596051,50,95,511,0
596062,46,50,474,0
596073,16,70,452,0
596084,-26,82,420,0
596095,-50,117,493,0
596106,-56,69,467,0
596117,-66,61,476,0
596128,-72,64,477,0
596139,-64,48,423,0
596150,-73,48,382,0
596161,-78,6,290,0
596172,-57,-18,238,0
596183,-24,-30,205,0
596194,-19,28,135,0
596205,-15,90,101,0
596216,28,82,76,0
596227,79,35,46,0
596238,121,41,-36,0
596249,133,43,-54,0
596260,141,8,-57,0
596271,151,-33,-69,0
596282,155,-27,-78,0
596293,157,-4,-62,1
596304,143,-6,-47,0
596315,121,-21,-15,0
596326,89,-21,-19,0
596337,65,-36,-13,0
596348,126,-117,103,0
596359,131,-48,172,0
596370,53,83,243,0
596381,6,42,276,0
596392,-20,3,270,0
596403,-87,-10,334,0
596414,-113,-47,444,0
596425,-168,-31,511,0
596436,-176,17,511,0
596447,-139,57,504,0
596458,-116,60,476,0
596469,-88,43,451,0
596480,-83,90,498,0
596491,-112,88,473,0
596502,-126,83,462,0
596513,-124,88,431,0
596524,-94,72,379,0
596535,-53,60,335,0
596546,-20,55,315,0
596557,8,69,313,0
596568,8,103,288,0
596579,22,117,285,0
596590,41,88,247,0
596601,38,57,189,0
596612,44,23,156,0
596623,53,-1,130,0
596634,59,13,54,0
596645,58,42,12,0
596656,51,30,-21,0
596667,38,7,-59,0
596678,21,-10,-94,0
596689,17,-26,-115,0
596700,11,-29,-134,0
596711,21,-1,-125,0
596722,34,17,-102,0
596733,89,7,-92,1
596744,179,51,-79,0
596755,173,16,-20,0
596766,102,-171,105,0
596777,77,-250,190,0
596788,-66,53,417,0
596799,-106,68,511,0
596810,-50,154,511,0
596821,27,133,511,0
596832,28,9,511,0
596843,0,38,511,0
596854,-45,77,502,0
596865,-91,96,488,0
596876,-107,135,511,0
596887,-108,111,511,0
596898,-110,97,511,0
596909,-101,76,471,0
596920,-73,55,394,0
596931,-50,33,275,0
596942,-52,8,242,0
596953,-47,-18,203,0
596964,-19,-42,152,0
596975,16,-15,119,0
596986,30,82,80,0
596997,43,106,19,0
597008,69,74,24,0
597019,130,18,-6,0
597030,160,12,-67,0
597041,170,1,-89,0
597052,176,-14,-101,0
597063,185,-38,-103,0
597074,187,-53,-80,0
597085,188,-36,-55,0
597096,130,-51,-39,0
597107,147,-84,-30,1
597118,193,-81,54,0
597129,110,49,180,0
597140,24,130,297,0
597151,-55,44,281,0
597162,-111,-5,301,0
597173,-221,-29,345,0
597184,-167,-108,400,0
597195,-200,-80,467,0
597206,-192,61,477,0
597217,-126,116,460,0
597228,-70,89,448,0
597239,-44,38,425,0
597250,-14,72,493,0
597261,-48,90,510,0
597272,-70,85,474,0
597283,-70,78,435,0
597294,-52,66,396,0
597305,-22,66,383,0
597316,-12,82,386,0
597327,-4,97,372,0
597338,5,107,346,0
597349,23,90,286,0
597360,15,67,239,0
597371,6,30,202,0
597382,-8,5,158,0
597393,-20,8,126,0
597404,-18,6,77,0
597415,-4,37,15,0
597426,5,49,-44,0
597437,6,28,-72,0
597448,-4,-3,-103,0
597459,-13,-20,-133,0
597470,-29,-24,-166,1
597481,-26,-21,-164,0
597492,-4,-30,-138,0
597503,12,-23,-110,0
597514,62,-5,-74,0
597525,190,42,-52,0
597536,221,48,14,0
597547,156,-113,191,0
597558,89,-43,396,0
597569,-1,98,511,0
597580,10,143,511,0
597591,83,191,511,0
597602,92,63,511,0
597613,55,-1,473,0
597624,-7,37,409,0
597635,-54,48,406,0
597646,-102,173,511,0
597657,-128,122,511,0
597668,-132,88,491,0
597679,-118,83,486,0
597690,-99,64,426,0
597701,-99,21,346,0
597712,-104,-15,266,0
597723,-59,-33,252,0
597734,36,-90,230,0
597745,57,32,144,0
597756,20,118,93,0
597767,51,62,60,0
597778,90,34,9,0
597789,98,63,-37,0
597800,113,18,-88,0
597811,129,-45,-91,0
597822,137,-56,-109,0
597833,141,-20,-124,0
597844,137,-10,-82,0
597855,137,-6,-53,1
597866,106,13,-10,0
597877,76,3,12,0
597888,2,28,-2,0
597899,60,-93,67,0
597910,190,-196,227,0
597921,92,148,321,0
597932,43,111,406,0
597943,-2,53,329,0
597954,-150,8,359,0
597965,-213,-32,448,0
597976,-295,13,511,0
597987,-246,37,481,0
597998,-180,76,472,0
598009,-145,70,442,0
598020,-81,103,478,0
598031,-85,103,453,0
598042,-90,92,432,0
598053,-75,89,411,0
598064,-53,63,378,0
598075,-20,53,337,0
598086,0,51,311,0
598097,-6,73,296,0
598108,-10,94,293,0
598119,-24,98,273,0
598130,-25,84,244,0
598141,-30,64,217,0
598152,-9,20,172,0
598163,17,-2,131,0
598174,39,-4,55,0
598185,52,4,21,0
598196,69,5,-15,0
598207,76,-6,-37,0
598218,53,-8,-69,0
598229,19,-22,-100,0
598240,-10,-30,-133,1
598251,-25,-14,-142,0
598262,17,-2,-136,0
598273,103,49,-79,0
598284,122,17,-22,0
598295,99,-44,50,0
598306,67,-116,122,0
598317,69,-101,214,0
598328,5,-8,511,0
598339,-121,91,511,0
598350,29,255,511,0
598361,67,83,511,0
598372,35,24,489,0
598383,-27,67,456,0
598394,-83,100,419,0
598405,-121,76,427,0
598416,-144,44,418,0
598427,-167,56,441,0
598438,-158,68,413,0
598449,-133,52,370,0
598460,-122,43,334,0
598471,-115,18,286,0
598482,-48,-73,239,0
598493,12,-100,181,0
598504,-32,113,165,0
598515,-24,98,133,0
598526,27,49,103,0
598537,73,68,65,0
598548,91,88,12,0
598559,116,61,-38,0
598570,142,-7,-85,0
598581,163,-34,-93,0
598592,174,-13,-107,1
598603,171,3,-97,0
598614,173,-17,-68,0
598625,184,-12,-28,0
598636,147,-22,-1,0
598647,100,-15,5,0
598658,104,-111,36,0
598669,221,-211,231,0
598680,120,89,351,0
598691,36,199,356,0
598702,-24,27,302,0
598713,-156,-25,359,0
598724,-210,-64,426,0
598735,-287,-61,483,0
598746,-234,-1,444,0
598757,-193,57,400,0
598768,-152,64,426,0
598779,-78,57,421,0
598790,-87,104,511,0
598801,-98,92,511,0
598812,-102,81,457,0
598823,-99,60,410,0
598834,-86,58,357,0
598845,-73,34,306,0
598856,-61,33,287,0
598867,-61,61,308,0
598878,-59,94,320,0
598889,-50,137,314,0
598900,-36,152,260,0
598911,-33,136,248,0
598922,4,79,219,0
598933,23,43,197,0
598944,30,13,90,0
598955,33,27,34,0
598966,41,32,-21,0
598977,44,11,-74,0
598988,38,-8,-111,0
598999,28,-10,-137,0
599010,12,-17,-146,0
599021,4,-22,-132,0
599032,18,-10,-108,0
599043,32,-1,-71,0
599054,149,15,-72,1
599065,236,116,-48,0
599076,207,53,67,0
599087,174,-226,234,0
599098,42,-51,420,0
599109,-103,55,511,0
599120,-80,139,511,0
599131,57,156,511,0
599143,61,10,488,0
599154,35,18,443,0
599165,-19,49,429,0
599176,-55,66,481,0
599187,-104,56,422,0
599198,-125,100,503,0
599209,-124,85,482,0
599220,-141,84,470,0
599231,-114,79,436,0
599242,-40,23,297,0
599253,-3,-5,268,0
599264,50,-65,250,0
599275,53,16,174,0
599286,14,96,92,0
599297,4,93,61,0
599308,26,27,75,0
599319,70,3,28,0
599330,90,29,-11,0
599341,101,13,-39,0
599352,109,-14,-50,0
599363,115,-33,-59,0
599374,116,-28,-48,0
599385,110,-1,-31,0
599396,121,-29,4,0
599407,111,-19,-7,1
599418,83,1,-5,0
599429,147,-75,85,0
599440,181,14,206,0
599451,148,57,292,0
599462,46,144,281,0
599473,32,57,278,0
599484,-47,-3,292,0
599495,-75,-34,371,0
599506,-142,-64,421,0
599517,-175,-31,426,0
599528,-143,19,394,0
599539,-108,50,393,0
599550,-41,74,411,0
599561,-53,75,427,0
599572,-76,93,437,0
599583,-106,97,438,0
599594,-114,95,416,0
599605,-109,77,353,0
599616,-97,50,307,0
599627,-68,53,301,0
599638,-43,56,308,0
599649,-37,99,319,0
599660,-23,100,311,0
599671,2,76,286,0
599682,-2,72,229,0
599693,-10,45,220,0
599704,13,-21,163,0
599715,14,-10,122,0
599726,14,4,81,0
599737,28,15,36,0
599748,41,21,-16,0
599759,44,12,-54,0
599770,18,3,-69,0
599781,-5,-11,-87,0
599792,-38,-26,-117,0
599803,-57,-28,-117,0
599814,-50,-20,-90,1
599825,11,-5,-65,0
599836,108,60,-35,0
599847,148,44,6,0
599858,90,-104,172,0
599869,37,-94,223,0
599880,-23,-21,381,0
599891,-69,19,511,0
599902,-45,150,511,0
599913,106,213,511,0
599924,158,30,495,0
599935,138,10,419,0
599946,89,27,386,1
599957,40,123,454,0
599968,11,86,440,0
599979,-21,54,444,0
599990,-52,54,462,0
600001,-60,70,460,0
600012,-69,74,428,0
600023,-80,74,388,0
600034,-97,65,343,0
600045,-105,51,300,0
600056,-91,11,255,0
600067,-54,-46,192,0
600078,-55,18,142,0
600089,-108,67,81,0
600100,-112,8,52,0
600111,-78,-49,42,0
600122,-14,-85,-5,0
600133,37,-61,2,0
600144,78,-32,-3,0
600155,107,-36,-47,0
600166,92,-1,-58,0
600177,106,19,-56,0
600188,95,-25,-38,0
600199,119,-45,-15,0
600210,116,-51,-7,0
600221,115,-87,22,0
600232,103,-44,19,0
600243,92,2,39,1
600254,86,-87,135,0
600265,136,-63,195,0
600276,72,32,342,0
600287,26,94,461,0
600298,-53,141,511,0
600309,-52,99,511,0
600320,-52,-2,438,0
600331,-23,11,385,0
600342,4,6,360,0
600353,31,5,342,0
600364,65,4,361,0
600375,85,32,398,1
600386,54,57,443,0
600397,12,73,453,0
600408,-30,79,436,0
600419,-79,78,413,0
600430,-116,88,394,0
600441,-139,68,355,0
600452,-150,66,328,0
600463,-143,55,305,0
600474,-99,57,271,0
600485,-79,50,259,0
600496,-56,50,239,0
600507,-32,40,225,0
600518,-12,34,189,0
600529,2,28,154,0
600540,11,14,130,0
600551,28,0,106,0
600562,47,-15,76,0
600573,59,-17,39,0
600584,61,-20,-12,1
600595,46,-23,-54,0
600606,20,-22,-77,0
600617,0,-16,-88,0
600628,-1,-25,-76,0
600639,30,-23,-55,0
600650,97,-21,-39,0
600661,122,-60,1,0
600672,71,-82,73,0
600683,17,-139,146,0
600694,11,-84,212,0
600705,-76,8,370,0
600716,-105,51,511,0
600727,-141,168,511,0
600738,-3,171,511,0
600749,59,2,511,0
600760,60,-19,504,0
600771,7,50,490,0
600782,-115,40,472,0
600793,-139,42,473,0
600804,-149,46,465,0
600815,-140,44,440,0
600826,-123,28,393,0
600838,-102,14,371,0
600849,-59,-46,321,0
600860,-32,-33,229,0
600871,-43,-6,166,0
600882,-47,-10,124,0
600893,-36,-21,89,0
600904,-19,-14,66,0
600915,8,1,46,0
600926,72,-2,5,0
600937,89,-18,-19,0
600948,98,-36,-29,0
600959,112,-33,-37,0
600970,115,-8,-32,0
600981,110,1,-28,0
600992,103,-14,-20,0
601003,91,-14,-5,0
601014,72,4,7,1
601025,42,26,35,0
601036,24,14,29,0
601047,80,-51,41,0
601058,193,-160,149,0
601069,164,141,134,0
601080,69,46,196,0
601091,43,65,280,0
601102,-4,16,430,0
601113,-73,61,511,0
601124,-133,82,511,0
601135,-141,27,511,0
601146,-109,21,430,0
601157,-73,-4,409,0
601168,-65,22,441,0
601179,-72,49,470,0
601190,-79,59,486,0
601201,-91,66,466,0
601212,-118,68,428,0
601224,-129,64,340,0
601235,-112,56,310,0
601246,-91,53,288,0
601257,-69,37,265,0
601268,-41,48,278,0
601279,-19,83,313,0
601290,-25,106,349,0
601301,-35,85,323,0
601312,-49,94,326,0
601323,-55,66,268,0
601334,-50,22,183,0
601345,-45,10,99,0
601356,-46,21,28,0
601367,-37,8,-20,0
601378,-7,-26,-76,0
601389,-7,-34,-88,0
601400,-19,-37,-83,0
601411,-36,-47,-69,0
601422,-36,-47,-76,1
601433,-27,-38,-80,0
601444,12,-15,-65,0
601455,132,11,-64,0
601466,183,64,-33,0
601477,175,-26,32,0
601488,109,-163,143,0
601499,45,-197,199,0
601510,1,-112,248,0
601521,-25,38,479,0
601532,84,275,511,0
601543,130,152,511,0
601554,108,50,450,0
601565,53,35,385,0
601576,-1,44,387,0
601587,-69,83,457,0
601598,-96,61,446,0
601609,-104,72,468,0
601620,-95,81,459,0
601631,-73,75,414,0
601642,-51,77,363,0
601653,-40,69,307,0
601664,-44,56,254,0
601675,-56,38,216,0
601686,-93,-51,157,0
601697,-70,-97,155,0
601708,-25,-151,123,0
601719,-30,29,71,0
601730,-19,15,59,0
601741,58,-49,37,0
601752,100,-60,12,0
601763,119,-48,-17,0
601774,124,-19,-30,0
601785,109,20,-39,0
601796,87,50,-73,0
601807,63,65,-76,0
601818,54,61,-58,1
601829,73,-5,-31,0
601840,110,-67,32,0
601851,161,-116,82,0
601862,65,169,67,0
601873,65,-10,202,0
601884,105,20,278,0
601895,179,-144,504,0
601906,149,129,511,0
601917,45,224,511,0
601928,-36,52,511,0
601939,-12,-17,378,0
601950,2,-7,279,0
601961,-11,-21,265,0
601972,-4,20,291,0
601983,28,49,347,0
601994,48,152,489,0
602005,61,140,484,0
602016,38,122,449,0
602027,17,104,398,0
602038,3,94,371,0
602049,-2,75,348,0
602060,-3,65,327,0
602071,-7,60,312,0
602082,-10,50,273,0
602093,-2,53,258,0
602104,7,56,225,0
602115,13,50,194,0
602126,15,58,186,0
602137,14,53,151,0
602148,25,57,92,0
602159,31,57,61,0
602170,40,47,30,0
602181,50,43,9,0
602192,53,46,1,0
602203,58,54,1,1
602214,66,63,9,0
602225,63,66,21,0
602236,65,65,31,0
602247,57,59,36,0
602258,42,44,41,0
602269,31,36,48,0
602280,26,52,50,0
602291,9,82,65,0
602302,-21,11,157,0
602313,-40,-30,256,0
602324,-66,-30,335,0
602335,-107,-13,397,0
602346,-157,-5,448,0
602357,-193,3,502,0
602368,-209,5,511,0
602379,-188,20,511,0
602390,-157,33,511,0
602401,-125,34,511,0
602412,-97,50,503,0
602423,-74,37,451,0
602434,-62,64,489,0
602445,-64,39,438,0
602456,-51,-27,313,0
602467,-38,-19,285,0
602478,-29,11,281,0
602489,-9,-3,238,0
602500,-1,8,248,0
602511,-11,5,244,0
602522,-9,-7,217,0
602533,15,-33,197,0
602544,49,-62,145,0
602555,44,-17,86,0
602566,17,27,40,0
602577,27,-56,14,0
602588,45,-89,-25,0
602599,51,-55,-21,0
602610,51,-32,-19,0
602621,62,-20,-76,0
602632,54,29,-88,1
602643,40,38,-72,0
602654,43,26,-48,0
602665,73,19,-31,0
602676,79,35,6,0
602687,102,51,47,0
602698,105,81,114,0
602709,109,52,186,0
602720,121,86,280,0
602731,163,46,389,0
602742,182,14,454,0
602753,147,36,481,0
602764,85,84,509,0
602775,6,95,394,0
602786,-75,127,346,0
602797,-164,108,338,0
602808,-198,117,400,0
602819,-192,123,478,0
602830,-193,134,511,0
602841,-183,129,511,0
602852,-156,120,488,0
602863,-102,127,496,0
602874,-54,117,462,0
602885,-15,115,424,0
602896,11,106,395,0
602907,29,101,388,0
602918,39,121,383,0
602929,-30,73,303,0
602940,-69,88,302,0
602951,-99,74,268,0
602962,-81,43,243,0
602973,-78,34,200,0
602984,-96,14,162,0
602995,-77,-3,109,0
603006,-77,16,66,0
603017,-69,7,36,1
603028,-53,-2,8,0
603039,-43,-20,-25,0
603050,-25,-44,-35,0
603061,-7,-40,-35,0
603072,5,-33,-34,0
603083,23,-36,-19,0
603094,53,-21,-16,0
603105,81,11,-18,0
603116,201,77,-31,0
603127,215,69,32,0
603138,138,-85,157,0
603149,107,-198,219,0
603160,-2,-78,200,0
603171,-113,11,256,0
603182,-128,38,403,0
603193,-74,60,511,0
603204,17,116,511,0
603215,70,111,511,0
603226,62,94,511,0
603237,-33,124,469,0
603248,-97,113,453,0
603259,-161,102,455,0
603270,-197,90,460,0
603281,-205,91,464,0
603292,-203,95,446,0
603303,-165,64,400,0
603314,-110,30,362,0
603325,-44,2,306,0
603336,-38,62,206,0
603347,-56,40,114,0
603358,-55,-10,78,0
603369,-53,-30,66,0
603380,-30,-52,53,0
603391,43,-10,28,0
603402,69,-2,8,0
603413,93,11,7,0
603425,111,-12,1,0
603436,138,-40,-11,0
603447,161,-21,-28,0
603458,174,3,-38,0
603469,154,16,-40,1
603480,126,16,-22,0
603491,147,-5,30,0
603502,208,-62,96,0
603513,217,-29,141,0
603524,105,40,138,0
603535,91,-54,159,0
603546,19,-60,257,0
603557,-78,3,403,0
603568,-194,24,511,0
603579,-268,46,511,0
603590,-188,83,511,0
603601,-131,52,460,1
603612,-73,22,405,0
603624,-56,18,364,0
603635,-63,44,369,0
603646,-83,63,393,0
603657,-100,67,406,0
603668,-83,61,361,0
603679,-67,46,328,0
603690,-52,62,340,0
603701,-50,85,340,0
603712,-48,89,349,0
603724,-34,59,308,0
603735,-26,51,293,0
603746,-27,50,269,0
603757,-11,28,231,0
603768,8,10,174,0
603779,15,29,132,0
603790,19,43,80,0
603801,61,9,-19,0
603812,70,-8,-58,1
603824,62,-4,-64,0
603835,49,-24,-78,0
603846,25,-35,-81,0
603857,4,-34,-66,0
603868,-1,-19,-62,0
603879,23,-5,-59,0
603890,102,30,-63,0
603901,156,108,-49,0
603912,118,2,28,0
603924,52,-204,189,1
603935,-11,-90,288,0
603946,-94,18,489,0
603957,-142,26,511,0
603968,-94,144,511,0
603979,14,129,511,0
603990,33,38,510,0
604001,7,43,494,0
604012,-44,63,495,0
604023,-67,57,437,0
604034,-91,122,511,0
604045,-84,96,495,0
604056,-73,65,451,0
604067,-75,47,415,0
604078,-63,38,346,0
604089,8,-11,249,0
604100,37,-34,176,0
604111,32,30,126,0
604122,2,59,73,0
604133,0,52,55,0
604144,24,5,82,0
604155,76,-40,43,0
604166,108,34,-14,0
604177,112,42,-19,0
604188,130,-19,-25,0
604199,167,-23,-34,0
604210,176,14,-29,0
604221,175,-8,-2,0
604232,199,-24,7,0
604243,167,-16,-10,1
604254,97,33,0,0
604265,65,8,39,0
604276,130,-41,188,0
604287,95,23,238,0
604298,0,116,293,0
604309,-15,-2,312,0
604320,-85,19,364,0
604331,-178,-40,485,0
604342,-203,-27,501,0
604353,-108,-19,425,0
604364,-65,-18,353,1
604375,-63,2,372,0
604386,-68,26,414,0
604397,-116,93,511,0
604408,-149,111,511,0
604419,-166,111,510,0
604430,-169,104,449,0
604441,-149,62,372,0
604452,-111,46,327,0
604463,-81,48,309,0
604474,-55,63,308,0
604485,-35,106,319,0
604496,-17,110,294,0
604507,4,97,267,0
604518,25,64,217,0
604529,46,33,170,0
604540,60,24,127,0
604551,69,38,47,0
604562,73,35,1,0
604573,78,4,-30,0
604584,55,-3,-62,0
604595,23,-17,-94,0
604606,-14,-26,-127,0
604617,-40,-34,-117,0
604628,-45,-31,-107,0
604639,-30,-4,-94,0
604650,37,29,-86,0
604661,137,93,-74,0
604672,141,39,-26,0
604683,112,-126,90,0
604694,62,-182,181,1
604705,-40,31,414,0
604716,-79,112,511,0
604727,-10,152,511,0
604738,73,141,511,0
604749,90,28,511,0
604760,79,18,511,0
604771,45,82,511,0
604782,9,106,511,0
604793,-31,64,496,0
604804,-37,150,511,0
604815,-44,93,511,0
604826,-45,73,506,0
604837,-31,68,449,0
604848,-26,56,373,0
604859,-31,-7,267,0
604870,-1,-49,215,0
604881,29,-33,159,0
604892,17,37,93,0
604903,6,60,68,0
604915,39,12,67,0
604926,94,-14,27,0
604937,120,39,-38,0
604948,123,28,-83,0
604959,117,-22,-101,0
604970,115,-54,-97,0
604981,109,-26,-115,0
604992,76,-27,-70,0
605003,67,-24,-38,0
605014,56,-14,-15,0
605025,33,-4,-3,0
605036,1,-20,40,0
605047,-8,-38,56,0
605058,104,-164,201,0
605069,148,-34,374,1
605080,20,299,473,0
605091,46,103,493,0
605102,54,60,370,0
605113,-6,-46,315,0
605124,-7,-61,334,0
605135,-31,-90,307,0
605146,-87,-42,270,0
605157,-78,4,332,1
605168,-57,42,417,0
605179,-31,92,491,0
605190,-41,124,511,0
605201,-64,122,510,0
605212,-104,104,465,0
605223,-143,95,414,0
605234,-137,82,359,0
605245,-108,57,295,0
605256,-79,39,258,0
605267,-51,37,260,0
605278,-18,67,291,0
605289,-13,98,300,0
605300,-16,76,236,0
605311,-1,21,205,0
605322,16,-11,188,0
605333,29,-16,150,0
605344,27,2,108,0
605355,31,-1,47,0
605366,40,-9,-2,0
605377,36,-15,-47,0
605388,15,-32,-81,0
605399,-9,-49,-113,0
605410,-36,-63,-140,1
605422,-45,-65,-138,0
605433,-43,-44,-114,0
605444,62,0,-65,0
605455,177,59,-45,0
605466,179,35,38,0
605477,130,-158,164,0
605488,108,-213,263,0
605499,12,-37,318,0
605510,-56,143,511,0
605521,-48,213,511,0
605532,105,254,511,0
605543,168,18,511,0
605554,166,-43,461,0
605565,127,69,491,0
605576,89,83,472,0
605587,23,60,458,0
605598,-92,103,491,0
605609,-124,98,487,0
605620,-141,90,442,0
605631,-124,63,393,0
605642,-78,18,335,0
605653,-48,2,275,0
605664,-44,6,192,0
605675,-71,22,130,0
605686,-86,-18,79,0
605697,-73,-48,45,0
605708,-45,-47,19,0
605719,2,-33,35,0
605730,47,-6,31,0
605741,79,2,9,0
605752,98,-17,-26,0
605763,109,-50,-58,0
605774,111,-50,-67,0
605785,112,-29,-67,0
605796,104,-1,-49,1
605807,90,13,-32,0
605818,69,9,17,0
605829,57,-31,48,0
605840,104,-102,44,0
605851,201,-227,236,0
605862,216,61,222,0
605873,37,175,296,0
605884,46,121,284,0
605895,-56,118,511,0
605906,-104,91,511,0
605917,-128,73,511,0
605928,-99,2,385,0
605939,-62,17,335,0
605950,3,26,389,0
605961,37,55,427,0
605972,37,62,448,0
605983,8,65,446,0
605994,-30,60,436,0
606005,-62,58,416,0
606016,-99,57,388,0
606027,-118,53,359,0
606038,-112,40,327,0
606049,-85,23,286,0
606060,-52,38,297,0
606071,-17,35,284,0
606082,14,28,264,0
606093,34,18,224,0
606104,38,25,202,0
606115,42,11,152,0
606126,34,-1,97,0
606137,25,-3,49,0
606148,27,-19,13,0
606159,30,-34,-28,0
606170,29,-39,-73,1
606181,17,-42,-106,0
606192,-3,-55,-133,0
606203,-30,-32,-129,0
606214,-36,-10,-98,0
606225,0,-10,-69,0
606236,88,20,-37,0
606247,119,-4,24,0
606258,63,-84,128,0
606269,68,-109,239,0
606280,8,-41,272,0
606291,-56,51,477,0
606302,-146,80,511,0
606313,-59,271,511,0
606324,25,114,511,0
606335,36,36,511,0
606346,19,73,511,0
606357,-39,111,511,0
606368,-84,115,511,0
606379,-110,107,511,0
606390,-112,89,480,0
606401,-103,89,433,0
606413,-102,103,394,0
606424,-100,64,333,0
606435,-112,13,289,0
606446,-110,-66,248,0
606457,-79,-140,184,0
606468,-93,-37,101,0
606479,-83,-34,49,0
606490,-38,-15,45,0
606501,64,7,0,0
606512,103,20,-24,0
606523,118,16,-43,0
606534,126,-5,-70,0
606545,130,-22,-65,0
606556,133,-25,-79,0
606567,125,-12,-101,0
606578,112,-23,-103,0
606589,105,-46,-60,1
606600,103,-14,-9,0
606611,79,10,32,0
606622,101,-61,68,0
606633,182,-155,176,0
606644,130,48,218,0
606655,8,125,257,0
606666,-19,68,357,0
606677,-53,53,511,0
606688,-80,50,511,0
606699,-117,45,511,0
606710,-67,-6,427,0
606721,-18,-4,400,1
606732,7,25,449,0
606743,21,41,480,0
606754,8,63,506,0
606765,-20,60,470,0
606776,-49,56,425,0
606787,-82,61,396,0
606798,-111,48,359,0
606809,-105,52,333,0
606820,-109,57,329,0
606831,-88,42,328,0
606842,-66,50,320,0
606853,-47,25,274,0
606864,-54,27,220,0
606875,-37,-7,180,0
606886,0,-22,169,0
606897,17,-5,117,0
606908,23,-12,60,0
606919,40,-12,7,0
606930,65,2,-38,0
606941,70,0,-79,0
606952,50,-16,-112,0
606963,25,-43,-142,1
606974,27,-32,-134,0
606985,19,-18,-109,0
606996,78,-35,-87,0
607007,110,-9,-51,0
607018,102,-70,20,0
607029,56,-145,103,0
607040,18,-123,175,0
607051,-27,-25,225,0
607062,-46,82,482,0
607073,-90,117,511,0
607084,6,273,511,0
607095,129,135,511,0
607106,126,25,511,0
607117,22,36,426,0
607128,-38,106,511,0
607139,-75,89,511,0
607150,-116,111,511,0
607161,-132,119,507,0
607172,-111,76,435,0
607183,-116,81,400,0
607194,-105,13,345,0
607205,-59,-116,278,0
607216,-56,-39,191,0
607227,-97,21,108,0
607238,-101,-4,71,0
607249,-65,-39,42,0
607260,19,-8,-19,0
607271,55,14,-51,0
607282,65,6,-69,0
607293,68,-21,-96,0
607304,75,-24,-108,0
607315,81,-13,-106,0
607326,86,-15,-104,0
607337,97,-25,-87,0
607348,114,-34,-64,1
607359,118,-24,-49,0
607370,79,3,17,0
607381,40,14,45,0
607392,79,-60,62,0
607403,231,-252,278,0
607414,-18,221,454,0
607425,-6,87,400,0
607436,-89,97,489,0
607447,-97,44,480,0
607458,-149,-47,377,0
607469,-130,-89,329,0
607480,-54,-45,340,0
607491,-58,-12,427,1
607502,-26,65,507,0
607513,5,94,511,0
607524,9,110,511,0
607535,-27,100,479,0
607546,-51,85,438,0
607557,-81,74,406,0
607568,-105,55,333,0
607579,-82,39,325,0
607590,-71,32,305,0
607601,-51,34,297,0
607612,-25,49,292,0
607623,-27,83,304,0
607634,-44,94,318,0
607645,-25,52,297,0
607656,-1,5,238,0
607667,3,-2,163,0
607678,4,9,78,1
607689,20,6,10,0
607700,31,-11,-52,0
607711,15,-30,-92,0
607722,-8,-50,-111,0
607733,-9,-61,-126,0
607744,-10,-47,-125,0
607755,-5,-11,-105,0
607766,8,14,-75,0
607777,72,18,-55,0
607788,172,64,-30,0
607799,180,23,25,0
607810,112,-133,121,1
607821,77,-188,220,0
607832,54,-61,268,0
607843,-17,70,502,0
607854,-75,80,511,0
607865,9,204,511,0
607876,24,-16,492,0
607887,-28,50,507,0
607898,-86,88,489,0
607909,-128,123,511,0
607920,-166,109,505,0
607931,-182,111,511,0
607942,-165,81,482,0
607953,-124,46,435,0
607964,-71,27,387,0
607975,-28,14,318,0
607986,-13,21,247,0
607997,-1,24,194,0
608008,-4,46,145,0
608019,-21,26,87,0
608030,1,14,60,0
608041,20,23,30,0
608052,40,8,-21,0
608063,58,-1,-24,0
608074,90,-13,-42,0
608085,123,-28,-69,0
608096,144,-37,-81,0
608107,129,-21,-63,1
608118,131,1,-60,0
608129,146,-1,-26,0
608140,162,-18,6,0
608151,169,-17,1,0
608162,149,-9,15,0
608173,161,-1,71,0
608184,123,157,264,0
608195,45,106,327,0
608206,43,20,266,0
608217,-58,5,277,0
608228,-102,-45,364,0
608239,-202,-40,406,0
608250,-258,-45,460,0
608261,-237,33,431,0
608272,-174,74,469,0
608283,-110,103,482,0
608294,-100,125,491,0
608305,-119,129,490,0
608316,-148,106,477,0
608327,-178,101,482,0
608338,-181,61,398,0
608349,-151,47,340,0
608360,-111,27,276,0
608371,-67,19,240,0
608382,-26,32,233,0
608393,5,65,253,0
608404,30,116,253,0
608415,38,127,230,0
608426,48,114,238,0
608437,66,89,212,0
608448,59,66,174,0
608459,53,43,133,1
608470,35,27,78,0
608481,27,12,40,0
608492,39,-19,-19,0
608503,32,-5,-54,0
608514,18,-2,-89,0
608525,2,9,-101,0
608536,-6,2,-105,0
608547,0,-7,-107,0
608558,93,20,-118,0
608569,153,65,-92,0
608580,107,-26,-5,0
608591,42,-157,86,0
608602,-10,-179,142,0
608613,-1,-57,233,0
608624,-46,34,429,0
608635,-71,22,511,0
608646,16,190,511,0
608657,59,57,489,0
608668,33,34,435,0
608679,-20,60,421,0
608690,-72,70,416,0
608701,-94,94,478,0
608712,-100,54,439,0
608723,-107,66,443,0
608734,-103,75,421,0
608745,-86,65,382,0
608756,-61,55,336,0
608767,-38,45,284,0
608778,-21,36,247,0
608789,-5,11,220,0
608800,23,35,110,0
608811,-15,101,56,0
608822,-12,54,24,0
608833,60,-82,-5,0
608844,105,-43,-45,0
608855,123,-2,-48,0
608866,143,8,-44,0
608877,161,20,-46,0
608888,186,32,-49,0
608899,194,53,-9,0
608910,230,18,42,0
608921,220,24,87,0
608932,266,-20,-1,0
608943,289,-52,53,0
608954,84,99,329,1
608965,-79,97,241,0
608976,-78,-24,184,0
608987,-122,-82,195,0
608998,-195,-94,280,0
609009,-278,-143,412,0
609020,-304,-66,490,0
609031,-167,30,455,0
609042,-78,50,426,0
609053,-33,66,476,0
609064,-15,71,470,0
609075,-64,72,474,0
609086,-109,64,474,0
609097,-159,57,463,0
609108,-159,42,408,0
609119,-130,36,358,0
609130,-98,36,317,0
609141,-62,44,296,0
609152,-28,51,269,0
609163,-5,84,269,0
609174,4,131,279,0
609185,6,133,265,0
609197,23,104,216,0
609208,22,114,230,0
609219,29,76,207,0
609230,38,53,177,0
609241,49,47,130,0
609252,47,57,40,0
609263,58,13,-7,0
609274,54,6,-53,0
609285,32,16,-96,0
609296,14,5,-108,0
609307,2,-9,-96,0
609318,6,-22,-92,0
609329,22,-10,-90,1
609340,70,1,-97,0
609351,233,89,-90,0
609362,266,128,-55,0
609373,138,-131,150,0
609385,-18,-291,366,0
609396,-200,33,511,0
609407,-299,167,511,0
609418,-104,231,511,0
609429,-5,57,511,0
609440,8,-25,433,0
609451,-42,33,427,0
609462,-124,89,431,0
609473,-159,79,499,0
609484,-190,49,396,0
609496,-164,129,511,0
609507,-135,124,506,0
609518,-104,118,467,0
609529,-41,87,331,0
609540,-15,69,283,0
609551,-1,51,238,0
609562,9,56,215,0
609573,5,48,172,0
609584,6,23,122,0
609596,37,4,93,0
609607,95,1,67,0
609618,140,21,72,0
609629,177,11,29,0
609640,194,4,-25,0
609651,197,28,-22,0
609662,232,-10,26,0
609673,199,3,31,0
609684,173,7,27,0
609695,140,7,-16,0
609706,66,20,-43,0
609717,-19,18,-71,0
609728,-64,6,-88,0
609739,-65,-66,-79,0
609750,-12,-177,-47,0
609761,84,-132,163,1
609772,70,55,335,0
609783,-7,238,511,0
609794,33,148,511,0
609805,-8,56,511,0
609816,-53,-110,381,0
609827,-103,-34,363,0
609838,-175,0,317,0
609849,-148,-14,328,0
609860,-143,-26,355,0
609871,-99,-3,405,0
609882,-130,63,500,0
609894,-148,88,511,0
609905,-178,95,511,0
609916,-203,96,482,0
609927,-199,79,398,0
609938,-176,56,326,0
609949,-142,35,279,0
609960,-44,62,282,0
609971,-2,99,279,0
609982,16,126,290,0
609993,48,118,276,0
610004,61,103,241,0
610015,67,87,204,0
610026,63,78,168,0
610037,61,53,136,0
610048,61,32,98,0
610059,63,32,66,0
610070,67,27,16,0
610081,51,21,-42,0
610092,17,14,-90,0
610103,-18,1,-113,0
610114,-28,-18,-101,0
610125,1,-15,-89,1
610136,105,7,-83,0
610147,156,11,-66,0
610158,140,-40,16,0
610169,122,-109,111,0
610180,69,-125,196,0
610191,33,-59,277,0
610202,-35,34,464,0
610213,-91,42,511,0
610224,-60,103,511,0
610235,8,81,511,0
610246,24,6,462,0
610257,0,41,492,0
610268,-80,129,511,1
610279,-89,182,511,0
610290,-92,133,511,0
610301,-100,98,490,0
610312,-89,92,465,0
610323,-73,62,394,0
610334,-52,45,332,0
610345,-21,21,280,0
610356,6,-44,228,0
610367,46,-85,177,0
610378,30,-9,116,0
610389,-17,57,12,0
610400,-10,46,30,0
610411,53,-7,47,0
610422,143,48,-45,0
610433,151,41,-68,0
610444,159,28,-79,0
610455,174,14,-57,0
610466,182,12,-50,0
610477,181,29,-39,0
610488,184,-30,-19,0
610499,180,-52,-29,1
610510,181,-69,-13,0
610521,216,-88,101,0
610532,175,42,225,0
610543,83,58,260,0
610554,-21,80,228,0
610565,-132,53,249,0
610576,-228,-122,502,0
610587,-306,-36,511,0
610598,-186,51,447,0
610609,-92,37,390,0
610620,-52,22,399,0
610631,-3,28,440,0
610642,4,50,463,0
610653,-21,52,472,1
610664,-51,51,441,0
610675,-71,49,409,0
610686,-71,48,379,0
610697,-63,40,341,0
610708,-42,40,316,0
610719,-29,78,325,0
610730,-19,99,336,0
610741,-4,112,309,0
610752,4,108,256,0
610763,10,71,200,0
610774,9,36,149,0
610785,14,11,133,0
610796,14,7,114,0
610807,16,1,77,0
610818,19,18,39,0
610829,25,32,-6,0
610840,28,26,-34,0
610851,34,15,-81,0
610862,29,6,-113,1
610873,13,-22,-128,0
610884,30,-30,-110,0
610895,108,6,-107,0
610906,138,-2,-74,0
610917,78,-60,33,0
610928,62,-125,132,0
610939,50,-99,223,0
610950,48,-16,348,0
610961,-36,66,511,0
610972,-141,101,511,0
610984,58,204,511,0
610995,150,64,511,0
611006,127,12,459,1
611017,1,73,437,0
611028,-41,48,391,0
611039,-87,163,511,0
611050,-84,94,511,0
611061,-87,91,511,0
611072,-83,88,478,0
611083,-76,55,395,0
611094,-75,30,324,0
611105,-58,0,275,0
611116,-23,-44,237,0
611127,17,-66,194,0
611138,20,28,148,0
611149,10,69,110,0
611160,32,67,58,0
611171,115,4,-4,0
611182,140,13,-51,0
611194,131,23,-83,0
611205,118,-16,-97,0
611216,120,-57,-115,0
611227,135,-57,-103,0
611238,135,-22,-91,0
611249,125,-9,-49,1
611260,126,-48,-13,0
611271,118,-39,-37,0
611282,86,-18,-18,0
611293,44,-15,-7,0
611304,149,35,269,0
611315,10,139,362,0
611326,-59,117,385,0
611337,-144,41,345,0
611348,-157,-50,448,0
611359,-220,-70,486,0
611370,-208,-19,449,0
611381,-126,26,405,0
611393,-95,55,425,0
611404,-69,69,427,0
611415,-47,122,488,0
611426,-47,118,493,0
611437,-72,112,490,0
611448,-118,102,481,0
611459,-106,73,418,0
611470,-76,63,348,0
611481,-41,48,290,0
611492,-28,41,262,0
611503,-17,65,253,0
611514,2,83,248,0
611525,10,93,244,0
611536,8,74,201,0
611547,19,51,186,0
611558,46,18,175,0
611569,54,21,146,0
611580,54,28,97,0
611592,52,29,22,0
611603,52,-3,-30,0
611614,31,-18,-72,0
611625,0,-30,-94,0
611636,-36,-56,-119,0
611647,-54,-60,-125,1
611658,-47,-40,-110,0
611669,16,-32,-103,0
611680,98,3,-67,0
611691,147,-18,-6,0
611702,116,-68,89,0
611713,76,-114,163,0
611724,49,-82,229,0
611735,-39,28,511,0
611746,-58,134,511,0
611757,60,212,511,0
611768,89,49,511,0
611779,56,29,484,0
611790,1,53,436,0
611801,-18,56,415,0
611812,-37,102,504,0
611823,-41,57,447,0
611834,-66,60,449,0
611845,-88,63,435,0
611856,-85,47,397,0
611867,-71,-7,348,0
611878,-38,-85,296,0
611889,-62,30,240,0
611900,-76,26,126,0
611911,-26,19,81,0
611922,12,13,48,0
611933,45,34,59,0
611944,69,14,23,0
611955,69,3,-30,0
611966,65,-15,-65,0
611977,77,-25,-81,0
611988,94,-26,-83,0
611999,100,-25,-84,0
612010,109,-24,-69,0
612021,107,-14,-44,0
612032,105,-21,-13,0
612043,115,-74,-3,1
612054,214,-179,157,0
612065,197,40,284,0
612076,81,142,343,0
612087,6,143,350,0
612098,-46,78,371,0
612109,-106,20,428,0
612120,-155,-11,444,0
612131,-207,-32,401,0
612142,-187,-21,357,0
612153,-166,-3,341,0
612164,-113,23,385,0
612175,-77,62,441,0
612186,-55,97,483,0
612197,-85,101,466,0
612208,-113,98,421,0
612219,-128,83,356,0
612230,-131,65,312,0
612241,-110,52,288,0
612252,-78,45,295,0
612263,-51,54,345,0
612274,-14,72,322,0
612285,6,93,298,0
612296,5,97,262,0
612307,15,53,210,0
612318,37,4,191,0
612329,51,2,175,0
612340,39,0,130,0
612351,37,-35,32,0
612362,38,-24,-8,0
612373,31,-10,-56,0
612384,6,-8,-85,0
612395,-5,-34,-100,1
612406,-9,-44,-123,0
612417,-45,-29,-114,0
612428,0,-6,-101,0
612439,92,46,-72,0
612450,102,49,-14,0
612461,69,-62,92,0
612472,46,-188,209,0
612483,35,-118,248,0
612494,-23,29,425,0
612505,-7,122,511,0
612516,101,127,511,0
612527,92,-16,511,0
612538,41,-30,423,0
612549,-23,67,452,0
612560,-44,69,434,0
612571,-66,52,442,0
612582,-73,56,448,0
612593,-57,53,429,0
612604,-25,51,401,0
612615,-3,56,343,0
612626,4,53,279,0
612637,12,39,237,0
612648,25,29,221,0
612659,60,43,175,0
612670,65,41,158,0
612681,66,40,106,0
612692,58,27,61,0
612703,48,-2,20,0
612714,43,-31,-11,0
612725,32,-32,-45,0
612736,30,-43,-64,0
612747,30,-55,-64,0
612758,33,-56,-64,0
612769,35,-33,-56,0
612781,35,-5,-30,1
612792,42,-2,-9,0
612803,38,-19,21,0
612814,-15,23,-2,0
612825,117,-89,72,0
612836,235,-57,284,0
612847,116,184,385,0
612858,95,71,511,0
612869,69,88,325,0
612880,-67,50,334,0
612891,-105,17,356,0
612902,-188,-49,397,0
612913,-253,18,432,0
612924,-242,89,415,0
612935,-159,96,460,0
612946,-70,101,474,0
612957,0,86,476,0
612968,-7,68,431,0
612979,-27,38,400,0
612991,-47,26,370,0
613002,-66,31,322,0
613013,-66,17,266,0
613024,-53,16,225,0
613035,-40,32,199,0
613046,-29,60,195,0
613057,-9,72,188,0
613068,9,79,213,0
613079,24,112,274,0
613090,45,88,323,0
613101,25,93,286,0
613112,-5,80,203,0
613123,-12,37,122,0
613134,-15,9,67,0
613145,-17,-8,17,0
613156,-18,-26,-21,0
613167,-26,-35,-47,0
613178,-39,-34,-59,1
613189,-40,-42,-80,0
613200,-24,-33,-84,0
613211,-11,-2,-82,0
613222,88,44,-84,0
613233,162,104,-56,0
613244,133,-217,185,0
613255,111,-196,239,0
613266,66,-67,273,0
613277,-10,43,422,0
613288,-71,56,511,0
613299,-110,92,511,1
613310,-73,141,511,0
613321,-41,86,497,0
613332,-54,59,427,0
613343,-78,80,419,0
613354,-94,108,434,0
613365,-114,118,439,0
613376,-134,132,455,0
613387,-98,104,436,0
613399,-64,81,377,0
613410,-19,57,318,0
613421,42,26,279,0
613432,92,-18,233,0
613443,54,48,173,0
613454,-10,76,124,0
613465,-22,28,88,0
613476,-15,9,89,0
613487,-1,7,61,0
613498,22,10,28,0
613509,54,-13,20,0
613520,71,-19,-5,0
613531,92,-22,0,0
613542,118,-8,-3,0
613553,132,2,2,0
613564,130,-12,26,1
613575,144,-41,56,0
613586,165,-62,63,0
613597,193,-54,154,0
613608,143,-10,220,0
613619,72,81,192,0
613630,30,29,165,0
613641,10,-28,185,0
613652,-48,-15,234,0
613663,-54,-30,363,0
613674,-121,22,464,0
613685,-189,67,511,0
613696,-70,97,422,0
613707,-25,73,420,0
613718,-9,51,444,0
613729,-11,59,466,0
613740,-24,56,467,0
613751,-49,57,453,0
613762,-71,38,408,0
613773,-71,22,347,0
613784,-53,16,300,0
613795,-46,25,284,0
613806,-37,48,291,0
613817,-20,71,284,0
613828,-25,112,264,0
613839,-6,83,239,0
613850,40,47,199,0
613861,61,22,181,0
613872,64,18,139,0
613883,61,24,109,0
613894,53,21,79,0
613905,49,5,50,0
613916,35,2,13,0
613927,22,12,-35,1
613938,5,17,-68,0
613949,-8,13,-87,0
613960,-25,11,-86,0
613971,33,11,-108,0
613982,111,48,-113,0
613993,122,12,-50,0
614004,79,-158,158,0
614015,49,-126,197,0
614026,-18,-55,316,0
614037,-95,21,511,0
614048,-142,89,511,0
614059,-67,188,511,0
614070,23,100,511,0
614081,39,3,448,0
614092,21,18,427,0
614103,-9,57,415,0
614114,-24,20,355,0
614125,-40,67,461,0
614136,-38,37,431,0
614147,-45,34,420,0
614158,-33,35,336,0
614169,-28,29,278,0
614180,-41,24,240,0
614191,-50,5,214,0
614202,-57,-11,189,0
614213,-50,-28,157,0
614224,-28,9,130,0
614235,-9,61,118,0
614246,16,50,101,0
614257,59,-43,64,0
614268,96,-23,20,0
614279,89,17,1,0
614290,86,-9,-29,0
614301,104,-49,-55,0
614312,110,-26,-60,0
614323,92,-12,-62,0
614334,82,-28,-60,1
614345,57,4,-38,0
614356,25,-30,-14,0
614367,124,-163,31,0
614378,207,-163,235,0
614389,93,176,269,0
614400,-25,92,306,0
614411,-54,59,354,0
614422,-68,36,460,0
614433,-105,-20,511,0
614444,-134,22,511,0
614455,-91,24,475,0
614466,-8,-32,298,0
614477,33,-16,337,0
614488,54,-15,377,0
614499,58,8,416,0
614510,18,31,439,0
614521,-37,44,462,0
614532,-78,43,440,0
614543,-115,39,395,0
614554,-125,24,347,0
614565,-112,11,314,0
614576,-98,-2,276,0
614587,-73,1,263,0
614598,-54,24,254,0
614609,-34,36,230,0
614620,-22,50,185,0
614631,7,-9,181,0
614642,34,-32,177,0
614653,48,-29,151,0
614664,51,-25,116,0
614675,63,-21,88,0
614686,74,-17,46,1
614697,67,-10,0,0
614708,52,-11,-37,0
614719,25,-12,-73,0
614730,3,-16,-96,0
614741,-5,-14,-102,0
614752,11,-13,-91,0
614763,90,4,-75,0
614774,93,-90,69,0
614785,66,-171,169,0
614796,34,-139,203,0
614807,-13,-13,266,1
614818,-42,97,470,0
614829,-36,99,511,0
614840,-47,113,511,0
614851,41,118,511,0
614862,79,18,511,0
614873,57,50,501,0
614884,7,75,476,0
614895,-46,64,444,0
614906,-81,63,446,0
614917,-106,79,458,0
614928,-119,92,416,0
614939,-112,59,362,0
614950,-94,10,312,0
614961,-45,-61,278,0
614972,-41,-24,206,0
614983,-61,25,144,0
614994,-49,-16,97,0
615005,-21,-17,64,0
615016,12,-12,31,0
615027,43,5,29,0
615038,63,25,21,0
615049,71,22,-6,0
615060,74,-13,-28,0
615071,84,-42,-51,0
615082,88,-49,-43,0
615094,86,-49,-28,0
615105,84,-27,1,1
615116,71,-18,16,0
615127,47,11,23,0
615138,28,2,21,0
615149,42,-54,52,0
615160,112,-153,177,0
615171,130,102,165,0
615182,43,125,292,0
615193,74,60,271,0
615204,51,113,442,0
615215,-72,108,511,0
615226,-42,80,500,0
615237,-20,-5,325,0
615248,-12,8,290,0
615259,6,43,333,0
615270,12,83,397,0
615281,17,102,449,0
615292,-11,128,471,0
615303,-53,131,466,0
615314,-99,121,444,0
615325,-129,96,404,0
615336,-136,78,358,0
615347,-135,56,314,0
615358,-127,47,285,0
615369,-67,37,264,0
615380,-39,25,245,0
615391,-22,41,252,0
615402,-10,34,228,0
615413,-9,47,222,0
615424,-23,35,196,0
615435,-16,-4,161,0
615446,-1,-26,105,0
615457,-10,-21,70,0
615468,-7,-24,40,0
615479,1,-20,17,0
615490,4,-29,-13,1
615501,-2,-33,-39,0
615512,-7,-31,-56,0
615523,-8,-12,-53,0
615534,73,-2,-43,0
615545,123,14,-9,0
615556,107,-22,62,0
615567,78,-76,158,0
615578,77,-44,219,0
615589,41,35,255,0
615600,10,39,418,0
615611,-31,27,511,0
615622,5,148,511,0
615633,85,125,511,0
615644,75,34,511,0
615655,60,73,511,0
615666,14,111,511,0
615677,-93,80,452,0
615688,-120,87,448,0
615699,-130,71,429,0
615710,-128,46,391,0
615721,-108,4,332,0
615732,-82,-27,278,0
615743,-65,-40,233,0
615754,-44,-41,184,0
615765,-26,-24,128,0
615776,-26,-2,107,0
615787,-14,-1,71,0
615798,0,28,59,0
615809,25,22,6,0
615820,41,13,-33,0
615831,77,2,-43,0
615842,94,-4,-63,0
615853,111,-24,-89,0
615864,116,-26,-84,0
615875,121,-20,-71,0
615887,122,-5,-56,1
615898,112,3,-31,0
615909,165,-49,-2,0
615920,220,-90,104,0
615931,162,106,183,0
615942,51,91,267,0
615953,20,58,152,0
615964,-61,28,182,0
615975,-174,-3,423,0
615986,-280,-9,511,0
615997,-312,54,511,0
616008,-180,85,482,0
616019,-81,30,397,0
616030,-18,16,384,0
616041,23,51,407,0
616052,8,85,468,0
616063,-19,82,451,0
616074,-46,57,408,0
616085,-61,48,368,0
616097,-70,53,351,0
616108,-56,31,303,0
616119,-47,32,298,0
616130,-41,43,300,0
616141,-27,57,288,0
616152,-19,64,264,0
616163,-21,60,246,0
616174,-18,30,218,0
616185,-6,16,205,0
616196,9,14,180,0
616207,14,12,131,0
616218,16,17,99,0
616229,24,4,52,0
616240,26,-7,-18,0
616251,25,-23,-62,0
616262,4,-43,-116,0
616273,1,-33,-126,0
616284,-12,-37,-126,1
616295,49,-43,-101,0
616306,106,-5,-57,0
616317,93,-27,30,0
616328,54,-104,122,0
616339,46,-134,187,0
616350,32,-70,253,0
616361,15,87,469,0
616372,-30,118,511,0
616384,21,196,511,0
616395,140,125,511,1
616406,118,19,429,0
616417,46,63,408,0
616428,-3,65,400,0
616439,-44,65,389,0
616450,-81,75,412,0
616461,-91,72,424,0
616472,-97,64,395,0
616483,-112,65,362,0
616494,-125,33,314,0
616505,-129,7,300,0
616516,-113,-16,281,0
616527,-44,-76,272,0
616538,25,-89,210,0
616549,-59,136,124,0
616560,18,-6,107,0
616571,31,-5,37,0
616582,40,-14,21,0
616593,48,-43,5,0
616604,61,-68,-39,0
616615,69,-65,-59,0
616626,70,-36,-66,0
616637,68,-27,-78,0
616648,71,-39,-87,0
616659,87,-21,-73,0
616670,96,1,-58,0
616681,113,-58,-27,0
616692,173,-141,29,1
616703,176,106,3,0
616714,161,-18,174,0
616725,107,137,262,0
616736,77,-11,466,0
616747,56,28,511,0
616758,75,23,511,0
616769,52,56,511,0
616780,47,41,454,0
616791,48,20,321,0
616802,28,14,271,0
616813,13,76,300,0
616824,-13,129,353,0
616835,-46,114,405,0
616846,-53,127,478,0
616857,-47,135,511,0
616868,-6,91,435,0
616879,13,60,352,0
616890,35,40,295,0
616901,57,39,280,0
616912,62,53,277,0
616923,68,45,269,0
616934,78,51,252,0
616945,59,79,237,0
616956,24,84,183,0
616967,-16,100,157,0
616978,-30,102,144,0
616989,-27,92,106,0
617000,-25,86,95,0
617011,-12,86,94,0
617022,0,58,15,0
617033,7,50,4,0
617044,18,44,-4,0
617055,43,34,-14,0
617066,57,40,-22,1
617077,62,48,-30,0
617088,64,59,-25,0
617099,58,69,-11,0
617110,34,69,38,0
617121,3,44,82,0
617132,-31,11,148,0
617143,-52,-20,223,0
617154,-78,-58,300,0
617165,-157,-119,413,0
617176,-337,22,511,0
617187,-210,159,511,1
617198,-101,125,511,0
617209,-51,69,488,0
617220,-43,25,434,0
617231,-48,-2,393,0
617242,-70,-36,345,0
617253,-64,33,440,0
617264,-94,31,431,0
617275,-97,-8,412,0
617286,-102,-34,345,0
617297,-103,-36,303,0
617308,-92,-50,270,0
617319,-70,-47,238,0
617330,-11,-30,191,0
617341,10,-20,174,0
617352,29,-13,139,0
617363,43,-8,123,0
617374,46,-4,119,0
617385,48,-34,87,0
617396,50,-49,61,0
617407,53,-60,32,0
617418,52,-64,48,0
617429,63,-86,33,0
617440,65,-7,-40,0
617451,50,70,-56,0
617462,44,46,-66,1
617473,64,13,-45,0
617484,80,63,-8,0
617496,95,11,11,0
617507,107,25,43,0
617518,106,51,113,0
617529,128,39,220,0
617540,132,53,334,0
617551,90,74,459,0
617562,47,109,511,0
617573,-2,118,511,0
617584,-63,116,511,0
617595,-101,98,395,0
617606,-147,71,353,0
617617,-160,65,382,0
617628,-163,91,445,0
617639,-164,104,449,0
617650,-144,93,423,0
617661,-105,103,437,0
617672,-64,108,417,0
617683,-22,93,388,0
617694,20,71,358,0
617705,53,61,336,0
617716,68,59,325,0
617727,47,60,327,0
617738,21,44,304,0
617749,-5,47,286,0
617760,-49,55,227,0
617771,-79,50,180,0
617782,-97,37,137,0
617793,-82,10,86,0
617804,-61,-10,28,0
617815,-42,-3,3,0
617826,-35,-15,-13,0
617837,-18,-25,-27,0
617848,-16,-34,-39,0
617859,-15,-34,-40,0
617870,-14,-25,-27,0
617881,35,-7,-17,1
617892,128,19,-5,0
617903,134,12,41,0
617914,104,-43,119,0
617925,101,-87,157,0
617936,14,-23,264,0
617947,-24,1,426,0
617958,-58,27,511,0
617969,-41,110,511,0
617980,20,145,511,1
617991,46,105,511,0
618002,26,79,511,0
618013,4,83,507,0
618024,-10,77,481,0
618035,-29,58,453,0
618046,-66,40,423,0
618057,-90,35,416,0
618068,-90,20,387,0
618079,-76,-1,343,0
618090,-56,-38,270,0
618101,-25,-45,242,0
618112,-12,-33,154,0
618123,-27,50,102,0
618134,-32,53,101,0
618145,-2,38,76,0
618156,27,52,28,0
618167,48,51,-10,0
618178,74,16,-38,0
618189,87,-17,-66,0
618200,92,-25,-90,0
618211,93,-13,-93,0
618222,97,-16,-92,0
618233,106,-10,-82,1
618244,117,-8,-41,0
618255,118,-6,-28,0
618266,182,-68,36,0
618277,274,-129,170,0
618288,173,79,285,0
618299,137,51,329,0
618310,57,42,292,0
618321,-94,1,340,0
618332,-138,-28,463,0
618343,-282,-14,511,0
618354,-280,14,482,0
618365,-183,25,400,0
618376,-143,35,386,0
618387,-69,42,392,0
618398,-69,78,424,0
618409,-90,97,451,0
618420,-107,92,436,0
618431,-113,80,415,0
618442,-103,49,349,0
618453,-75,30,295,0
618464,-48,31,279,0
618475,-18,30,290,0
618486,12,48,300,0
618497,40,84,324,0
618508,71,83,283,0
618519,63,100,254,0
618530,71,36,230,0
618541,73,27,190,0
618552,35,29,99,0
618563,25,26,52,0
618574,35,-5,8,0
618585,45,-17,-16,0
618596,24,0,-51,0
618607,-11,7,-70,0
618618,-42,-7,-75,1
618629,-52,-22,-89,0
618640,4,0,-100,0
618651,74,48,-73,0
618662,85,10,-15,0
618673,76,-77,53,0
618684,60,-112,109,0
618695,49,-74,183,0
618706,-23,-12,511,0
618717,-109,-12,511,0
618728,-34,167,511,0
618739,37,111,511,0
618750,38,2,465,0
618761,-3,15,457,0
618772,-46,62,452,0
618783,-106,44,391,0
618794,-106,101,489,0
618805,-94,63,432,0
618816,-75,61,416,0
618827,-57,69,392,0
618838,-37,55,348,0
618849,-32,38,315,0
618860,-32,21,247,0
618871,-13,11,207,0
618882,17,9,153,0
618893,42,43,115,0
618904,60,79,84,0
618915,87,53,23,0
618926,126,-1,7,0
618937,178,-47,-43,0
618948,175,43,-94,0
618959,154,33,-100,0
618970,163,-20,-85,0
618981,185,-28,-78,0
618992,168,3,-59,1
619003,160,-2,-30,0
619014,119,-38,-5,0
619025,87,-30,-12,0
619036,139,-101,130,0
619047,132,5,307,0
619058,36,105,350,0
619069,-29,102,388,0
619080,-87,45,324,0
619091,-159,-63,359,0
619102,-199,-102,406,0
619113,-185,-85,398,0
619124,-122,-22,359,0
619135,-93,37,386,0
619146,-67,51,428,0
619157,-48,79,459,0
619168,-92,90,511,0
619179,-129,84,511,0
619190,-166,66,486,0
619201,-173,53,427,0
619212,-151,42,359,0
619223,-110,35,310,0
619234,-62,26,271,0
619245,-17,45,268,0
619256,17,78,276,0
619267,44,116,288,0
619278,72,107,256,0
619289,67,102,255,0
619300,59,71,217,0
619311,62,45,186,0
619322,22,24,114,0
619333,14,16,60,0
619344,7,18,7,0
619355,2,1,-35,0
619366,-10,-6,-71,0
619377,-34,-12,-102,0
619388,-43,-24,-134,1
619399,-40,-33,-150,0
619410,-25,-15,-129,0
619421,76,14,-115,0
619432,146,64,-72,0
619443,141,10,19,0
619454,125,-76,123,0
619465,81,-144,208,0
619476,-15,29,426,0
619487,-63,100,511,0
619498,-34,147,511,0
619509,55,141,511,0
619520,75,14,466,0
619531,54,-2,435,0
619542,24,49,453,0
619553,0,63,447,0
619564,-28,61,424,0
619575,-44,121,511,0
619586,-53,80,489,0
619597,-82,83,468,0
619608,-99,86,447,0
619619,-83,44,377,0
619630,-40,-22,259,0
619641,-12,-48,224,0
619652,-33,30,168,0
619663,-54,76,105,0
619674,-35,63,84,0
619685,23,4,77,0
619696,74,20,44,0
619707,107,-1,5,0
619718,121,-18,-35,0
619729,124,-27,-60,0
619740,129,-44,-68,0
619751,131,-36,-65,0
619762,126,-4,-56,0
619774,136,-57,-15,0
619785,125,-41,-29,0
619796,116,-54,-27,1
619807,169,-110,70,0
619818,154,72,174,0
619829,74,55,278,0
619840,-20,95,263,0
619851,-94,45,289,0
619862,-127,-13,379,0
619873,-164,-36,496,0
619884,-240,1,511,0
619895,-187,32,471,0
619906,-120,39,380,0
619917,-67,29,357,0
619928,4,54,371,0
619939,5,71,385,0
619950,-5,85,399,0
619961,-24,92,401,0
619972,-37,86,388,0
619983,-30,79,356,0
619994,-17,70,327,0
620005,-14,59,299,0
620016,-9,73,302,0
620027,-13,73,291,0
620038,-16,78,282,0
620049,-32,78,271,0
620060,-54,55,253,0
620071,-52,29,234,0
620082,-43,10,161,0
620093,-42,26,104,0
620104,-26,19,44,0
620115,-11,23,-12,0
620126,3,9,-54,0
620137,-4,-16,-95,1
620148,-23,-24,-127,0
620159,-37,-40,-151,0
620170,-43,-53,-173,0
620181,-43,-27,-156,0
620192,-22,-5,-118,0
620203,44,3,-70,0
620214,121,18,-36,0
620225,137,-26,29,0
620236,134,-135,240,0
620247,122,-39,324,0
620258,63,84,511,0
620269,25,131,511,0
620280,65,259,511,0
620291,140,167,511,0
620302,143,-8,511,0
620313,83,21,448,0
620324,45,156,511,0
620335,28,102,483,0
620346,-7,94,494,0
620357,-26,96,508,0
620368,-53,112,511,0
620379,-76,109,485,0
620390,-12,6,367,0
620401,-13,3,284,0
620412,-33,33,208,0
620423,-45,-19,159,0
620434,-22,-42,131,0
620445,-3,-31,99,0
620456,17,-22,62,0
620467,48,4,14,0
620478,83,25,-6,0
620489,102,27,-33,0
620500,113,6,-92,0
620511,110,14,-97,0
620522,82,12,-105,0
620533,56,2,-104,0
620544,15,-6,-86,1
620555,22,-33,-57,0
620566,40,-34,-30,0
620577,61,-57,16,0
620588,60,-66,37,0
620599,50,-89,50,0
620610,1,54,23,0
620621,33,-117,128,0
620632,84,-5,157,0
620643,76,-22,310,0
620654,75,37,491,0
620665,108,58,511,1
620676,10,162,511,0
620687,27,146,511,0
620698,50,-37,273,0
620709,55,-19,273,0
620720,-4,-10,290,0
620731,-32,43,401,0
620742,-52,74,470,0
620753,-57,98,494,0
620764,-64,97,459,0
620775,-71,87,420,0
620786,-75,72,391,0
620797,-76,69,369,0
620808,-85,71,351,0
620819,-104,55,304,0
620830,-105,49,292,0
620841,-115,67,282,0
620852,-114,75,264,0
620863,-66,11,180,0
620874,-29,-39,157,0
620885,6,-64,131,0
620896,29,-54,89,0
620907,39,-9,46,0
620918,48,10,3,0
620929,60,1,-42,0
620940,67,-20,-81,1
620951,60,-42,-103,0
620962,42,-63,-120,0
620973,28,-64,-125,0
620984,10,-59,-120,0
620995,77,-40,-98,0
621006,68,-59,44,0
621017,36,-116,132,0
621028,46,-89,187,0
621039,8,-4,259,0
621050,1,62,511,0
621061,-75,66,511,0
621072,17,265,511,0
621083,123,135,511,0
621094,111,4,505,0
621105,57,87,492,0
621116,0,108,482,0
621127,-60,90,482,0
621138,-106,95,494,0
621149,-123,94,478,0
621160,-118,63,396,0
621171,-114,27,327,0
621182,-100,-29,291,0
621193,-70,-99,245,0
621204,-59,-70,174,0
621215,-65,-23,159,0
621226,-56,-6,140,0
621237,-14,-13,104,0
621248,28,-2,42,0
621259,59,16,10,0
621270,89,9,-23,0
621281,108,4,-75,0
621292,112,10,-98,0
621303,114,-1,-112,0
621314,111,11,-140,0
621325,102,1,-102,0
621336,100,-6,-73,1
621347,104,-4,-57,0
621358,97,8,5,0
621369,133,-81,89,0
621380,183,-114,212,0
621391,80,89,262,0
621402,53,83,347,0
621413,-15,96,333,0
621424,-54,65,404,0
621435,-102,-13,511,0
621446,-174,30,511,0
621457,-142,18,483,0
621468,-14,-17,395,0
621479,38,22,469,0
621490,67,53,502,0
621501,58,50,502,0
621512,10,69,489,0
621523,-40,59,434,0
621534,-67,62,399,0
621545,-77,59,372,0
621556,-87,56,344,0
621567,-92,61,332,0
621578,-90,61,322,0
621589,-92,58,313,0
621600,-92,71,309,0
621611,-98,55,270,0
621622,-73,17,220,0
621633,0,-31,124,0
621644,6,-8,74,0
621655,19,-9,22,0
621666,41,-17,-23,0
621677,55,-17,-74,0
621688,49,-26,-103,0
621699,36,-48,-143,0
621710,42,-53,-162,0
621721,41,-43,-156,0
621732,59,-13,-130,0
621743,111,-7,-101,1
621754,111,-14,-46,0
621765,106,-81,36,0
621776,39,-112,167,0
621787,5,-12,280,0
621798,-4,101,511,0
621809,-81,122,511,0
621820,49,241,511,0
621831,99,67,511,0
621842,80,15,511,0
621853,33,14,459,0
621864,-31,101,511,0
621875,-69,83,488,0
621886,-92,88,510,0
621897,-108,109,510,0
621908,-93,84,461,0
621919,-76,58,408,0
621930,-70,33,358,0
621941,-28,-32,244,0
621952,-49,2,175,0
621963,-54,0,139,0
621974,-35,-12,120,0
621985,-13,7,90,0
621996,3,25,32,0
622007,24,23,-31,0
622018,51,18,-47,0
622029,65,18,-72,0
622040,73,-9,-125,0
622051,81,-22,-148,0
622062,91,-25,-150,0
622073,91,-45,-125,0
622084,116,-51,-40,0
622095,116,-22,-8,0
622106,99,-5,31,0
622117,110,-74,125,0
622128,159,-134,310,1
622139,74,205,339,0
622150,-46,205,390,0
622161,-72,140,365,0
622173,-93,36,441,0
622184,-74,31,441,0
622195,-76,-8,335,0
622206,-81,-82,276,0
622217,-18,-74,288,0
622228,40,24,468,0
622239,44,75,511,0
622250,19,86,511,0
622261,-10,98,477,0
622273,-38,80,439,0
622284,-67,71,396,0
622295,-94,69,383,0
622306,-95,71,359,0
622317,-80,89,362,0
622328,-69,86,351,0
622339,-66,83,333,0
622350,-65,83,315,0
622361,-71,73,295,0
622373,-67,37,274,0
622384,-53,12,226,0
622395,-39,-2,175,0
622406,-39,-10,104,0
622417,-21,-9,51,0
622428,-12,-8,-3,0
622439,-2,-12,-35,0
622450,-5,-28,-79,0
622461,-17,-30,-94,0
622472,-13,-45,-100,0
622484,-1,-58,-102,0
622495,45,-14,-95,0
622506,141,-6,-82,0
622517,144,8,-28,0
622528,127,-58,63,0
622539,78,-144,137,0
622550,49,-144,197,0
622561,32,-26,232,0
622572,-2,81,409,1
622583,-33,84,511,0
622594,-2,145,511,0
622605,16,123,511,0
622616,-10,28,511,0
622627,-53,67,511,0
622638,-96,107,511,0
622649,-151,104,511,0
622660,-151,104,496,0
622671,-128,94,458,0
622682,-91,62,409,0
622693,-65,41,364,0
622704,-64,4,319,0
622715,-46,-9,273,0
622726,-50,-12,247,0
622737,-42,-22,197,0
622748,-33,-4,157,0
622759,-8,12,118,0
622770,20,27,84,0
622781,31,44,26,0
622792,40,57,-13,0
622803,65,18,-84,0
622814,83,-29,-115,0
622825,102,-61,-133,0
622836,108,-46,-132,0
622847,99,-22,-105,0
622858,107,1,-76,0
622869,124,2,-24,0
622880,136,-27,13,0
622891,177,-25,34,0
622902,267,-69,154,1
622913,292,-54,346,0
622924,138,158,470,0
622935,34,136,368,0
622946,-13,36,270,0
622957,-147,-101,331,0
622968,-232,-77,367,0
622979,-298,-54,407,0
622990,-241,11,401,0
623001,-134,69,427,0
623012,-67,89,463,0
623023,-33,94,472,0
623034,-44,88,482,0
623045,-76,75,477,0
623056,-125,51,433,0
623067,-157,35,394,0
623078,-164,30,357,0
623089,-144,27,317,0
623100,-111,22,276,0
623111,-54,51,252,0
623122,-32,93,265,0
623133,1,104,256,0
623144,21,95,228,0
623155,36,50,184,0
623166,39,50,177,0
623177,50,39,131,0
623188,49,29,92,0
623199,46,31,63,0
623210,47,23,43,0
623221,61,-6,0,0
623232,65,15,-25,0
623243,53,34,-57,1
623254,24,21,-80,0
623265,-12,-27,-93,0
623276,63,-35,-114,0
623287,161,32,-106,0
623298,126,-27,-49,0
623309,26,-178,64,0
623320,-26,-183,108,0
623331,-53,-54,206,0
623342,-37,85,457,0
623353,-75,60,511,0
623364,-93,139,511,0
623375,44,180,511,0
623386,80,8,486,0
623397,19,8,443,0
623408,-62,40,421,0
623419,-143,-28,368,0
623430,-167,95,511,0
623441,-158,85,456,0
623452,-117,101,422,0
623463,-81,82,366,0
623474,-48,77,314,0
623485,-22,64,277,0
623496,-17,61,257,0
623507,0,38,250,0
623518,17,32,223,0
623529,35,21,172,0
623540,35,54,136,0
623551,22,75,105,0
623562,33,44,56,0
623573,86,28,-55,0
623584,97,42,-45,0
623595,97,28,-21,0
623606,97,6,-24,0
623617,111,-1,-26,0
623628,119,20,-5,0
623639,122,-10,15,0
623650,131,-21,21,1
623661,151,-57,15,0
623672,133,-26,31,0
623683,68,28,37,0
623694,36,8,62,0
623705,64,-43,104,0
623716,32,9,158,0
623727,13,-1,356,0
623738,5,-2,446,0
623749,-6,-2,511,0
623760,-19,78,511,0
623771,18,162,511,0
623782,17,89,394,0
623793,-17,7,318,0
623804,-30,6,344,0
623815,-76,44,416,0
623826,-148,81,481,0
623837,-207,100,511,0
623848,-223,120,511,0
623859,-215,110,484,0
623870,-189,106,428,0
623881,-93,100,320,0
623892,-74,115,309,0
623903,-53,129,284,0
623914,-42,130,252,0
623925,-20,124,237,0
623936,-1,102,200,0
623947,13,79,175,0
623958,25,52,143,0
623969,34,46,122,0
623980,49,57,120,0
623991,56,51,63,0
624002,60,33,25,0
624013,76,16,5,0
624024,82,8,-33,1
624035,68,4,-76,0
624046,70,17,-90,0
624057,71,28,-91,0
624068,127,43,-103,0
624079,236,119,-107,0
624090,246,73,-81,0
624101,159,-124,7,0
624112,118,-263,64,0
624123,60,-219,137,0
624134,31,-139,284,0
624145,-64,-68,511,0
624156,-95,29,511,0
624167,-24,164,511,1
624178,68,128,511,0
624189,-16,-11,444,0
624200,-74,15,442,0
624211,-98,32,445,0
624222,-89,29,452,0
624233,-79,84,482,0
624244,-59,66,487,0
624255,-65,55,431,0
624266,-75,54,405,0
624277,-27,44,359,0
624288,30,-9,287,0
624299,46,8,252,0
624310,14,52,226,0
624321,-7,12,177,0
624332,0,3,109,0
624343,17,44,82,0
624354,29,33,83,0
624365,53,2,67,0
624376,79,-3,35,0
624387,103,48,39,0
624398,117,70,28,0
624409,130,68,33,0
624421,149,32,38,1
624432,177,-9,58,0
624443,190,-38,66,0
624454,177,-23,56,0
624465,129,3,34,0
624476,106,-64,72,0
624487,108,-29,180,0
624498,34,12,220,0
624509,-19,26,224,0
624520,-58,-17,242,0
624531,-90,-24,225,0
624542,-77,-60,281,0
624553,-75,-70,332,0
624564,-68,-47,381,0
624575,-56,28,438,0
624586,-46,81,480,0
624597,-26,88,508,0
624608,-7,83,511,0
624619,-2,69,507,0
624630,-23,50,397,0
624641,-29,41,367,0
624652,-23,42,351,0
624663,-9,57,354,0
624674,0,74,358,0
624685,7,93,368,0
624696,35,98,344,0
624707,30,102,306,0
624718,27,90,254,0
624729,21,82,234,0
624740,14,65,191,0
624751,-2,52,156,0
624762,-25,39,131,0
624773,-40,14,110,0
624784,-30,22,47,0
624795,-21,13,22,0
624806,-11,19,0,1
624817,-11,21,-39,0
624828,-7,14,-68,0
624839,-1,14,-80,0
624850,2,0,-73,0
624861,23,-2,-44,0
624872,166,58,-40,0
624883,216,75,-14,0
624894,171,-47,87,0
624905,125,-199,170,0
624916,81,-186,188,0
624927,21,-52,293,0
624938,-50,119,511,0
624949,60,197,511,0
624960,96,79,511,0
624971,71,27,465,0
624982,-4,29,452,0
624993,-56,67,453,0
625004,-91,100,507,0
625015,-92,81,492,0
625026,-78,73,485,0
625037,-63,70,461,0
625048,-49,55,400,0
625059,-31,43,344,0
625070,-37,25,302,0
625081,-17,-8,264,0
625092,16,-19,173,0
625103,-23,109,144,0
625114,-20,119,99,0
625125,29,96,82,0
625136,94,17,86,0
625147,129,68,-15,0
625158,126,90,-53,0
625169,131,2,-60,0
625180,139,-30,-81,0
625191,140,1,-85,0
625202,132,-25,-69,0
625213,130,-39,-41,0
625224,117,-56,-28,0
625235,101,-62,-7,1
625246,110,-126,51,0
625257,197,-86,204,0
625268,94,17,231,0
625279,-14,90,221,0
625290,3,-47,226,0
625301,-74,0,320,0
625312,-94,-59,511,0
625323,-141,18,511,0
625334,-83,65,511,0
625345,-38,72,489,0
625356,-25,48,454,0
625367,-18,21,410,0
625378,-31,51,451,0
625389,-55,42,436,0
625400,-94,78,488,0
625411,-82,53,435,0
625422,-58,30,361,0
625433,-29,20,309,0
625444,-3,35,302,0
625455,20,71,317,0
625466,25,103,301,0
625477,32,116,281,0
625488,31,102,231,0
625499,36,60,183,0
625510,28,26,142,0
625521,9,10,110,0
625532,-10,6,95,0
625543,-17,18,73,0
625554,-17,27,18,0
625565,-25,22,-26,0
625576,-33,20,-58,0
625587,-39,19,-78,0
625598,-26,20,-91,0
625609,1,21,-91,0
625620,74,27,-87,0
625632,142,33,-59,1
625643,151,-9,14,0
625654,119,-48,88,0
625665,87,-97,156,0
625676,68,-80,223,0
625687,-6,-31,511,0
625698,-57,39,511,0
625709,70,186,511,0
625720,127,116,511,0
625731,113,56,511,0
625742,58,44,469,1
625753,-1,97,489,0
625764,-48,95,491,0
625775,-64,53,461,0
625786,-76,58,456,0
625797,-77,54,434,0
625808,-72,37,378,0
625819,-98,18,323,0
625830,-111,-27,311,0
625841,-22,-100,158,0
625852,-93,149,85,0
625863,-59,105,100,0
625874,12,38,107,0
625885,86,57,36,0
625896,119,93,33,0
625907,138,55,-5,0
625918,153,3,-70,0
625929,150,-18,-94,0
625940,147,-5,-91,0
625951,143,-15,-83,0
625962,125,-27,-67,0
625973,117,-49,-42,0
625984,96,-47,-24,1
625995,45,-63,11,0
626006,59,-114,38,0
626017,166,-216,214,0
626028,122,46,274,0
626039,13,104,279,0
626050,-71,78,240,0
626061,-135,3,286,0
626072,-163,-68,484,0
626083,-243,-18,511,0
626094,-232,44,511,0
626105,-144,81,511,0
626116,-79,43,447,0
626127,-16,12,421,0
626138,18,22,429,0
626149,-55,60,433,0
626160,-63,70,442,0
626171,-63,84,440,0
626182,-50,61,383,0
626193,-9,38,329,0
626204,16,39,302,0
626215,13,68,296,0
626226,-5,79,289,0
626237,-18,74,247,0
626248,-21,48,224,0
626259,3,4,173,0
626270,26,-5,179,0
626281,34,-3,177,0
626292,27,6,130,0
626303,49,28,8,0
626314,28,38,-40,0
626325,2,25,-82,0
626336,-27,-8,-124,0
626347,-34,-52,-158,0
626358,-27,-65,-183,0
626369,-22,-27,-149,1
626380,-11,33,-95,0
626391,41,41,-48,0
626402,187,56,-22,0
626413,235,94,52,0
626424,133,-63,162,0
626435,119,-219,327,0
626446,108,-125,368,0
626457,-10,139,511,0
626468,101,157,511,0
626479,106,-26,491,0
626490,66,-85,420,0
626501,17,-3,436,0
626512,-14,9,401,0
626523,-69,138,511,0
626534,-88,98,495,0
626546,-127,95,493,0
626557,-173,94,485,0
626568,-179,73,455,0
626579,-160,48,392,0
626590,-131,13,337,0
626601,-67,-56,239,0
626612,-68,14,145,0
626623,-44,14,106,0
626634,2,17,85,0
626645,38,34,59,0
626656,61,23,-9,0
626667,85,0,-48,0
626678,90,7,-48,0
626689,103,-5,-74,0
626700,114,-33,-104,0
626711,124,-25,-71,0
626722,147,-10,-56,1
626733,159,-4,-38,0
626744,147,-1,6,0
626755,134,-48,28,0
626766,186,-85,164,0
626777,191,72,280,0
626788,37,106,265,0
626799,5,111,260,0
626810,-41,29,278,0
626821,-114,-9,335,0
626832,-181,-34,447,0
626843,-266,-35,478,0
626854,-258,-6,419,0
626865,-173,20,373,0
626876,-92,17,388,0
626887,-27,53,458,0
626898,-24,92,493,0
626909,-85,65,445,0
626920,-106,47,406,0
626931,-116,35,363,0
626942,-103,22,318,0
626953,-71,15,286,0
626964,-41,14,289,0
626975,-18,38,301,0
626986,-5,79,319,0
626997,3,99,318,0
627008,11,91,303,0
627019,4,48,250,0
627030,17,-5,206,0
627041,31,-26,167,0
627052,33,-21,120,0
627063,52,-7,12,0
627074,46,3,-30,0
627085,28,-6,-95,0
627096,8,-24,-135,0
627107,3,-50,-154,0
627118,0,-48,-173,0
627129,-6,-8,-151,1
627140,8,24,-116,0
627151,96,34,-81,0
627162,206,127,-37,0
627173,156,93,58,0
627184,103,-195,191,0
627195,83,-289,312,0
627206,14,-118,389,0
627217,-60,249,511,0
627228,87,240,511,0
627239,90,2,485,0
627250,49,-32,385,1
627261,-10,34,395,0
627272,-91,55,401,0
627283,-128,68,482,0
627294,-127,98,511,0
627305,-123,88,511,0
627316,-122,98,510,0
627327,-111,79,433,0
627338,-93,53,349,0
627349,-84,34,279,0
627360,-76,26,237,0
627371,-32,-28,155,0
627382,-8,-31,111,0
627393,-24,34,78,0
627404,-41,61,56,0
627415,4,27,14,0
627426,67,3,-11,0
627437,121,-11,-39,0
627448,176,-23,-76,0
627459,217,-22,-119,1
627470,228,6,-140,0
627481,217,27,-124,0
627492,226,24,-75,0
627503,232,7,-40,0
627514,204,6,-33,0
627525,25,11,6,0
627536,-3,-38,-16,0
627547,215,-184,256,0
627558,166,105,370,0
627569,32,130,481,0
627580,-14,122,396,0
627591,-194,-10,407,0
627602,-237,-120,485,0
627613,-267,-156,468,0
627624,-188,-83,444,0
627635,-181,-12,414,0
627646,-134,9,463,0
627657,-88,10,481,0
627668,-68,46,489,0
627679,-87,62,451,0
627690,-102,61,440,0
627701,-118,64,406,0
627712,-109,49,347,0
627723,-87,34,296,0
627734,-70,35,251,0
627745,-38,64,275,0
627756,0,75,265,0
627767,36,108,283,0
627778,53,92,279,0
627789,63,72,278,0
627800,66,58,247,0
627811,67,44,193,0
627822,50,50,137,0
627833,36,47,19,0
627844,42,24,-46,0
627855,38,18,-96,0
627866,16,27,-131,0
627877,-11,0,-147,0
627888,-28,-38,-145,1
627899,-20,-39,-135,0
627910,-9,-7,-119,0
627921,39,-3,-102,0
627932,149,25,-95,0
627943,138,4,-38,0
627954,113,-165,93,0
627965,75,-219,196,0
627976,33,-137,277,0
627987,-86,70,511,0
627998,16,220,511,0
628009,78,85,511,0
628020,50,-40,446,1
628031,-6,-3,449,0
628042,-55,24,442,0
628053,-148,51,439,0
628064,-128,122,511,0
628075,-121,88,511,0
628086,-110,72,511,0
628097,-91,65,452,0
628108,-64,49,379,0
628119,-49,43,327,0
628130,-9,-10,283,0
628141,37,-68,151,0
628152,-23,43,86,0
628163,-44,27,49,0
628174,-24,39,52,0
628185,19,18,47,0
628196,79,-16,23,0
628207,114,26,-16,0
628218,134,34,-16,0
628229,151,7,-28,0
628240,171,-20,-31,0
628251,180,-29,-30,0
628262,172,-11,-6,0
628273,152,-6,3,1
628284,145,-11,14,0
628295,99,-61,23,0
628306,151,-98,125,0
628317,150,-19,202,0
628328,29,102,173,0
628339,-38,116,225,0
628350,-70,29,304,0
628361,-120,-18,405,0
628372,-156,-57,490,0
628383,-167,-57,490,0
628394,-110,-24,402,0
628405,-48,-11,344,0
628416,-23,-26,319,0
628427,-17,-13,361,0
628438,-15,29,411,0
628449,-98,108,495,0
628460,-151,108,482,0
628471,-185,96,432,0
628482,-184,72,366,0
628493,-153,45,296,0
628504,-111,37,257,0
628515,-54,44,262,0
628526,2,55,262,0
628537,51,68,283,0
628548,61,80,295,0
628559,52,62,268,0
628570,58,10,235,0
628581,56,-27,215,0
628592,22,-32,169,0
628603,-17,5,46,0
628614,-10,30,-14,0
628625,-22,23,-69,0
628636,-44,7,-107,1
628647,-61,-10,-121,0
628658,-55,-25,-141,0
628669,-50,-8,-143,0
628680,19,-8,-132,0
628691,158,16,-78,0
628702,153,1,37,0
628713,121,-66,149,0
628724,81,-118,211,0
628735,67,-88,223,0
628746,57,41,358,0
628757,73,165,511,0
628768,225,152,511,0
628779,238,-7,482,0
628790,198,6,442,0
628801,132,55,441,0
628812,49,56,413,0
628823,-12,70,437,0
628834,-63,75,449,0
628845,-96,84,472,0
628856,-102,77,465,0
628867,-95,63,431,0
628878,-87,36,352,0
628889,-69,15,317,0
628900,-64,-14,238,0
628911,-115,35,116,0
628922,-100,-15,78,0
628933,-64,-42,40,0
628944,-15,-45,2,0
628955,32,-28,-25,0
628966,64,-12,-34,0
628977,85,-6,-56,0
628988,106,2,-69,0
628999,130,-12,-83,0
629010,151,-31,-88,1
629021,148,-17,-60,0
629032,170,-16,-11,0
629043,187,-17,-29,0
629054,152,-35,1,0
629065,103,-87,6,0
629076,209,-280,191,0
629087,87,171,226,0
629098,-29,149,316,0
629109,-53,93,199,0
629120,-135,30,245,0
629131,-133,-11,384,0
629142,-164,-7,506,0
629153,-145,57,511,0
629164,-81,93,511,0
629175,13,84,497,0
629186,88,86,487,0
629197,142,81,475,0
629208,130,73,451,0
629219,13,65,440,0
629230,-49,76,425,0
629241,-100,84,399,0
629252,-123,79,367,0
629263,-118,69,337,0
629274,-101,57,311,0
629285,-83,48,291,0
629296,-62,39,284,0
629307,-34,33,264,0
629318,-1,17,241,0
629329,25,6,221,0
629341,29,6,209,0
629352,44,-16,172,0
629363,45,12,142,0
629374,34,9,88,0
629385,31,-25,25,0
629396,45,-46,-24,0
629407,54,-50,-57,0
629418,50,-59,-102,0
629429,53,-62,-149,0
629440,50,-48,-150,1
629451,56,-22,-135,0
629462,46,-9,-116,0
629473,61,-9,-91,0
629484,139,0,-71,0
629495,113,33,3,0
629506,96,-211,247,0
629517,-30,-194,316,0
629528,-127,-11,511,0
629539,-230,134,511,0
629550,-116,297,511,0
629561,43,78,511,0
629572,65,-59,507,0
629583,56,-50,452,0
629594,23,-21,476,0
629605,-31,19,511,0
629616,-101,39,511,0
629627,-120,31,502,0
629638,-109,38,473,0
629649,-81,46,417,0
629660,-67,-17,307,0
629671,-62,-69,260,0
629682,-58,-78,248,0
629693,-47,-81,194,0
629704,-39,-48,164,0
629715,-8,-47,128,0
629726,23,-30,75,0
629737,58,-20,13,0
629748,80,7,6,0
629759,82,21,-16,0
629770,75,9,-44,0
629781,78,-10,-73,0
629792,84,4,-80,0
629803,85,21,-93,1
629814,84,2,-93,0
629825,75,18,-33,0
629836,74,-11,-84,0
629847,99,-56,-46,0
629858,196,-134,73,0
629869,257,-73,167,0
629880,103,116,256,0
629891,74,6,249,0
629902,2,110,247,0
629913,-52,11,400,0
629924,-111,42,511,0
629935,-211,76,511,0
629946,-229,65,511,0
629957,-186,21,400,0
629968,-78,-25,358,0
629979,-12,19,404,0
629990,12,50,463,0
630001,6,55,451,0
630012,-15,42,420,0
630023,-39,38,384,0
630034,-36,20,335,0
630045,-29,9,293,0
630056,-23,9,273,0
630067,-17,22,268,0
630078,-20,43,275,0
630089,-25,56,276,0
630100,-31,63,264,0
630111,-46,79,276,0
630122,-17,11,236,0
630133,5,-9,186,0
630144,23,-19,141,0
630155,28,5,69,0
630166,31,5,12,1
630177,57,-60,-19,0
630188,60,-58,-99,0
630199,35,-20,-126,0
630210,17,-23,-133,0
630221,-11,-5,-132,0
630232,-7,6,-126,0
630243,35,-16,-115,0
630254,185,-15,-120,0
630265,177,34,-32,0
630276,45,-257,202,0
630287,18,-61,231,0
630298,-29,113,511,0
630309,-24,206,511,0
630320,175,330,511,0
630331,223,58,511,0
630342,153,-18,457,0
630353,78,55,436,0
630364,-8,54,381,0
630375,-99,112,467,0
630386,-160,81,418,0
630397,-200,117,454,0
630408,-203,117,457,0
630419,-152,73,395,0
630430,-69,49,279,0
630441,-38,33,237,0
630452,-31,12,191,0
630463,-21,4,156,0
630474,-11,6,143,0
630485,-4,11,109,0
630496,-1,-9,64,0
630507,-2,-30,24,0
630518,1,-26,1,0
630529,13,-21,8,0
630540,19,-27,0,0
630551,21,-24,-28,0
630562,32,-36,-59,1
630573,35,-27,-61,0
630584,23,45,-25,0
630595,-3,47,11,0
630606,-24,62,53,0
630617,-46,51,94,0
630628,-63,28,140,0
630639,-56,21,168,0
630650,133,-78,204,0
630661,511,-275,511,0
630672,415,427,511,0
630683,219,285,511,0
630694,369,-112,302,0
630705,143,-49,0,0
630716,114,-197,36,0
630727,15,-142,141,0
630738,-82,41,490,0
630749,12,171,511,0
630760,125,201,511,0
630771,206,169,458,0
630782,241,116,369,0
630793,192,96,335,0
630804,122,43,264,0
630815,52,33,231,0
630826,6,28,224,0
630837,-33,32,246,0
630848,-43,41,229,0
630859,-46,39,203,0
630870,-40,28,175,0
630881,-31,29,157,0
630892,-28,41,142,0
630903,-25,40,139,0
630914,-25,37,146,0
630925,-23,38,164,0
630936,-18,38,175,0
630947,-17,42,181,0
630958,-16,45,181,0
630969,-10,43,183,0
630980,0,37,177,0
630991,6,32,171,0
631002,11,41,168,0
631013,-1,63,179,0
631024,-13,55,147,0
631035,-12,10,327,0
631046,-30,133,206,1
631057,-30,71,208,0
631068,-34,75,226,0
631079,-39,75,230,0
631090,-35,63,229,0
631101,-22,40,227,0
631112,-11,0,208,0
631123,14,-44,174,0
631134,29,-45,182,0
631145,-12,-53,207,0
631156,-64,-104,242,0
631167,-88,-83,307,0
631178,-83,-1,352,0
631189,-41,60,377,0
631200,63,68,352,0
631211,91,46,304,0
631222,99,10,258,0
631233,114,-25,222,0
631245,106,-31,195,0
631256,90,-34,175,0
631267,70,-24,171,0
631278,47,-18,184,0
631289,26,-16,194,0
631300,5,-10,191,0
631311,-9,0,193,0
631322,-21,-1,194,0
631333,-21,-8,197,0
631344,-7,-5,214,0
631355,0,0,226,0
631366,8,6,242,0
631377,12,17,256,0
631388,10,25,260,0
631399,7,30,260,0
631410,4,30,256,0
631421,3,24,245,0
631432,5,16,235,0
631443,13,5,231,0
631454,22,2,232,0
631465,34,1,236,0
631476,45,0,239,0
631487,52,4,237,0
631498,51,20,228,0
631509,45,25,219,0
631520,35,30,215,0
631531,23,30,210,0
631542,11,31,207,0
631553,2,31,208,0
631564,-3,28,213,0
631575,-9,28,221,0
631586,-18,28,226,0
631597,-20,25,236,0
631608,-19,25,243,0
631619,-14,25,249,0
631630,-6,24,252,0
631641,-1,19,252,0
631652,6,12,244,0
631663,8,11,234,0
631674,9,8,226,0
631685,9,8,221,0
631696,11,7,220,0
631707,12,10,219,0
631718,11,14,219,0
631729,12,19,222,0
631740,16,22,228,0
631751,17,26,231,0
631762,18,30,235,0
631773,20,28,237,0
631784,20,28,235,0
631795,20,23,224,0
631806,20,20,222,0
631817,22,19,223,0
631828,22,19,222,0
631839,24,18,223,0
631850,22,19,223,0
631861,23,15,224,0
631872,24,13,225,0
631883,20,11,222,0
631894,19,11,224,0
631905,18,14,225,0
631916,17,15,231,0
631927,19,17,234,0
631938,21,19,240,0
631949,16,22,238,0
631960,16,16,239,0
631971,14,16,236,0
631982,17,17,233,0
631993,20,20,234,0
632004,21,22,236,0
632015,21,25,235,0
632026,17,33,236,0
632037,14,34,236,0
632048,13,32,236,0
632059,9,30,233,0
632070,5,27,232,0
632081,2,19,227,0
632092,1,14,226,0
632103,-3,16,227,0
632114,-2,20,230,0
632125,0,26,233,0
632136,7,31,234,0
632147,9,35,232,0
632158,12,36,231,0
632169,12,33,233,0
632180,12,31,231,0
632191,15,28,233,0
632202,16,27,234,0
632213,18,26,232,0
632224,19,24,230,0
632235,20,26,229,0
632246,16,28,229,0
632257,11,32,225,0
632268,8,30,227,0
632279,5,29,227,0
632290,2,29,228,0
632301,1,32,230,0
632312,-1,36,234,0
632323,0,35,230,0
632334,2,32,227,0
632345,5,34,231,0
632356,7,37,232,0
632367,6,37,231,0
632378,4,33,227,0
632389,0,34,233,0
632400,-2,33,236,0
632411,-10,35,235,0
632422,-13,36,237,0
632433,-12,32,235,0
632444,-11,32,234,0
632455,-8,32,231,0
632466,-6,33,233,0
632477,-4,32,232,0
632488,-3,32,230,0
632499,-4,32,227,0
632510,-4,35,231,0
632521,-7,40,244,0
632532,-3,35,236,0
632543,-3,30,231,0
632554,-4,30,233,0
632565,1,24,235,0
632576,4,23,233,0
632587,7,24,231,0
632598,9,21,226,0
632609,11,22,223,0
632620,10,21,223,0
632631,13,21,224,0
632642,14,23,224,0
632653,11,26,229,0
632664,8,28,232,0
632675,5,30,235,0
632686,3,27,236,0
632697,2,28,234,0
632708,2,26,233,0
632719,1,29,237,0
632730,14,28,236,0
632741,1,27,234,0
632752,-1,25,233,0
632763,-1,25,232,0
632774,-2,24,230,0
632785,-2,25,232,0
632796,-4,28,232,0
632807,-2,29,234,0
632818,-1,29,234,0
632829,0,30,235,0
632840,0,28,232,0
632851,0,29,230,0
632862,0,28,230,0
632873,0,27,230,0
632884,0,27,228,0
632895,0,30,232,0
632906,1,30,233,0
632917,2,29,234,0
632928,2,29,234,0
632939,1,29,232,0
632950,1,28,232,0
632961,2,28,231,0
632972,3,26,231,0
632983,1,29,231,0
632994,2,28,231,0
633005,3,29,229,0
633016,2,28,231,0
633027,1,29,231,0
633038,1,30,232,0
633049,1,30,231,0
633060,0,31,231,0
633071,0,34,236,0
633082,0,31,229,0
633093,-2,29,225,0
633104,-3,28,224,0
633115,-3,25,223,0
633126,-1,28,223,0
633137,0,30,228,0
633148,-1,33,230,0
633159,0,31,232,0
633170,-1,31,230,0
633181,-2,30,228,0
633192,-1,32,229,0
633203,0,31,230,0
633214,1,32,231,0
633225,2,33,231,0
633236,3,33,229,0
633247,3,34,230,0
633258,2,38,231,0
633269,2,37,231,0
633280,1,38,233,0
633291,1,37,230,0
633302,0,35,232,0
633313,-2,33,230,0
633324,-2,31,229,0
633335,-5,32,228,0
633346,-6,32,229,0
633357,-6,31,227,0
633368,-8,32,230,0
633379,-6,31,229,0
633390,-5,32,232,0
633401,-7,36,232,0
633412,-10,36,233,0
633423,-10,36,234,0
633434,-10,34,231,0
633445,-10,33,232,0
633456,-11,33,230,0
633467,-13,36,231,0
633478,-9,35,233,0
633489,-10,36,234,0
633500,-10,36,232,0
633511,-10,38,233,0
633522,-10,38,233,0
633533,-8,39,230,0
633544,-5,38,232,0
633555,-5,37,232,0
633566,-5,36,228,0
633577,-4,34,226,0
633588,-5,35,227,0
633599,-5,34,226,0
633610,-6,34,225,0
633621,-8,35,228,0
633632,-9,36,229,0
633643,-10,34,226,0
633654,-12,35,228,0
633665,-14,35,227,0
633676,-15,35,227,0
633687,-16,36,230,0
633698,-17,38,230,0
633709,-17,39,228,0
633720,-19,40,230,0
633731,-18,40,230,0
633742,-21,41,228,0
633753,-22,42,231,0
633764,-23,40,230,0
633775,-23,40,230,0
633786,-24,42,230,0
633797,-24,42,235,0
633808,-22,40,236,0
