timestamp,accX,accY,accZ,step
660516,30,-1,231,0
660527,30,-2,226,0
660538,29,-2,228,0
660549,30,-2,228,0
660559,28,-1,230,0
660569,28,0,232,0
660580,27,0,233,0
660590,28,-1,231,0
660601,28,-2,228,0
660612,30,-2,228,0
660623,26,1,233,0
660633,27,1,232,0
660643,26,1,227,0
660654,25,2,231,0
660664,22,6,238,0
660675,23,5,237,0
660685,23,3,234,0
660696,21,6,236,0
660707,22,4,236,0
660718,23,2,231,0
660729,22,2,227,0
660739,23,4,230,0
660750,23,4,229,0
660760,23,3,231,0
660770,23,3,231,0
660780,23,3,228,0
660790,24,2,229,0
660801,26,2,231,0
660812,27,3,232,0
660823,29,2,230,0
660833,28,3,230,0
660843,29,2,230,0
660854,28,1,227,0
660864,31,2,228,0
660875,31,2,226,0
660885,30,3,228,0
660896,30,5,232,0
660907,27,7,231,0
660918,27,6,230,0
660928,28,8,234,0
660938,27,7,234,0
660949,24,9,234,0
660960,24,10,234,0
660970,22,9,232,0
660980,22,8,231,0
660990,24,8,229,0
661001,26,8,229,0
661012,28,11,231,0
661023,26,12,231,0
661033,26,11,234,0
661043,29,12,236,0
661054,34,9,234,0
661064,35,13,230,0
661075,33,13,229,0
661085,31,11,228,0
661096,28,13,230,0
661107,28,14,230,0
661118,29,14,231,0
661129,30,13,232,0
661139,29,12,230,0
661150,29,14,233,0
661160,29,13,232,0
661170,30,14,232,0
661181,29,12,233,0
661191,29,12,233,0
661202,33,13,233,0
661213,34,12,233,0
661224,33,11,231,0
661234,32,12,230,0
661244,32,13,228,0
661255,31,13,228,0
661265,30,13,231,0
661275,31,12,233,0
661285,31,9,234,0
661296,32,9,233,0
661307,31,8,232,0
661318,29,10,228,0
661329,26,13,226,0
661339,24,16,223,0
661349,26,17,229,0
661359,28,20,232,0
661369,31,18,234,0
661380,32,16,236,0
661390,35,18,235,0
661401,35,16,232,0
661412,35,18,227,0
661423,34,21,225,0
661433,32,24,223,0
661443,30,23,223,0
661454,29,20,229,0
661465,31,18,232,0
661476,33,16,235,0
661486,33,20,236,0
661497,35,20,234,0
661508,34,20,232,0
661519,34,20,230,0
661530,31,22,227,0
661540,31,22,227,0
661550,31,20,227,0
661560,30,18,227,0
661571,25,14,228,0
661582,25,14,231,0
661592,25,16,229,0
661603,26,18,230,0
661614,27,19,232,0
661627,31,18,233,0
661639,34,18,233,0
661650,36,17,233,0
661661,35,14,233,0
661672,36,16,231,0
661683,36,17,230,0
661694,34,17,230,0
661705,32,14,230,0
661716,31,15,230,0
661727,30,16,231,0
661738,31,17,231,0
661749,31,15,229,0
661760,32,15,228,0
661771,32,17,228,0
661782,33,15,230,0
661793,34,17,229,0
661804,37,16,230,0
661815,38,16,230,0
661826,39,15,231,0
661837,41,13,230,0
661848,43,14,231,0
661859,45,13,226,0
661870,44,14,226,0
661881,44,14,226,0
661892,42,16,228,0
661903,40,15,229,0
661914,38,15,231,0
661925,35,15,234,0
661936,34,16,234,0
661947,34,13,234,0
661958,33,14,231,0
661969,30,17,227,0
661980,31,17,229,0
661991,32,16,228,0
662002,33,17,228,0
662013,34,19,232,0
662024,34,17,232,0
662035,36,16,231,0
662046,36,16,229,0
662057,36,17,228,0
662068,36,14,228,0
662079,34,15,228,0
662090,31,18,229,0
662101,32,19,230,0
662112,33,19,231,0
662123,33,18,232,0
662134,35,17,232,0
662145,39,15,231,0
662156,40,14,228,0
662167,41,15,230,0
662178,42,13,230,0
662189,43,12,233,0
662200,41,15,233,0
662211,41,17,233,0
662222,42,18,234,0
662233,42,20,236,0
662244,42,19,234,0
662255,42,17,232,0
662266,42,17,229,0
662277,41,18,227,0
662288,41,17,226,0
662299,39,17,227,0
662310,40,19,228,0
662322,42,20,229,0
662333,44,21,231,0
662344,46,18,229,0
662355,46,20,228,0
662367,48,22,226,0
662378,49,21,226,0
662389,49,19,225,0
662400,46,21,226,0
662411,44,19,225,0
662422,42,20,226,0
662433,41,21,230,0
662444,39,21,233,0
662455,40,22,233,0
662466,39,21,232,0
662477,39,20,231,0
662488,40,18,228,0
662499,40,16,229,0
662510,41,14,226,0
662521,39,14,226,0
662532,39,14,223,0
662543,38,18,228,0
662554,38,17,231,0
662565,39,16,231,0
662576,39,14,232,0
662587,39,16,231,0
662598,40,13,229,0
662609,38,14,232,0
662620,39,14,232,0
662631,39,14,231,0
662642,39,13,231,0
662653,39,12,232,0
662664,38,12,232,0
662675,37,11,231,0
662686,38,11,229,0
662697,37,12,229,0
662708,36,13,228,0
662719,34,15,230,0
662730,33,17,231,0
662741,32,16,233,0
662752,27,15,233,0
662763,27,14,231,0
662774,28,13,231,0
662785,29,13,228,0
662796,30,12,228,0
662807,31,13,228,0
662818,32,13,228,0
662829,33,14,229,0
662840,35,14,231,0
662851,35,13,231,0
662862,36,12,229,0
662873,36,13,228,0
662884,36,15,228,0
662895,36,14,228,0
662906,37,14,230,0
662917,34,13,229,0
662928,35,13,230,0
662939,35,12,230,0
662950,35,12,229,0
662961,35,12,229,0
662972,36,12,228,0
662983,37,13,230,0
662994,35,13,229,0
663005,35,14,231,0
663016,33,13,231,0
663027,32,11,230,0
663038,32,11,230,0
663049,31,10,229,0
663060,34,6,229,0
663071,35,13,226,0
663082,36,14,229,0
663093,38,11,229,0
663104,38,10,230,0
663115,39,20,231,0
663126,38,21,231,0
663137,36,18,232,0
663148,31,17,229,0
663159,30,15,227,0
663170,33,15,228,0
663181,32,19,223,0
663192,34,13,227,0
663203,36,21,230,0
663214,36,20,232,0
663225,40,26,233,0
663236,44,27,236,0
663247,48,25,243,0
663258,51,25,247,0
663269,53,32,243,0
663280,49,32,236,0
663291,51,28,229,0
663302,54,25,226,0
663313,56,25,228,0
663324,59,21,240,0
663335,63,22,242,0
663346,60,19,243,0
663357,60,25,238,0
663368,57,32,230,0
663379,41,34,230,0
663390,34,39,233,0
663401,27,40,238,0
663412,22,41,244,0
663423,21,39,244,0
663434,21,35,236,0
663445,21,36,233,0
663456,25,31,229,0
663467,31,29,228,0
663478,36,33,225,0
663489,38,34,227,0
663500,36,37,231,0
663511,34,37,233,0
663522,30,36,235,0
663533,24,37,232,0
663544,18,38,228,0
663555,20,43,224,0
663566,25,59,215,0
663577,27,59,208,0
663588,25,52,199,0
663599,19,35,198,0
663610,16,20,204,0
663621,19,11,225,0
663632,33,2,254,0
663643,60,5,270,0
663654,87,20,267,0
663665,107,33,254,0
663676,113,44,237,0
663687,87,27,231,0
663698,63,27,235,0
663709,41,34,231,0
663720,28,31,216,0
663731,16,22,195,0
663742,8,10,178,0
663753,4,4,169,0
663764,4,-2,176,0
663775,1,-3,196,0
663786,6,-2,213,0
663797,20,18,227,0
663808,36,14,238,0
663819,46,12,232,0
663830,46,17,219,0
663841,32,23,216,0
663852,26,33,231,0
663864,22,45,243,0
663875,11,52,250,0
663886,-9,60,251,0
663897,-21,63,255,0
663908,-24,59,252,0
663919,-23,56,247,0
663930,-18,52,241,0
663941,-11,50,232,0
663952,0,48,215,0
663963,11,52,195,0
663974,28,46,191,0
663985,32,45,199,0
663996,32,42,211,0
664007,29,42,222,0
664018,27,45,222,0
664029,25,51,218,0
664040,22,52,213,0
664051,19,56,209,0
664062,21,53,207,0
664073,21,56,207,0
664084,17,57,207,0
664095,18,52,209,0
664106,14,48,211,0
664117,11,49,209,0
664128,11,48,216,0
664139,10,63,239,0
664150,10,62,257,0
664161,14,69,268,0
664172,17,71,265,0
664183,15,66,250,0
664194,12,51,228,0
664205,-5,50,208,1
664216,-27,62,199,0
664227,-26,62,186,0
664238,-27,69,154,0
664249,-28,75,122,0
664260,7,71,95,0
664271,66,62,88,0
664282,59,-16,101,0
664293,-1,-42,158,0
664304,-32,-67,216,0
664315,-31,-32,286,0
664326,-5,29,389,0
664337,31,34,479,0
664348,58,59,511,0
664359,117,71,511,0
664370,153,58,511,0
664381,150,69,511,0
664392,116,87,511,0
664403,73,66,487,0
664414,12,54,459,0
664425,-41,51,456,0
664436,-81,60,449,0
664447,-74,94,433,0
664458,-65,90,381,0
664469,-49,67,317,0
664480,-52,25,264,0
664491,-64,-19,221,0
664502,-77,-22,198,0
664513,-77,-11,170,0
664524,-68,2,135,0
664535,-56,18,107,0
664546,-51,7,89,0
664557,-36,24,83,0
664568,11,60,-28,0
664579,29,25,18,0
664590,99,2,-44,0
664601,101,-13,-56,0
664612,113,-30,-68,0
664623,131,-11,-80,0
664634,131,19,-88,0
664645,102,-2,-63,1
664656,94,-29,-44,0
664667,89,-42,-13,0
664678,172,-154,14,0
664689,321,-233,64,0
664700,136,131,195,0
664711,127,31,236,0
664722,116,-17,347,0
664733,-13,-9,336,0
664744,-127,80,511,0
664755,-151,53,511,0
664766,-129,97,471,0
664777,-102,83,418,0
664788,-91,31,396,0
664799,-63,44,383,0
664810,-38,73,394,0
664821,12,169,347,0
664832,-25,87,382,0
664843,-41,116,390,0
664854,-8,90,372,0
664865,2,82,347,0
664876,1,92,329,0
664887,-6,107,302,0
664898,-19,109,255,0
664909,-19,89,213,0
664920,-20,73,202,0
664932,-3,41,182,0
664943,22,8,148,0
664954,42,5,134,0
664965,54,15,112,0
664976,65,19,72,0
664987,64,44,41,0
664998,63,21,11,0
665009,54,-7,-49,0
665020,40,15,-67,1
665031,26,41,-70,0
665042,31,-7,-126,0
665053,128,10,-134,0
665064,218,41,-121,0
665075,157,-50,-17,0
665086,81,-249,86,0
665097,70,-251,149,0
665108,50,-142,280,0
665119,-3,-22,511,0
665130,6,124,511,0
665141,110,341,511,0
665153,122,182,511,0
665164,76,67,511,0
665175,-22,55,501,0
665186,-119,102,484,0
665197,-165,98,487,0
665208,-152,125,462,0
665219,-130,164,450,0
665230,-112,178,400,0
665241,-95,134,321,0
665252,-75,116,272,0
665263,-93,75,235,0
665274,-3,55,226,0
665285,26,115,97,0
665296,22,178,59,0
665307,64,112,69,0
665318,128,-15,85,0
665329,191,-53,30,0
665340,216,-1,-130,0
665351,220,-58,-160,0
665362,168,-19,-145,0
665373,139,52,-146,0
665384,143,43,-102,0
665395,169,-10,-103,0
665406,243,-74,-77,0
665417,174,-68,-67,0
665428,59,-18,26,1
665439,-40,67,124,0
665450,171,-211,185,0
665461,133,-68,293,0
665472,-46,129,445,0
665483,3,-182,453,0
665494,-85,-146,396,0
665505,-144,-90,430,0
665516,-16,-25,363,0
665527,8,2,320,0
665538,-30,20,355,0
665549,-9,75,451,0
665560,-8,62,448,0
665571,-25,110,491,0
665582,-39,143,511,0
665593,-76,138,476,0
665604,-78,114,453,0
665615,-70,94,392,0
665626,-55,85,359,0
665637,-51,89,339,0
665648,-27,81,305,0
665659,-3,72,269,0
665670,16,54,206,0
665681,29,33,171,0
665692,37,3,118,0
665703,48,-7,60,0
665714,55,6,59,0
665725,59,18,53,0
665736,61,35,33,0
665747,61,21,-2,0
665758,51,15,-26,0
665769,24,15,-35,0
665780,3,-1,-53,1
665791,-2,-24,-74,0
665802,127,20,-127,0
665813,147,-9,-120,0
665824,91,-111,-41,0
665835,65,-168,12,0
665846,56,-100,79,0
665857,40,-15,207,0
665868,28,16,431,0
665879,-7,55,511,0
665890,-6,251,511,0
665901,114,268,511,0
665912,126,142,511,0
665923,65,124,511,0
665934,9,156,504,0
665945,-25,136,490,0
665956,-82,139,506,0
665967,-47,112,473,0
665978,-60,138,453,0
665989,-56,75,363,0
666000,-66,45,287,0
666011,-71,5,246,0
666022,-64,-64,212,0
666034,-37,8,143,0
666045,-49,143,94,0
666056,-23,100,99,0
666067,44,21,85,0
666078,70,35,30,0
666089,81,61,-5,0
666100,116,12,-67,0
666111,138,-23,-96,0
666122,153,-12,-123,0
666133,187,-49,-213,1
666144,137,9,-71,0
666155,158,-80,-108,0
666166,128,-51,-49,0
666177,92,-75,-18,0
666188,63,-46,3,0
666199,33,-88,9,0
666210,155,-363,54,0
666221,277,-14,308,0
666232,-11,173,330,0
666243,15,-81,410,0
666254,-69,23,511,0
666265,-50,56,511,0
666276,-25,-39,374,0
666287,17,16,274,0
666298,34,-9,242,0
666309,57,52,291,0
666320,86,78,413,0
666331,101,178,511,0
666342,81,148,492,0
666353,35,107,431,0
666364,21,66,405,0
666375,10,59,371,0
666386,7,51,352,0
666397,5,47,338,0
666408,-10,48,282,0
666419,-29,56,252,0
666430,-41,55,208,0
666441,-39,38,168,0
666452,-26,14,128,0
666463,-6,-10,97,0
666474,20,-35,61,0
666485,47,-39,17,0
666496,65,-34,-15,0
666507,90,-17,-33,0
666518,90,3,-99,0
666529,53,16,-108,0
666540,10,-8,-113,0
666551,-16,-28,-110,0
666562,-39,-39,-122,0
666573,-18,-30,-85,0
666584,56,-16,-79,1
666595,234,33,-80,0
666606,176,-14,58,0
666617,197,-224,250,0
666628,115,-231,330,0
666639,-15,-38,457,0
666650,-4,246,511,0
666661,133,492,511,0
666672,212,172,511,0
666683,214,33,511,0
666694,188,34,433,0
666705,131,119,485,0
666716,40,128,511,0
666727,-2,164,511,0
666738,-33,142,511,0
666749,-40,121,475,0
666760,-39,110,421,0
666771,-42,101,361,0
666782,-46,77,319,0
666793,-35,41,275,0
666804,-31,33,243,0
666815,-29,33,180,0
666826,-24,36,150,0
666837,-18,22,120,0
666848,-23,-1,121,0
666859,-5,5,50,0
666870,40,56,-18,0
666881,39,18,-14,0
666892,53,-7,-50,0
666903,53,-15,-65,0
666914,71,-32,-116,0
666925,70,-8,-82,1
666936,67,-20,-90,0
666947,60,-30,-93,0
666958,61,-31,-78,0
666969,86,-83,-51,0
666980,113,-118,-21,0
666991,89,22,12,0
667002,29,102,74,0
667013,67,-11,140,0
667024,116,-13,212,0
667035,86,-68,474,0
667046,143,-61,511,0
667057,142,80,511,0
667068,115,62,511,0
667079,113,11,345,0
667090,99,-38,310,0
667101,74,-9,359,0
667112,34,34,394,0
667123,-20,74,447,0
667134,-56,182,511,0
667145,-73,136,493,0
667156,-90,139,469,0
667167,-80,127,440,0
667178,-62,106,391,0
667189,-7,79,320,0
667200,0,54,267,0
667211,0,42,234,0
667222,6,44,220,0
667233,7,50,184,0
667244,-4,34,132,0
667255,4,-5,97,0
667266,31,-26,75,0
667277,54,-17,39,0
667288,58,-14,-10,0
667299,54,-39,-55,0
667310,58,-54,-87,0
667321,56,-43,-100,1
667333,60,5,-113,0
667344,67,6,-111,0
667355,109,-14,-107,0
667366,137,-46,-72,0
667377,152,-108,-24,0
667388,130,-121,85,0
667399,121,-96,173,0
667410,126,-23,336,0
667421,33,41,511,0
667432,-74,199,511,0
667443,6,386,511,0
667454,-6,174,511,0
667465,2,81,511,0
667476,-85,174,511,0
667487,-100,145,502,0
667498,-102,128,478,0
667509,-84,110,452,0
667520,-62,74,449,0
667531,-50,31,402,0
667542,-58,-1,327,0
667553,-52,-3,282,0
667564,-47,5,269,0
667575,-44,5,279,0
667586,-34,10,218,0
667597,16,101,121,0
667608,3,83,84,0
667619,-3,49,68,0
667630,95,60,-105,0
667641,59,-21,-117,0
667652,163,-347,8,0
667663,95,33,-308,0
667674,67,3,-180,0
667685,88,24,-209,1
667696,70,9,-140,0
667707,91,-28,-96,0
667718,69,3,-59,0
667729,31,38,20,0
667740,-1,26,59,0
667752,-25,-71,62,0
667763,157,-426,22,0
667774,182,-10,315,0
667785,136,0,313,0
667796,191,143,511,0
667807,81,90,511,0
667818,45,168,511,0
667829,-20,88,465,0
667840,-50,52,398,0
667851,-53,51,374,0
667862,-32,88,391,0
667873,45,93,400,0
667884,29,-113,113,0
667895,79,395,511,0
667906,13,45,290,0
667917,-179,511,120,0
667928,119,129,259,0
667939,78,23,224,0
667950,70,98,271,0
667961,40,72,255,0
667972,31,56,251,0
667983,35,30,198,0
667994,83,67,196,0
668005,-15,33,202,0
668016,15,18,145,0
668027,43,-14,45,0
668038,77,-14,-12,0
668049,66,-12,-57,0
668060,25,-5,-73,0
668071,-43,-30,-90,0
668082,-76,-52,-144,1
668093,-80,-12,-97,0
668104,-29,-4,-85,0
668115,70,-7,-96,0
668126,189,-26,-56,0
668137,186,-92,105,0
668148,225,-139,157,0
668159,202,-74,190,0
668170,255,109,420,0
668181,330,311,511,0
668192,330,511,511,0
668203,267,307,511,1
668214,92,191,450,0
668225,202,127,355,0
668236,-24,207,375,0
668247,-5,208,412,0
668258,-128,297,425,0
668269,-47,241,424,0
668280,-21,169,349,0
668291,-83,37,353,0
668302,-42,68,229,0
668313,-70,127,186,0
668324,-70,134,215,0
668335,-93,77,146,0
668346,-33,111,121,0
668357,65,110,62,0
668368,38,60,12,0
668379,69,7,-33,0
668390,92,-57,-66,0
668401,91,-43,-91,0
668412,103,-61,-144,0
668423,122,-23,-174,0
668434,119,46,-179,0
668445,168,-5,-178,0
668456,166,-41,-112,1
668467,160,-80,-87,0
668478,101,-66,-35,0
668489,130,-183,38,0
668500,196,-204,57,0
668511,143,101,235,0
668522,119,18,262,0
668533,124,-28,265,0
668544,42,63,511,0
668555,-57,186,511,0
668566,14,159,465,0
668577,25,131,403,0
668588,82,115,386,0
668599,134,166,396,0
668610,169,182,402,0
668621,70,501,511,0
668632,91,305,450,0
668643,98,132,250,0
668654,90,141,269,0
668665,24,144,279,0
668676,88,125,238,0
668687,72,165,284,0
668698,-12,152,282,0
668709,-67,97,263,0
668720,30,76,214,0
668731,42,25,195,0
668742,63,-12,161,0
668753,63,-35,110,0
668764,60,-13,63,0
668775,39,3,17,0
668786,28,-2,-36,0
668797,2,-16,-51,0
668808,3,-46,-38,1
668819,-31,-46,-76,0
668830,-85,-66,-123,0
668841,-101,-46,-113,0
668852,41,-34,-136,0
668863,134,-33,-119,0
668874,163,-123,-26,0
668885,171,-145,131,0
668896,186,-96,159,0
668907,143,47,275,0
668918,309,214,511,0
668929,422,465,511,0
668940,375,511,511,0
668951,291,276,511,0
668962,37,255,488,0
668973,315,90,359,0
668984,-238,427,483,0
668995,-45,143,358,0
669006,-98,359,491,0
669017,-28,225,418,0
669028,-25,134,372,0
669039,-8,91,312,0
669050,-23,78,218,0
669061,-42,109,177,0
669072,-45,81,164,0
669083,-14,73,144,0
669094,27,80,123,0
669105,48,53,77,0
669116,61,30,28,0
669127,81,25,-20,0
669138,80,1,-64,0
669149,7,-78,-115,0
669160,-19,-41,-201,0
669171,-51,-39,-226,0
669182,-43,7,-155,1
669193,37,-26,-173,0
669204,33,0,-111,0
669215,53,-30,-94,0
669226,71,-62,-65,0
669237,94,-100,-18,0
669248,118,-120,6,0
669259,174,-126,88,0
669270,145,21,62,0
669281,170,-7,242,0
669292,300,-154,198,0
669303,421,41,442,0
669314,482,194,511,0
669325,372,404,511,0
669336,257,149,344,0
669347,145,-25,211,0
669358,96,79,267,0
669369,282,402,408,0
669380,-126,408,490,0
669391,100,242,423,0
669402,74,309,447,0
669413,57,281,412,0
669424,52,203,334,0
669435,49,106,241,0
669446,53,86,195,0
669457,103,132,221,0
669468,60,110,204,0
669479,45,64,144,0
669490,28,9,145,0
669501,40,84,206,0
669512,-13,17,120,0
669524,-39,4,70,0
669535,-50,10,58,0
669546,-50,9,30,1
669557,111,53,-33,0
669568,-16,-31,-38,0
669579,1,-51,-51,0
669590,38,-17,-34,0
669601,-15,-35,-42,0
669612,18,-44,-117,0
669623,73,-40,-79,0
669634,68,-13,-76,0
669645,83,-50,-70,0
669656,82,-59,-53,0
669667,119,-79,-42,0
669678,152,-54,19,0
669689,259,1,127,1
669700,377,-127,341,0
669711,245,-220,511,0
669722,338,435,511,0
669733,326,511,511,0
669744,446,511,511,0
669755,170,159,396,0
669766,16,273,437,0
669777,24,344,493,0
669788,35,375,511,0
669799,21,210,386,0
669810,100,224,378,0
669821,7,121,340,0
669832,11,133,351,0
669843,3,140,374,0
669854,13,81,301,0
669865,24,78,239,0
669876,54,115,215,0
669887,67,104,152,0
669898,50,44,75,0
669909,79,19,16,0
669920,37,-32,-48,0
669931,22,-5,-62,0
669942,29,-34,-107,0
669953,9,-11,-75,0
669964,28,8,-112,0
669975,63,-20,-125,0
669986,16,-31,-149,0
669998,-53,2,-124,0
670009,-20,-24,-103,0
670020,21,-55,-96,0
670031,42,-53,-64,1
670042,36,-17,-55,0
670053,62,-43,-11,0
670064,85,17,62,0
670075,165,-61,114,0
670086,246,15,276,0
670097,262,30,506,0
670108,406,58,511,0
670119,374,214,511,0
670130,371,319,511,0
670141,110,150,303,0
670152,125,61,316,0
670163,52,68,285,1
670174,33,108,319,0
670185,100,89,357,0
670196,-27,511,511,0
670207,-14,353,492,0
670218,-1,313,425,0
670229,9,187,311,0
670240,15,123,236,0
670251,26,168,272,0
670262,66,183,276,0
670273,46,148,236,0
670284,20,88,185,0
670295,-2,95,168,0
670306,6,94,148,0
670317,-66,45,158,0
670328,-38,11,111,0
670339,2,-22,68,0
670350,12,-27,5,0
670361,-7,-30,-49,1
670372,33,-17,-13,0
670383,-26,-62,-35,0
670394,38,7,-164,0
670405,30,-19,-74,0
670416,55,-27,-103,0
670427,40,-29,-51,0
670438,71,-75,-39,0
670449,102,-53,38,0
670460,126,-93,97,0
670471,159,-119,194,0
670482,184,-110,320,0
670493,190,14,511,0
670504,219,355,511,0
670515,511,511,511,0
670526,292,50,245,0
670537,69,380,440,0
670548,130,319,378,0
670559,94,226,364,0
670570,107,271,432,0
670581,94,108,322,0
670592,81,57,304,0
670603,122,103,316,0
670614,109,165,343,0
670625,80,83,247,0
670636,119,82,200,0
670647,152,131,206,0
670658,83,83,165,0
670669,76,43,77,0
670680,66,123,-62,0
670691,45,3,13,0
670702,37,-75,-50,0
670713,51,-33,-93,0
670724,38,4,-106,0
670735,38,-7,-112,0
670746,15,-13,-120,1
670757,-3,-9,-148,0
670768,-23,33,-162,0
670779,41,-3,-105,0
670790,44,-23,-96,0
670801,46,-7,-77,0
670812,46,31,-30,0
670823,30,-4,7,0
670834,-60,70,37,0
670845,48,-38,136,0
670856,119,-1,264,0
670868,91,66,473,0
670879,144,-9,511,0
670890,114,167,511,0
670901,123,358,511,0
670912,83,158,474,0
670923,40,15,360,0
670934,-22,-3,346,0
670945,-54,71,351,0
670956,11,166,430,0
670967,-27,268,497,0
670978,-14,309,469,0
670989,31,281,440,0
671000,35,193,323,0
671011,63,75,200,0
671022,75,159,267,0
671033,44,224,317,0
671044,39,106,177,0
671055,-9,93,203,0
671066,68,83,140,0
671077,37,112,213,0
671088,-16,111,129,0
671099,-3,90,57,0
671110,-44,67,73,0
671121,-72,55,79,1
671132,64,17,44,0
671143,-103,-49,0,0
671154,-94,-45,-79,0
671165,-25,8,-56,0
671176,-13,2,-101,0
671187,17,31,-68,0
671198,40,40,-58,0
671209,84,-1,-59,0
671220,136,-27,-45,0
671231,200,-61,-34,0
671242,269,-90,50,0
671253,353,-155,156,0
671264,343,-144,349,0
671275,234,-58,511,0
671286,263,450,511,0
671297,208,352,493,0
671308,209,511,511,0
671319,143,24,162,0
671330,-355,511,511,0
671341,-42,331,435,0
671352,-57,307,449,0
671363,15,268,446,0
671374,42,184,372,0
671385,62,193,367,0
671396,4,117,315,0
671407,-94,92,307,0
671418,32,190,318,0
671429,12,115,208,0
671440,78,139,57,0
671451,27,92,-32,0
671462,-22,31,-45,0
671473,70,45,-63,0
671484,42,-31,-91,0
671495,6,-77,-106,0
671506,61,-57,-111,0
671517,80,-42,-144,0
671528,95,-14,-176,0
671539,117,-14,-222,1
671550,106,-53,-161,0
671561,134,-64,-152,0
671572,90,-16,-105,0
671583,35,2,-35,0
671594,34,-96,-56,0
671605,231,-227,42,0
671616,316,-18,169,0
671627,270,161,398,0
671638,247,28,289,0
671649,122,-20,215,0
671660,47,8,357,0
671671,83,110,511,0
671682,80,182,511,0
671693,-172,236,511,0
671704,22,134,432,0
671715,47,156,392,0
671726,37,511,511,0
671738,-16,416,469,0
671749,6,246,351,0
671760,-81,303,436,0
671771,41,348,425,0
671782,-59,55,217,0
671793,44,-3,161,0
671804,141,140,255,0
671815,65,163,286,0
671826,75,105,226,0
671837,94,102,170,0
671848,105,132,166,0
671859,96,67,147,0
671870,119,34,105,0
671881,98,62,43,0
671892,93,61,29,0
671903,73,27,-27,0
671914,32,25,-36,0
671925,41,4,-57,1
671936,11,8,-64,0
671947,-3,-28,-95,0
671958,-13,-55,-113,0
671969,-15,-69,-116,0
671980,-4,-53,-111,0
671991,7,-28,-98,0
672002,77,-41,-152,0
672013,173,-27,-168,0
672024,183,-120,-44,0
672035,159,-117,193,0
672046,140,-19,358,0
672057,248,117,511,0
672068,62,450,511,0
672079,177,511,511,0
672090,108,470,511,0
672101,89,221,390,0
672112,119,471,460,0
672123,-70,362,432,0
672134,-46,312,400,0
672145,-77,274,405,0
672156,-23,303,423,0
672167,-54,193,332,0
672178,-35,141,273,0
672189,15,84,201,0
672200,71,109,226,0
672211,103,94,145,0
672222,109,126,105,0
672233,126,110,78,0
672244,127,91,78,0
672255,128,72,54,0
672266,129,27,5,0
672277,66,0,-53,0
672288,115,18,-112,0
672299,136,2,-133,0
672310,187,-105,-146,0
672321,110,-89,-216,0
672332,87,-36,-169,0
672343,95,-27,-83,1
672354,91,-31,-62,0
672365,86,-55,-80,0
672376,115,-85,-44,0
672387,101,18,-27,0
672398,45,31,70,0
672409,40,5,105,0
672420,-2,29,184,0
672431,10,-5,290,0
672442,74,-33,418,0
672453,50,-78,511,0
672464,99,256,511,0
672475,47,463,511,0
672486,7,217,393,0
672497,55,74,321,0
672508,57,285,440,0
672519,-7,241,407,0
672531,-17,414,511,0
672542,-52,267,415,0
672553,-26,266,430,0
672564,-8,287,426,0
672575,-12,135,267,0
672586,-7,164,298,0
672597,49,221,319,0
672608,30,176,295,0
672619,51,149,242,0
672630,67,110,171,0
672641,84,62,127,0
672652,77,37,98,0
672663,86,40,60,0
672674,83,28,8,0
672685,76,15,-41,0
672696,75,-19,-67,0
672707,74,-33,-110,0
672718,38,-16,-107,0
672729,4,-33,-126,0
672740,-24,-61,-106,0
672751,-40,-58,-97,1
672762,-29,-23,-90,0
672773,-5,11,-91,0
672784,69,35,-133,0
672795,176,-66,7,0
672806,208,-199,172,0
672817,195,-238,330,0
672828,178,-87,511,0
672839,201,186,511,0
672850,467,511,511,0
672861,344,340,471,0
672872,285,213,422,0
672883,83,202,389,0
672894,217,32,192,0
672905,-100,437,511,0
672916,-271,259,323,0
672927,40,93,339,0
672938,-63,317,455,0
672949,-81,135,253,0
672960,-27,80,160,0
672971,10,148,191,0
672982,-32,188,236,0
672993,15,142,166,0
673004,87,104,98,0
673015,115,79,84,0
673026,133,67,86,0
673037,120,-35,58,0
673048,142,-51,1,0
673059,221,-21,-96,0
673070,173,19,-131,0
673081,125,-42,-150,0
673092,193,4,-207,0
673103,155,-110,-190,0
673114,97,2,-115,1
673125,68,-19,-94,0
673136,36,-60,-87,0
673147,-8,-49,-82,0
673158,-31,-77,-48,0
673169,-27,-81,31,0
673180,-26,-119,48,0
673191,50,-73,157,0
673202,185,30,395,0
673213,180,75,505,0
673224,246,234,511,0
673235,-175,356,511,0
673246,44,277,481,0
673257,50,333,501,0
673268,42,190,370,0
673279,52,105,324,0
673290,17,331,485,0
673301,20,204,376,0
673312,19,234,390,0
673323,18,236,381,0
673334,30,222,347,0
673345,38,226,338,0
673356,41,226,346,0
673367,33,200,326,0
673378,57,150,277,0
673389,108,115,214,0
673400,71,91,190,0
673411,35,61,149,0
673422,1,-50,56,0
673433,196,31,-42,0
673444,45,-15,-6,0
673455,36,23,-17,0
673466,13,11,-48,0
673477,0,-12,-34,0
673488,20,-13,-146,1
673499,-63,-15,-70,0
673510,-25,8,-93,0
673521,-1,21,-69,0
673532,31,-2,-91,0
673543,143,45,-144,0
673554,189,15,-117,0
673565,235,-134,45,0
673576,218,-187,241,0
673587,280,-43,499,0
673598,337,113,511,0
673609,416,495,511,0
673620,324,329,458,0
673631,290,323,486,0
673642,220,66,224,0
673653,-4,499,511,0
673664,25,294,458,0
673675,-8,163,411,0
673686,13,195,434,0
673697,1,163,383,0
673708,11,100,317,0
673719,36,89,270,0
673730,-38,126,267,0
673741,68,131,207,0
673752,80,57,81,0
673763,100,138,118,0
673774,120,148,94,0
673785,95,92,38,0
673796,63,78,51,0
673807,187,14,-75,0
673818,99,-56,-120,0
673829,114,-60,-142,0
673840,158,-21,-213,0
673851,73,28,-184,0
673862,63,-10,-154,0
673873,95,-29,-95,0
673884,76,-36,-26,1
673895,120,-92,-64,0
673906,79,-49,-76,0
673917,29,18,5,0
673928,-36,-11,65,0
673940,58,-67,86,0
673951,49,-35,147,0
673962,62,-79,297,0
673973,34,64,466,0
673984,-5,111,511,0
673995,-145,184,511,0
674006,13,233,511,0
674017,59,144,446,0
674028,15,170,400,1
674039,19,151,389,0
674050,34,247,460,0
674061,25,254,412,0
674072,-1,278,420,0
674083,-10,311,433,0
674094,16,245,367,0
674105,7,137,267,0
674116,6,147,275,0
674127,-2,212,335,0
674138,27,273,372,0
674149,69,117,178,0
674160,15,179,225,0
674171,-30,168,226,0
674182,3,68,143,0
674193,-10,18,73,0
674204,157,63,59,0
674215,28,-1,52,0
674226,20,9,-5,0
674238,38,7,-119,0
674249,5,-6,-62,0
674260,2,-17,-133,0
674271,-34,-51,-108,0
674282,-38,-45,-127,0
674293,-31,-17,-105,1
674304,-16,23,-91,0
674315,92,2,-144,0
674326,148,58,-137,0
674337,182,-51,-6,0
674348,232,-243,176,0
674359,196,-255,223,0
674370,193,-75,333,0
674381,316,70,511,0
674392,433,363,511,0
674403,423,511,511,0
674414,308,221,403,0
674425,250,234,427,0
674436,186,-4,200,0
674447,-94,511,511,0
674458,52,172,363,0
674469,80,291,389,0
674480,-49,174,348,0
674491,3,179,328,0
674502,-26,131,268,0
674513,11,103,250,0
674524,67,104,290,0
674535,92,-19,200,0
674546,73,85,83,0
674557,91,138,79,0
674568,85,86,98,0
674579,107,85,106,0
674590,124,66,18,0
674601,77,-6,-47,0
674612,37,-76,-92,0
674623,77,-41,-86,0
674634,55,-80,-134,0
674645,52,-46,-136,0
674656,33,-45,-141,0
674667,58,-11,-82,0
674678,62,-39,-65,1
674689,44,-53,-44,0
674700,53,-39,-24,0
674711,-1,29,-16,0
674722,-40,68,80,0
674733,-49,38,124,0
674744,0,34,204,0
674755,85,13,298,0
674766,221,-60,484,0
674777,262,511,511,0
674788,138,449,501,0
674799,98,249,375,0
674810,84,61,260,0
674821,77,79,274,0
674832,101,173,309,0
674843,46,143,308,0
674854,44,417,505,0
674865,20,290,422,0
674876,36,304,407,0
674887,25,331,397,0
674898,20,238,295,0
674909,23,219,273,0
674920,-3,235,295,0
674931,66,122,184,0
674942,99,114,173,0
674953,103,98,141,0
674964,101,88,103,0
674975,108,82,57,0
674986,112,88,17,0
674997,119,65,-15,0
675008,117,24,-33,0
675019,105,-30,-62,0
675030,66,-59,-57,0
675041,33,-44,-49,0
675052,41,-25,-50,0
675063,31,-16,-64,1
675074,29,19,-72,0
675085,47,-10,-119,0
675096,42,-55,-104,0
675107,50,-77,-86,0
675118,49,-86,-58,0
675129,67,-48,-9,0
675140,145,23,43,0
675151,120,-74,335,0
675162,22,-247,511,0
675173,122,346,511,0
675184,373,511,511,0
675195,438,387,503,1
675206,307,327,511,0
675217,170,170,366,0
675228,112,-37,104,0
675239,-62,272,425,0
675250,-39,281,409,0
675261,-31,420,511,0
675272,-23,240,331,0
675283,-2,137,210,0
675294,43,109,146,0
675305,33,154,205,0
675316,103,200,201,0
675327,131,169,172,0
675338,131,81,85,0
675349,182,117,86,0
675360,170,98,56,0
675371,154,57,8,0
675382,169,19,-11,0
675393,116,24,-30,0
675404,88,62,-57,0
675415,155,89,-109,0
675426,91,69,-93,0
675437,28,13,-84,0
675448,66,-43,-36,0
675459,99,-61,-34,1
675470,69,-38,-2,0
675481,37,-86,-40,0
675492,61,-73,-21,0
675503,45,-50,-18,0
675514,6,35,-4,0
675525,-75,53,46,0
675536,20,8,191,0
675547,61,99,304,0
675558,147,50,421,0
675569,253,75,496,0
675580,378,296,511,0
675591,337,511,511,0
675602,176,402,511,0
675613,123,218,371,0
675624,116,150,319,0
675635,93,159,353,0
675646,115,232,382,0
675657,70,351,453,0
675668,101,352,463,0
675679,73,316,407,0
675690,96,308,362,0
675701,122,208,221,0
675712,138,186,211,0
675723,138,236,254,0
675734,131,236,264,0
675745,116,114,175,0
675756,119,88,163,0
675767,141,110,136,0
675778,63,105,93,0
675789,19,106,74,0
675800,32,77,57,0
675811,20,49,40,0
675822,20,18,16,0
675833,18,-1,14,0
675844,37,-30,-21,0
675855,16,-30,-8,1
675866,-41,-40,1,0
675877,-38,-10,-54,0
675888,-55,-17,-57,0
675899,-14,-19,-66,0
675910,64,44,-56,0
675921,106,62,-25,0
675932,143,-2,69,0
675943,197,-98,224,0
675954,189,-86,411,0
675965,95,18,511,0
675976,69,341,511,0
675987,256,511,511,0
675998,303,402,433,0
676009,258,262,330,0
676020,238,327,425,0
676031,166,142,302,0
676042,148,158,382,0
676053,131,174,400,0
676064,97,137,355,0
676075,66,82,289,0
676086,67,83,250,0
676097,87,118,231,0
676108,-2,119,230,0
676119,24,201,267,0
676130,34,180,215,0
676142,66,78,81,0
676153,108,107,125,0
676164,53,13,30,0
676175,174,34,-46,0
676186,90,6,-66,0
676197,58,-13,-52,0
676208,57,-45,-67,0
676219,41,-73,-87,0
676230,39,-73,-97,1
676241,70,-61,-101,0
676252,55,-51,-93,0
676263,59,-55,-67,0
676274,89,-93,-54,0
676285,165,-104,5,0
676296,152,-60,48,0
676307,46,125,102,0
676318,53,130,333,0
676329,6,88,348,0
676340,92,196,448,0
676351,102,208,511,0
676362,42,269,511,0
676373,46,262,442,0
676384,69,102,307,0
676395,113,63,280,0
676406,127,122,325,0
676417,103,487,148,0
676428,240,225,353,0
676439,160,153,424,0
676450,114,182,350,0
676461,87,204,356,0
676472,96,210,359,0
676483,69,141,292,0
676494,44,139,269,0
676505,44,155,246,0
676516,26,143,213,0
676527,8,106,166,0
676538,12,86,158,0
676549,16,49,140,0
676560,57,-24,118,0
676571,51,-14,74,0
676582,29,0,52,0
676593,-22,-3,38,0
676604,15,14,-24,1
676615,-38,-25,-30,0
676626,-45,-49,-38,0
676637,-80,-74,-21,0
676648,-27,-24,-20,0
676659,38,-68,-162,0
676670,146,-28,-156,0
676681,233,-70,-88,0
676692,263,-195,59,0
676703,246,-170,122,0
676714,274,-21,142,0
676725,390,177,335,0
676736,511,253,511,0
676747,511,511,511,0
676758,511,484,511,0
676769,314,254,402,0
676780,199,248,394,0
676791,57,189,387,0
676802,32,154,383,0
676813,1,142,370,0
676824,-48,248,459,0
676835,-63,252,412,0
676846,-56,206,370,0
676857,-28,85,305,0
676868,32,84,248,0
676879,7,76,159,0
676890,-47,104,157,0
676901,-55,114,139,0
676912,-33,114,114,0
676923,13,-35,39,0
676934,94,-29,11,0
676945,137,-25,-14,0
676956,114,-29,-7,0
676967,62,-40,-66,0
676978,49,-40,-110,0
676989,32,-20,-126,0
677000,24,-6,-134,0
677011,-10,1,-116,1
677022,60,12,-95,0
677033,-24,-11,-106,0
677044,78,-48,-64,0
677055,150,-86,-61,0
677066,108,-62,-28,0
677077,87,-31,23,0
677088,212,-364,97,0
677099,379,224,244,0
677110,287,128,511,0
677121,186,195,511,0
677132,280,511,511,0
677143,-39,204,506,0
677154,-42,112,427,0
677165,-52,17,317,0
677176,-19,45,284,0
677187,85,121,350,0
677198,137,193,396,0
677209,153,492,511,0
677220,109,243,395,0
677231,89,209,357,0
677242,49,183,299,0
677253,25,106,235,0
677264,11,119,253,0
677275,-6,142,247,0
677286,-22,87,228,0
677297,49,140,225,0
677308,-32,59,179,0
677319,27,79,174,0
677330,68,37,120,0
677341,56,0,85,0
677352,0,21,96,0
677363,-17,39,107,0
677374,-15,16,70,0
677385,147,47,-72,0
677396,-17,-39,3,0
677407,-15,-50,-37,0
677418,-20,-50,-27,0
677430,-29,-40,46,0
677441,16,-39,-109,0
677452,62,-18,-73,1
677463,59,-74,-25,0
677474,121,-61,-4,0
677485,155,42,-13,0
677496,229,37,80,0
677507,298,-159,277,0
677518,300,-215,476,0
677529,503,511,511,0
677540,511,511,511,0
677551,349,363,413,0
677562,268,276,316,0
677573,173,305,329,0
677584,120,328,394,0
677595,36,142,322,0
677606,29,155,390,0
677617,95,166,388,0
677628,-87,118,409,0
677639,29,118,329,0
677650,81,112,268,0
677661,62,60,187,0
677672,118,263,314,0
677683,59,22,79,0
677694,116,109,115,0
677705,74,107,98,0
677716,50,33,-16,0
677727,32,-29,-78,0
677739,32,-33,-82,0
677750,9,-28,-77,0
677761,-14,-35,-96,0
677772,-21,-32,-142,0
677783,11,-34,-190,0
677794,-46,-8,-207,0
677805,91,-88,-198,0
677816,63,22,-74,0
677827,62,-40,-58,0
677839,135,-128,12,1
677850,182,-88,57,0
677861,143,87,262,0
677872,153,103,271,0
677883,74,77,386,0
677894,106,152,511,0
677905,94,206,511,0
677916,-42,341,511,0
677927,-17,185,445,0
677938,1,40,322,0
677949,66,63,330,0
677960,132,237,436,0
677971,274,230,365,0
677982,166,511,511,0
677993,108,331,440,0
678004,105,116,224,0
678015,63,260,367,0
678027,97,120,189,0
678038,89,127,232,0
678049,100,209,312,0
678060,34,170,324,0
678071,54,145,276,0
678082,50,89,229,0
678093,54,74,203,0
678104,-23,28,148,0
678115,-15,-32,61,0
678126,-13,-24,-11,0
678137,-26,-1,-31,0
678148,-74,-46,-45,0
678159,-92,-70,-73,1
678170,-105,-82,-83,0
678181,-105,-52,-73,0
678192,-66,-18,-97,0
678203,-4,32,-41,0
678214,69,16,-108,0
678225,167,37,-79,0
678236,204,-46,17,0
678247,255,-79,188,0
678258,243,17,312,0
678269,294,70,511,0
678280,375,277,511,0
678291,511,407,511,0
678302,358,215,409,1
678313,252,51,251,0
678324,80,489,492,0
678335,90,366,413,0
678346,73,249,356,0
678357,57,385,470,0
678368,40,190,339,0
678379,86,127,286,0
678390,-3,165,320,0
678401,-4,134,299,0
678412,-18,15,190,0
678423,35,66,192,0
678434,27,95,210,0
678445,13,45,171,0
678456,15,-33,54,0
678467,79,29,18,0
678478,92,95,37,0
678489,31,20,-1,0
678500,16,-32,-58,0
678511,53,-45,-127,0
678522,124,-69,-141,0
678533,34,-70,-185,0
678544,89,-27,-278,0
678555,67,-11,-107,0
678566,33,24,-60,0
678577,37,-27,-58,1
678588,69,-142,-26,0
678599,96,-154,-28,0
678610,100,-82,6,0
678621,85,-53,67,0
678632,239,-170,147,0
678643,331,-41,219,0
678654,460,68,455,0
678665,434,142,476,0
678676,384,390,511,0
678687,459,387,470,0
678698,40,341,297,0
678709,188,19,212,0
678720,160,241,413,0
678731,53,293,422,0
678743,141,309,444,0
678754,75,295,428,0
678765,116,196,370,0
678776,88,167,334,0
678787,14,136,278,0
678798,89,165,330,0
678809,-171,511,208,0
678820,-39,213,297,0
678831,-37,155,222,0
678842,-58,281,314,0
678853,-70,142,212,0
678864,-79,116,180,0
678875,-54,120,169,0
678886,-65,107,189,0
678897,-86,54,150,0
678908,-85,-1,74,0
678919,137,28,11,0
678930,-19,-17,-1,0
678941,-12,-8,-29,0
678952,-4,-18,-99,1
678963,2,-30,-112,0
678974,-8,-33,-132,0
678985,15,-20,-142,0
678996,30,-4,-131,0
679007,95,0,-112,0
679018,133,-28,-99,0
679029,190,-74,-103,0
679040,239,-64,-69,0
679051,244,-130,41,0
679062,280,-284,216,0
679073,235,-262,367,0
679084,258,-59,511,0
679095,364,382,511,0
679106,348,511,511,0
679117,302,511,511,0
679128,77,390,461,0
679140,215,103,183,0
679151,-85,346,461,0
679162,-90,161,384,0
679173,-11,281,487,0
679184,-24,95,336,0
679195,54,80,275,0
679206,11,-1,189,0
679217,1,76,214,0
679228,26,155,208,0
679239,14,136,152,0
679250,-7,83,90,0
679261,-13,81,79,0
679272,3,117,70,0
679283,-13,27,-8,0
679294,1,-43,-49,0
679305,41,-91,-98,0
679316,118,-106,-122,0
679327,117,-87,-154,0
679338,125,-52,-158,0
679349,125,-29,-145,0
679360,144,-24,-146,0
679371,183,-19,-173,0
679382,103,-1,-97,1
679393,72,2,-85,0
679404,161,-104,-17,0
679415,250,-164,32,0
679426,224,135,252,0
679437,246,-19,232,0
679448,241,182,236,0
679459,-3,363,511,0
679470,-49,277,511,0
679481,-74,185,382,0
679492,-66,201,372,0
679503,-78,229,383,0
679514,-16,298,402,0
679525,33,342,413,0
679536,45,342,408,0
679547,64,315,397,0
679558,44,237,346,0
679569,15,174,310,0
679580,83,177,283,0
679591,92,153,276,0
679602,93,65,207,0
679613,125,169,272,0
679624,107,121,227,0
679635,115,148,238,0
679646,92,152,210,0
679657,69,92,154,0
679668,79,98,167,0
679679,60,55,126,0
679690,45,47,94,0
679701,34,8,58,0
679712,32,0,33,1
679723,30,12,-2,0
679734,16,2,-25,0
679745,-2,-14,-51,0
679756,-29,-30,-71,0
679767,-43,-32,-95,0
679778,-64,-20,-114,0
679789,34,17,-156,0
679800,125,10,-156,0
679811,101,-91,-26,0
679822,81,-153,80,0
679833,109,-133,147,0
679844,171,-57,270,0
679855,279,2,511,0
679866,294,128,511,0
679877,332,511,511,1
679888,294,491,511,0
679899,190,275,416,0
679910,86,164,303,0
679921,-116,511,511,0
679932,-86,355,458,0
679943,-48,168,348,0
679954,44,216,338,0
679965,-1,275,372,0
679976,45,204,262,0
679987,92,164,185,0
679998,45,131,186,0
680009,84,167,209,0
680020,118,118,183,0
680031,76,9,127,0
680042,113,79,165,0
680053,111,145,137,0
680064,133,102,35,0
680075,125,35,-9,0
680086,138,24,-37,0
680097,135,5,-60,0
680108,134,-1,-107,0
680119,177,28,-103,0
680130,126,-56,-164,0
680141,151,-45,-122,0
680152,157,-51,-94,0
680163,134,-40,-79,0
680174,163,-47,-70,0
680185,131,-76,-60,0
680196,128,-88,-20,0
680207,50,33,31,1
680218,-47,-82,87,0
680229,95,-44,294,0
680240,-39,86,419,0
680251,30,152,511,0
680262,-105,372,511,0
680273,-54,511,511,0
680284,-3,244,339,0
680295,28,148,303,0
680306,5,141,342,0
680317,-12,225,401,0
680328,-32,262,437,0
680339,-56,292,477,0
680350,-46,228,420,0
680361,-38,248,414,0
680372,-39,237,385,0
680383,-19,204,327,0
680394,-22,202,296,0
680405,-26,191,276,0
680416,48,193,243,0
680427,23,154,213,0
680438,-2,134,221,0
680449,63,127,186,0
680460,50,72,153,0
680471,103,43,110,0
680482,125,45,114,0
680493,97,51,57,0
680504,78,52,25,0
680515,72,12,-24,0
680526,61,2,-49,0
680537,8,-3,-98,0
680548,-10,2,-111,0
680559,-22,1,-109,1
680570,-7,-2,-113,0
680581,31,-4,-106,0
680592,32,-58,-109,0
680603,39,-68,-75,0
680614,76,-81,-65,0
680625,145,-31,-80,0
680636,177,5,-31,0
680647,168,-78,257,0
680658,106,-182,511,0
680669,85,-42,511,0
680680,295,511,511,0
680691,253,355,511,0
680702,189,260,469,0
680713,105,202,369,0
680724,31,56,249,0
680735,24,511,511,0
680746,7,365,480,0
680757,17,214,358,0
680768,49,279,405,0
680779,68,228,341,0
680790,82,137,246,0
680801,114,128,208,0
680812,118,104,184,0
680823,107,121,180,0
680834,155,133,150,0
680845,120,88,87,0
680856,137,102,60,0
680867,120,27,-8,0
680878,148,-56,-30,0
680889,175,-16,-66,0
680900,164,38,-97,0
680911,148,22,-101,0
680922,117,-21,-84,0
680933,60,-35,-108,0
680944,71,-21,-83,0
680955,63,-24,-50,0
680966,44,-56,-52,1
680977,63,-50,-61,0
680988,49,31,-29,0
680999,-210,68,24,0
681010,-23,-23,75,0
681021,13,-44,118,0
681032,67,16,211,0
681043,190,-5,368,0
681054,312,100,511,0
681065,251,398,511,0
681076,251,511,511,0
681087,127,294,321,0
681098,73,55,252,0
681109,31,117,330,0
681120,-7,162,368,0
681131,-16,397,511,0
681142,-69,414,496,0
681153,-63,365,435,0
681164,-32,285,353,0
681175,2,244,308,0
681186,33,268,320,0
681197,87,264,303,0
681208,76,213,269,0
681219,87,188,235,0
681230,82,144,193,0
681241,98,107,162,0
681252,179,90,153,0
681263,109,61,79,0
681274,86,53,36,0
681285,71,65,19,0
681296,81,12,-31,1
681307,60,15,-55,0
681318,23,6,-88,0
681329,-6,1,-87,0
681340,-37,-14,-80,0
681351,-60,-12,-63,0
681362,-49,2,-55,0
681373,-29,4,-62,0
681384,97,26,-146,0
681395,238,53,-215,0
681406,188,-41,-47,0
681417,202,-229,98,0
681428,162,-257,213,0
681439,140,-165,375,0
681450,339,466,511,0
681461,408,511,511,0
681472,332,286,430,0
681483,267,340,484,0
681494,115,192,328,0
681505,146,511,511,0
681517,-80,357,440,0
681528,-24,156,317,0
681539,22,235,409,0
681550,53,227,392,0
681561,65,173,304,0
681572,107,89,203,0
681583,113,68,178,0
681594,103,53,115,0
681605,79,5,44,0
681616,116,113,125,0
681627,46,55,54,0
681638,18,66,52,0
681649,148,95,-16,0
681660,174,58,-64,0
681671,196,-44,-96,0
681682,122,-45,-117,0
681693,124,-11,-88,0
681704,117,-39,-88,1
681715,111,-50,-72,0
681726,86,-32,-65,0
681737,57,-4,-52,0
681748,102,46,1,0
681759,104,-56,15,0
681770,101,-24,155,0
681781,106,52,191,0
681792,0,108,228,0
681803,41,72,357,0
681814,25,54,434,0
681825,33,111,511,0
681836,0,183,511,0
681847,30,219,471,0
681858,55,243,395,0
681869,64,180,347,0
681880,81,168,360,0
681891,95,249,433,0
681902,55,268,427,0
681913,48,266,441,0
681924,26,222,393,0
681935,33,156,327,0
681946,35,139,316,0
681957,71,180,295,0
681968,51,197,320,0
681979,123,167,230,0
681990,105,166,221,0
682001,65,123,201,0
682013,92,93,165,0
682024,66,57,112,0
682035,56,42,74,0
682046,50,8,24,0
682057,44,7,-12,0
682068,31,-25,-42,0
682079,8,-12,-57,0
682090,-14,-14,-63,0
682101,-37,-26,-76,0
682112,-59,-36,-83,0
682123,-68,-39,-96,1
682134,-26,-7,-73,0
682145,74,29,-125,0
682156,217,47,-185,0
682167,192,-11,-55,0
682178,182,-103,77,0
682189,171,-161,155,0
682200,263,11,511,0
682211,245,146,511,0
682222,358,511,511,0
682233,265,325,511,0
682244,236,277,485,0
682255,161,207,386,1
682266,161,116,302,0
682277,119,511,511,0
682288,-264,425,511,0
682299,-15,191,406,0
682310,10,187,381,0
682321,43,256,396,0
682332,28,177,304,0
682343,21,93,241,0
682354,49,102,248,0
682365,47,81,193,0
682376,64,80,82,0
682387,88,84,40,0
682398,120,69,32,0
682409,127,-3,14,0
682420,136,32,-55,0
682431,124,-1,-87,0
682442,71,-61,-123,0
682453,101,-61,-147,1
682464,109,-28,-168,0
682475,79,-39,-151,0
682486,86,-51,-111,0
682497,96,-61,-91,0
682508,37,-23,-34,0
682519,-43,-43,-8,0
682530,-58,-59,-9,0
682541,102,-248,57,0
682552,126,31,199,0
682563,180,216,356,0
682574,108,81,304,0
682585,42,157,499,0
682596,36,164,511,0
682607,24,215,511,0
682618,25,145,449,0
682629,-13,193,417,0
682640,-5,185,405,0
682651,37,234,415,0
682662,95,351,503,0
682673,69,271,422,0
682684,63,268,418,0
682695,36,208,362,0
682706,53,144,291,0
682717,67,173,294,0
682728,62,184,317,0
682739,83,156,266,0
682750,110,140,216,0
682761,126,154,215,0
682772,85,129,179,0
682783,81,71,131,0
682794,83,28,117,0
682805,101,9,89,0
682816,67,-10,16,0
682827,60,4,-13,0
682838,9,-2,-39,1
682849,-32,-23,-53,0
682860,-45,-29,-63,0
682871,-63,-44,-69,0
682882,-67,-39,-95,0
682893,-74,-24,-77,0
682904,-13,-5,-81,0
682915,87,29,-123,0
682926,172,-4,-121,0
682937,191,-84,24,0
682948,195,-149,152,0
682959,191,-119,189,0
682970,216,83,511,0
682981,279,341,511,0
682992,319,474,511,0
683003,237,285,490,0
683014,237,296,467,0
683025,151,110,247,0
683036,75,507,511,0
683047,79,360,471,0
683058,65,214,404,0
683069,66,272,456,0
683080,52,276,417,0
683091,12,197,342,0
683102,-2,84,239,0
683113,-10,100,252,0
683124,-25,24,195,0
683135,14,-28,123,0
683146,84,103,35,0
683157,107,219,17,0
683168,78,80,2,0
683179,107,-51,-26,0
683190,252,-13,-132,0
683201,173,-45,-139,0
683212,129,-54,-154,0
683223,118,-88,-209,0
683234,127,-46,-198,0
683245,62,-59,-198,0
683256,111,-89,-151,0
683267,76,-80,-92,0
683278,-5,-40,-29,1
683289,38,-187,21,0
683300,194,-130,117,0
683311,62,134,228,0
683322,-94,193,311,0
683333,-92,107,337,0
683344,-47,21,437,0
683355,-74,109,511,0
683366,-124,243,511,0
683377,-52,196,432,0
683388,-9,150,357,0
683399,10,200,379,0
683410,34,278,445,0
683421,83,302,458,0
683432,-14,294,426,0
683443,-34,308,432,0
683454,-43,293,428,0
683465,-30,80,253,0
683476,-9,163,333,0
683487,56,229,346,0
683498,11,170,298,0
683509,47,165,270,0
683520,70,141,237,0
683531,43,79,214,0
683542,70,89,200,0
683553,37,42,164,0
683564,81,-2,99,0
683575,133,-65,32,0
683586,66,-23,-87,0
683597,37,-19,-106,0
683608,13,-44,-145,0
683619,-21,-87,-172,0
683630,-26,-64,-183,1
683641,-1,-15,-179,0
683652,39,-26,-181,0
683663,145,20,-172,0
683674,180,22,-84,0
683685,164,-59,41,0
683696,157,-152,147,0
683707,173,-138,188,0
683719,276,126,511,0
683730,387,511,511,0
683741,324,429,511,0
683752,251,281,490,0
683763,149,183,382,0
683774,211,-25,181,0
683785,-237,473,511,0
683796,-72,276,381,0
683807,-66,167,356,0
683818,-46,265,430,0
683829,-44,220,397,0
683840,-15,164,334,0
683851,-60,33,307,0
683862,14,6,293,0
683873,6,129,90,0
683884,36,125,77,0
683895,96,132,51,0
683906,69,57,-26,0
683917,67,17,-64,0
683928,93,24,-62,0
683939,54,-43,-91,0
683950,26,-84,-130,0
683961,87,-78,-204,0
683972,62,-68,-228,0
683983,131,-36,-240,0
683994,78,-55,-189,0
684005,104,-28,-100,0
684016,96,-39,-73,0
684027,40,-19,-36,0
684038,290,-284,86,1
684049,357,71,202,0
684060,308,132,425,0
684071,88,273,411,0
684082,103,146,511,0
684093,-167,178,511,0
684104,-207,218,511,0
684115,-97,51,386,0
684126,-99,122,390,0
684137,-13,157,383,0
684148,68,232,414,0
684159,75,275,420,0
684170,107,322,454,0
684181,42,217,381,0
684192,34,181,352,0
684203,21,131,295,0
684214,32,130,294,0
684225,1,200,305,0
684236,-17,161,249,0
684247,-6,169,234,0
684258,29,174,248,0
684269,53,147,192,0
684280,66,73,115,0
684291,99,77,107,0
684302,105,64,73,0
684313,94,28,17,0
684324,104,23,-5,0
684335,58,6,-52,0
684346,22,-6,-91,0
684357,9,-22,-125,0
684368,-21,-43,-128,0
684379,-39,-31,-130,1
684390,-28,-2,-132,0
684401,13,13,-182,0
684412,177,91,-270,0
684423,151,26,-141,0
684434,161,-197,46,0
684445,136,-283,169,0
684456,191,-174,270,0
684467,248,-14,511,0
684478,291,196,511,0
684489,282,320,511,0
684500,229,276,511,0
684511,116,81,340,0
684522,58,124,354,0
684533,133,-23,291,0
684544,-266,511,511,0
684555,-110,266,416,0
684566,-29,152,325,0
684577,15,239,359,0
684588,-47,246,384,0
684599,27,144,250,0
684610,27,114,212,0
684621,43,152,234,0
684632,47,143,211,0
684643,81,111,52,0
684654,84,138,-15,0
684665,101,132,21,0
684676,64,-97,-30,0
684687,58,-152,-107,0
684698,110,-27,-149,0
684709,169,-33,-207,0
684721,135,-45,-195,0
684732,118,-39,-155,0
684743,148,-42,-107,0
684754,164,-43,-61,0
684765,236,-44,-23,0
684776,57,-77,-45,0
684787,136,-178,83,0
684798,183,-25,211,1
684809,38,210,298,0
684820,31,110,352,0
684831,37,17,445,0
684842,-83,48,511,0
684853,-133,113,511,0
684864,-17,160,396,0
684875,6,123,294,0
684886,36,172,336,0
684897,70,247,376,0
684908,78,298,452,0
684919,72,327,450,0
684930,45,251,385,0
684941,-7,275,442,0
684952,-32,166,337,0
684963,-46,104,258,0
684974,24,83,204,0
684985,-9,114,239,0
684996,63,153,235,0
685007,49,153,219,0
685018,102,203,266,0
685029,92,120,205,0
685040,102,106,220,0
685051,118,103,200,0
685062,87,61,131,0
685073,60,26,84,0
685084,59,33,70,0
685095,-6,4,-17,0
685106,-23,9,-77,0
685117,-49,2,-71,1
685128,-76,-29,-99,0
685139,-79,-30,-94,0
685150,-71,-6,-87,0
685161,6,8,-143,0
685172,96,59,-159,0
685183,147,0,-107,0
685194,154,-115,24,0
685205,145,-189,115,0
685216,157,-139,174,0
685227,242,-5,372,0
685238,318,85,511,0
685249,408,481,511,0
685260,291,186,379,0
685271,245,220,376,0
685282,151,1,186,0
685293,199,408,449,0
685304,-239,511,511,0
685315,80,41,312,0
685326,21,162,347,0
685337,18,263,413,0
685348,-17,224,371,0
685359,-6,151,281,0
685370,-30,110,237,0
685381,8,125,238,0
685392,-25,45,195,0
685403,39,7,111,0
685414,18,26,39,0
685425,83,134,59,0
685436,93,36,51,0
685447,139,-65,-19,0
685458,105,-74,-53,0
685469,77,-61,-79,0
685480,45,-77,-121,0
685491,87,-50,-139,0
685502,108,-25,-139,0
685513,195,-5,-141,0
685524,89,-5,-70,0
685535,69,44,-19,1
685546,23,19,5,0
685557,82,-296,52,0
685568,368,-89,145,0
685579,103,319,338,0
685590,58,214,371,0
685601,10,260,511,0
685612,-73,118,482,0
685624,-82,71,401,0
685635,-110,97,410,0
685646,-138,99,333,0
685657,-119,99,314,0
685668,-46,166,374,0
685679,177,163,287,0
685690,188,302,423,0
685701,111,237,375,0
685712,68,171,321,0
685724,45,227,341,0
685735,9,138,252,0
685746,0,142,247,0
685757,23,159,264,0
685768,31,9,125,0
685779,61,117,233,0
685790,86,105,213,0
685801,62,95,220,0
685812,45,60,199,0
685823,184,146,189,0
685834,111,63,146,0
685845,99,30,118,0
685856,75,-8,81,0
685867,53,-57,33,0
685878,30,-73,-23,0
685889,-9,-76,-63,0
685900,-56,-81,-85,0
685911,-71,-72,-96,0
685922,-62,-58,-84,0
685933,-42,-68,-116,0
685944,46,-39,-142,1
685955,57,-27,-32,0
685966,102,-108,99,0
685977,141,-101,199,0
685988,130,61,323,0
685999,237,249,511,0
686010,296,478,511,0
686021,362,511,511,0
686032,297,221,435,0
686043,247,213,377,0
686054,214,285,385,0
686065,186,358,422,0
686076,114,240,365,0
686087,86,230,389,0
686098,58,220,387,0
686109,31,196,361,0
686120,53,191,332,0
686131,20,175,329,0
686142,-18,109,314,0
686153,-50,53,237,0
686164,-89,-45,120,0
686175,-93,29,166,0
686186,-10,25,137,0
686197,51,-13,74,0
686208,98,15,54,0
686219,128,46,20,0
686230,80,1,-34,0
686241,34,-55,-47,0
686252,128,-72,-87,0
686263,105,-52,-96,0
686274,89,-64,-177,0
686285,52,-23,-112,0
686296,91,3,-68,0
686307,131,-19,-77,1
686318,97,-4,-44,0
686329,103,-8,-84,0
686340,14,111,-23,0
686351,15,-34,-6,0
686362,87,29,47,0
686373,107,-21,142,0
686384,180,-98,271,0
686395,306,-10,445,0
686406,346,189,511,0
686417,177,452,511,0
686428,214,338,511,0
686439,183,162,363,0
686450,79,123,306,0
686461,52,152,341,0
686472,-4,401,511,0
686483,-61,288,404,0
686494,-58,353,473,0
686505,-47,375,480,0
686516,-61,292,388,0
686527,-42,220,349,0
686538,-28,196,341,0
686549,-21,256,389,0
686560,-50,236,386,0
686571,-103,166,316,0
686582,-124,162,274,0
686593,-99,185,282,0
686604,-113,29,181,0
686615,6,-7,105,0
686626,-14,-8,86,0
686637,-21,-25,69,0
686648,36,-16,-81,0
686659,42,45,-53,0
686670,38,-6,-173,0
686681,16,-1,-135,0
686692,-20,-19,-120,0
686703,-11,-43,-141,0
686714,30,-62,-172,0
686725,53,-97,-131,1
686736,110,-131,-89,0
686747,95,-121,4,0
686758,132,-50,111,0
686769,228,-10,243,0
686780,355,34,511,0
686791,471,100,511,0
686802,443,371,511,0
686813,321,401,511,0
686824,317,325,471,0
686835,222,251,340,1
686846,240,88,225,0
686857,-510,511,511,0
686868,-47,462,511,0
686879,-47,76,303,0
686890,68,250,426,0
686901,111,158,268,0
686912,57,83,183,0
686923,4,209,238,0
686934,-35,135,141,0
686945,-40,93,81,0
686956,2,100,51,0
686967,-32,45,12,0
686978,-28,13,-3,0
686989,41,-22,-53,0
687000,8,-17,-61,0
687011,53,-16,-100,0
687022,65,-8,-108,0
687033,48,-54,-167,0
687044,84,-49,-175,0
687055,135,-34,-162,1
687066,153,-26,-88,0
687077,145,-18,-78,0
687088,203,-170,-11,0
687099,318,-118,112,0
687110,252,111,262,0
687121,173,16,279,0
687132,119,-9,302,0
687143,54,70,424,0
687154,-61,97,511,0
687165,-85,77,463,0
687176,-104,234,473,0
687187,-53,120,343,0
687198,7,162,331,0
687209,82,337,415,0
687220,47,186,299,0
687231,73,342,421,0
687242,41,231,344,0
687253,46,173,284,0
687264,70,204,301,0
687275,76,139,242,0
687286,59,76,167,0
687297,89,191,269,0
687308,77,109,193,0
687319,83,83,171,0
687330,94,53,139,0
687341,72,63,165,0
687352,76,35,152,0
687363,75,-17,102,0
687374,117,14,64,0
687385,87,11,19,0
687396,77,-13,-34,1
687407,80,-28,-80,0
687418,37,-29,-105,0
687429,6,-25,-110,0
687440,-24,-38,-112,0
687451,-38,-52,-125,0
687462,-32,-59,-130,0
687473,28,-41,-177,0
687484,43,-50,-126,0
687495,53,-194,35,0
687506,97,-275,180,0
687517,86,-139,222,0
687528,295,216,511,0
687539,283,511,511,0
687550,511,511,511,1
687561,394,263,420,0
687572,356,60,198,0
687583,234,205,302,0
687594,153,207,337,0
687605,112,310,415,0
687616,36,230,386,0
687627,9,190,380,0
687638,9,204,391,0
687649,37,148,312,0
687660,93,158,274,0
687671,-90,121,309,0
687682,-11,78,256,0
687693,20,56,223,0
687704,18,90,190,0
687715,-3,55,137,0
687726,33,-31,53,0
687737,77,-27,19,0
687748,84,77,87,0
687759,24,11,31,0
687770,-14,-88,-9,0
687781,-7,-67,-54,0
687792,-13,-20,-96,0
687803,41,34,-128,1
687814,50,31,-141,0
687825,75,-19,-31,0
687836,96,64,-142,0
687847,-297,59,-442,0
687858,117,-14,-86,0
687869,184,-49,-104,0
687880,242,104,-4,0
687891,251,-51,82,0
687902,293,-68,254,0
687913,282,-51,511,0
687924,181,96,511,0
687935,-32,398,511,0
687946,82,511,511,0
687957,361,310,431,0
687968,100,16,213,0
687979,-38,-2,180,0
687990,292,180,333,0
688001,-43,511,489,0
688012,-94,380,363,0
688023,228,390,389,0
688034,15,400,378,0
688045,-2,469,392,0
688056,-37,186,226,0
688067,134,115,208,0
688078,209,303,267,0
688089,-9,257,245,0
688100,226,282,190,0
688111,289,172,56,0
688122,-19,113,76,0
688133,-331,153,196,0
688144,11,116,79,0
688155,-37,73,43,0
688166,-64,93,53,1
688177,-28,106,74,0
688188,-49,66,75,0
688199,-44,-3,34,0
688210,71,-9,1,0
688221,92,-4,-12,0
688232,129,10,-53,0
688243,78,33,-43,0
688254,99,26,-36,0
688265,59,22,-44,0
688276,87,20,-65,0
688287,61,15,-58,0
688298,83,55,33,0
688309,95,46,114,0
688320,78,47,212,0
688331,78,19,313,0
688342,21,1,511,0
688353,-46,77,511,0
688364,26,338,511,0
688375,-18,348,511,0
688386,26,294,511,0
688397,73,331,492,0
688408,67,244,425,0
688419,100,67,275,0
688430,0,379,482,0
688441,181,192,282,0
688452,59,254,431,0
688463,78,145,321,0
688474,-27,-45,185,0
688485,40,49,208,0
688496,8,168,298,0
688507,-2,68,198,0
688519,80,29,114,0
688530,63,47,106,0
688541,47,23,78,0
688552,63,-80,-33,0
688563,-77,-53,-25,0
688574,70,-53,-25,0
688585,122,-40,-78,0
688596,77,-21,-97,0
688607,54,3,-123,0
688618,49,36,-117,1
688629,28,48,-169,0
688640,151,33,-139,0
688651,-56,-52,-109,0
688662,124,-128,-79,0
688673,175,-60,-5,0
688684,127,27,105,0
688695,112,69,219,0
688706,195,14,262,0
688717,209,153,419,0
688728,150,275,511,0
688739,-107,279,463,0
688750,-77,168,361,0
688761,-40,101,317,1
688772,-17,98,341,0
688783,61,166,390,0
688794,37,151,383,0
688805,35,150,336,0
688816,28,237,366,0
688827,58,331,470,0
688838,-79,180,324,0
688849,84,194,327,0
688860,17,120,304,0
688871,49,144,316,0
688882,92,99,244,0
688893,135,149,291,0
688904,37,170,259,0
688915,6,137,209,0
688926,50,92,170,0
688937,68,86,159,0
688948,35,57,117,1
688959,26,21,54,0
688970,34,-10,-3,0
688981,52,-18,-20,0
688992,45,-16,-39,0
689003,28,10,-59,0
689014,11,-10,-106,0
689025,15,-44,-100,0
689036,57,-34,-90,0
689047,123,-55,-11,0
689058,141,-95,61,0
689069,126,-95,110,0
689080,103,-40,144,0
689091,103,8,253,0
689102,222,53,470,1
689113,124,146,511,0
689124,136,404,511,0
689135,159,376,511,0
689146,157,287,463,0
689157,153,329,438,0
689168,13,268,401,0
689179,-19,242,386,0
689190,1,207,423,0
689201,3,119,330,0
689212,-1,96,304,0
689223,-10,71,266,0
689234,4,98,287,0
689245,35,112,291,0
689256,36,76,184,0
689267,59,135,163,0
689278,55,130,128,0
689289,72,120,81,0
689300,73,92,11,0
689311,69,61,-48,0
689322,91,37,-58,0
689333,95,10,-89,0
689344,79,-17,-99,0
689355,228,20,-193,0
689366,106,-30,-167,1
689377,140,-32,-154,0
689388,168,-25,-109,0
689399,163,-6,-88,0
689410,132,10,-70,0
689421,126,-183,-26,0
689432,272,-216,67,0
689443,256,63,152,0
689454,125,89,346,0
689465,-1,53,366,0
689476,-252,63,414,0
689487,-277,130,511,0
689498,-340,322,511,0
689509,-112,88,255,0
689520,-65,132,269,0
689531,-31,245,351,0
689542,-25,279,405,0
689553,22,351,496,0
689564,-15,338,456,0
689575,-39,237,390,0
689586,11,211,336,0
689597,-24,276,396,0
689608,-41,62,210,0
689619,73,75,215,0
689630,78,142,279,0
689641,39,203,316,0
689652,64,195,287,0
689663,135,140,190,0
689674,134,144,191,0
689685,107,117,139,0
689696,67,74,68,0
689707,50,42,27,0
689718,59,33,-8,0
689729,42,8,-16,0
689740,39,12,-44,0
689751,15,10,-83,0
689762,34,-5,-124,1
689773,26,-4,-123,0
689784,17,-8,-112,0
689795,-3,0,-95,0
689806,25,36,-122,0
689817,114,84,-153,0
689828,183,37,-140,0
689839,175,-169,9,0
689850,189,-258,203,0
689861,179,-223,278,0
689872,149,-44,475,0
689883,158,106,511,0
689894,169,511,511,0
689905,165,432,511,0
689916,160,257,457,0
689927,90,350,486,0
689938,54,190,347,0
689949,92,413,483,0
689960,-46,185,351,0
689971,18,285,428,0
689982,-19,303,469,0
689993,23,108,286,0
690004,84,55,224,0
690015,109,64,209,0
690026,77,87,196,0
690037,82,30,82,0
690048,86,134,35,0
690059,90,158,96,0
690070,83,69,118,0
690081,82,104,36,0
690092,114,49,-81,0
690103,125,16,-135,0
690114,215,-16,-130,0
690125,116,-20,-141,0
690136,115,-14,-99,0
690147,117,-47,-88,0
690158,116,-32,-75,0
690169,129,-54,-36,0
690180,36,-53,-51,1
690191,17,-58,-53,0
690202,115,-95,60,0
690213,137,-60,123,0
690224,120,47,179,0
690235,35,64,210,0
690246,6,-5,282,0
690257,47,41,431,0
690268,-69,258,511,0
690279,14,238,446,0
690290,45,234,374,0
690301,11,219,395,0
690312,44,218,398,0
690323,24,165,333,1
690334,12,328,469,0
690345,-30,273,421,0
690356,-18,314,445,0
690367,-30,200,333,0
690378,-10,142,275,0
690389,11,211,330,0
690400,56,196,289,0
690411,36,197,282,0
690422,103,148,196,0
690433,84,116,191,0
690444,70,57,153,0
690455,104,32,123,0
690466,111,28,102,0
690477,74,7,63,0
690488,58,11,19,0
690499,46,10,-12,0
690510,13,3,-36,0
690521,-15,-16,-50,0
690532,-31,-30,-63,0
690543,-46,-42,-81,0
690554,-60,-47,-91,0
690565,-56,-31,-85,0
690576,57,5,-96,0
690587,144,30,-92,0
690598,167,-35,-28,0
690609,187,-100,87,0
690620,160,-128,167,0
690631,170,-68,260,0
690642,216,-1,511,1
690653,241,238,511,0
690664,394,511,511,0
690675,332,378,503,0
690686,264,313,439,0
690697,240,156,290,0
690708,224,469,496,0
690719,-29,342,402,0
690730,65,216,420,0
690741,43,230,402,0
690752,51,215,357,0
690763,-47,90,275,0
690774,-26,127,325,1
690785,-27,-4,353,0
690797,-70,129,142,0
690808,-49,163,50,0
690819,-23,80,72,0
690830,68,66,71,0
690841,99,80,58,0
690852,171,54,1,0
690863,143,-35,-83,0
690874,193,-28,-101,0
690885,160,-53,-146,0
690896,123,-46,-163,0
690907,122,-30,-166,0
690918,169,-44,-160,0
690929,105,-97,-150,0
690940,57,-42,-125,1
690951,22,-52,-84,0
690962,47,-123,8,0
690973,100,-170,57,0
690984,48,95,192,0
690995,41,27,278,0
691006,34,59,331,0
691017,-85,164,511,0
691028,-104,231,511,0
691039,-54,278,483,0
691050,-14,244,373,0
691061,20,228,382,0
691072,22,214,384,0
691083,65,215,365,0
691094,48,200,351,0
691105,48,306,451,0
691116,30,224,369,0
691127,25,246,381,0
691138,47,208,337,0
691149,10,77,208,0
691160,64,187,293,0
691171,83,124,223,0
691182,91,155,237,0
691194,84,138,231,0
691205,82,120,208,0
691216,77,96,205,0
691227,80,29,164,0
691238,85,-11,147,0
691249,77,-37,130,0
691260,73,-56,82,0
691271,76,-51,26,0
691282,57,-44,-25,0
691294,1,-49,-85,1
691305,-70,-63,-93,0
691316,-65,-74,-137,0
691327,-88,-63,-132,0
691338,-16,-21,-122,0
691349,31,-24,-131,0
691360,130,39,-127,0
691371,126,-9,-5,0
691382,171,-118,144,0
691393,185,-144,245,0
691404,130,-23,330,0
691415,194,135,511,0
691426,306,511,511,0
691437,409,511,511,0
691448,325,243,357,0
691459,253,284,361,0
691470,218,347,449,0
691481,99,182,350,0
691492,59,177,375,0
691503,47,210,410,0
691514,34,174,376,0
691525,50,103,289,0
691536,8,113,299,0
691547,-4,169,349,0
691558,-21,65,245,0
691569,-6,-8,175,0
691580,19,50,161,0
691592,86,20,33,0
691603,81,-37,-28,0
691614,150,52,-10,0
691625,75,11,-47,0
691636,17,-75,-83,0
691647,63,-70,-154,0
691658,143,-70,-172,0
691669,-84,-44,-193,0
691680,46,-22,-63,1
691692,56,2,-115,0
691703,-50,47,-111,0
691714,-7,5,-76,0
691725,18,-60,-2,0
691736,59,-94,-8,0
691747,45,88,45,0
691758,45,16,60,0
691769,180,-1,89,0
691780,261,-91,277,0
691791,387,40,403,0
691802,491,350,511,0
691813,319,511,511,0
691824,186,243,423,0
691835,91,136,395,0
691846,38,32,273,0
691857,-41,34,298,0
691868,-19,132,407,0
691880,-7,304,494,0
691891,-8,360,511,0
691902,-27,272,406,0
691913,2,267,374,0
691924,48,292,385,0
691935,37,245,357,0
691946,39,235,339,0
691957,37,199,321,0
691968,41,146,247,0
691979,20,151,229,0
691990,-70,121,201,0
692001,-50,101,185,0
692012,-29,45,181,0
692023,13,-25,97,0
692034,-28,-43,75,0
692045,-21,-51,-38,0
692056,-24,-39,-83,0
692067,-36,-6,-109,1
692078,-61,1,-111,0
692089,-77,-28,-101,0
692100,-67,-39,-96,0
692111,-57,-19,-91,0
692122,-22,-7,-115,0
692133,16,1,-90,0
692144,54,-30,-49,0
692155,124,-33,-10,0
692166,211,-21,58,0
692177,288,-70,136,0
692188,314,-143,261,0
692199,327,-154,511,1
692210,384,78,511,0
692221,397,400,506,0
692232,310,486,510,0
692243,220,477,511,0
692254,168,205,316,0
692265,-76,511,511,0
692276,29,382,473,0
692287,13,259,381,0
692298,51,368,498,0
692309,37,119,303,0
692320,48,113,308,0
692331,-23,153,370,0
692342,-28,98,335,0
692353,64,33,250,0
692364,147,53,186,0
692375,139,116,60,0
692386,107,108,37,0
692397,85,79,16,0
692408,68,56,-36,0
692419,35,29,-71,0
692430,10,-50,-89,0
692441,26,-106,-99,0
692452,115,-111,-39,0
692463,132,-63,-68,0
692474,25,-40,-276,0
692485,86,-31,-176,0
692496,123,-60,-133,0
692507,114,-51,-93,0
692518,84,5,-41,1
692529,47,-59,-5,0
692540,194,-271,82,0
692551,194,47,144,0
692562,43,440,-47,0
692573,-18,-12,311,0
692584,166,338,511,0
692595,-97,404,511,0
692606,-145,312,511,0
692617,-151,213,493,0
692628,-81,225,426,0
692639,14,196,412,0
692650,35,219,408,0
692661,21,279,435,0
692672,-10,264,399,0
692683,-14,193,330,0
692694,-16,171,310,0
692705,-15,201,355,0
692716,16,93,224,0
692727,42,172,306,0
692738,74,166,295,0
692749,74,70,207,0
692760,65,40,205,0
692771,83,75,214,0
692782,45,28,81,0
692794,11,22,52,0
692805,-4,9,26,0
692816,-35,-8,-12,0
692827,-15,-32,-47,0
692838,-24,-61,-78,0
692849,-27,-67,-66,0
692860,-12,-84,-113,0
692871,-53,-97,-97,0
692882,-66,-56,-127,0
692893,-59,-31,-65,1
692904,-16,-22,-82,0
692915,123,-13,-66,0
692926,153,-71,74,0
692937,206,-75,205,0
692948,198,-44,265,0
692959,252,39,511,0
692970,347,319,511,0
692981,494,511,511,0
692992,444,356,511,0
693003,348,282,438,0
693014,289,258,333,0
693025,224,439,511,0
693036,100,232,398,0
693047,118,343,511,0
693058,92,252,446,0
693069,146,195,305,0
693080,61,141,300,0
693091,12,131,329,0
693102,-22,78,262,0
693113,2,99,202,0
693124,-30,47,118,0
693135,-10,49,77,0
693146,38,120,81,0
693157,4,86,55,0
693168,16,17,-7,0
693179,49,0,-54,0
693190,96,-29,-104,0
693201,103,-57,-107,0
693212,57,-48,-147,0
693223,77,-24,-146,0
693234,124,-79,-210,0
693245,102,-44,-155,0
693256,94,-35,-115,0
693267,92,-2,-55,0
693278,55,-2,-9,0
693290,11,-6,23,0
693301,-22,-7,24,0
693312,8,-91,17,0
693323,226,-474,65,1
693334,81,352,162,0
693345,149,105,294,0
693356,-17,-40,282,0
693367,44,164,511,0
693378,-46,303,511,0
693389,15,266,511,0
693400,-9,215,452,0
693411,1,293,471,0
693422,27,261,437,0
693433,46,286,437,0
693444,25,375,502,0
693455,27,364,453,0
693466,-22,316,405,0
693477,27,356,433,0
693488,18,107,205,0
693499,59,139,255,0
693510,13,215,352,0
693521,25,78,201,0
693532,11,147,212,0
693543,204,195,327,0
693554,131,139,258,0
693565,-36,46,218,0
693576,18,54,177,0
693587,19,23,75,0
693598,0,12,17,0
693609,-26,10,-32,0
693620,-39,-36,-93,0
693631,-96,-44,-105,0
693642,-91,-29,-136,0
693653,-78,-58,-158,0
693664,-64,-24,-120,1
693675,-50,-3,-74,0
693686,-20,12,-65,0
693697,41,5,-82,0
693708,178,38,-133,0
693719,168,-21,-55,0
693730,200,-160,103,0
693741,194,-226,216,0
693752,174,-153,326,0
693763,226,5,511,0
693774,265,293,511,0
693785,353,511,511,0
693796,276,226,460,0
693807,249,264,449,0
693818,138,74,182,0
693829,-52,511,511,0
693840,-21,347,449,0
693851,29,216,360,0
693862,1,284,441,0
693873,-48,192,358,0
693884,59,155,262,0
693895,69,188,282,0
693906,28,76,253,0
693917,69,65,169,0
693928,66,171,76,0
693939,21,112,-1,0
693950,28,83,37,0
693961,30,56,3,0
693972,40,-63,-102,0
693983,61,-121,-135,0
693994,62,-120,-158,0
694005,71,-83,-193,0
694016,107,-30,-179,0
694027,152,-44,-164,0
694038,236,-65,-144,0
694049,174,-70,-129,0
694060,89,-22,-64,0
694071,65,2,-7,0
694082,17,-98,-42,1
694093,271,-266,46,0
694104,205,275,240,0
694115,285,259,315,0
694126,-38,197,511,0
694137,-57,170,511,0
694148,-42,122,460,0
694159,-44,131,340,0
694170,-38,164,329,0
694181,7,297,437,0
694193,26,314,434,1
694204,63,334,443,0
694215,32,324,413,0
694226,33,405,511,0
694237,-16,262,426,0
694248,-18,271,427,0
694259,-23,153,294,0
694270,32,147,278,0
694281,40,156,250,0
694292,75,212,253,0
694303,113,161,170,0
694314,124,136,147,0
694325,129,161,197,0
694336,104,101,161,0
694347,116,42,106,0
694358,118,13,108,0
694369,93,-25,91,0
694380,74,-9,67,0
694391,67,7,32,0
694402,55,-9,-4,0
694413,29,23,-81,0
694424,18,25,-109,0
694435,3,0,-128,0
694446,-6,-16,-143,0
694457,24,-7,-158,0
694468,-49,23,-96,0
694479,71,-7,-241,1
694490,151,14,-151,0
694501,73,-69,42,0
694512,163,-167,190,0
694523,116,-227,322,0
694534,144,-111,511,0
694545,121,164,511,0
694556,331,511,511,0
694567,310,250,454,0
694578,189,124,311,0
694589,114,23,248,0
694600,63,288,369,0
694611,-31,419,511,0
694622,-30,135,343,0
694633,-79,162,340,0
694644,-44,313,473,0
694655,-14,163,225,0
694666,34,178,191,0
694677,65,172,192,0
694688,46,137,177,0
694699,154,96,118,0
694710,143,81,111,0
694721,115,39,72,0
694732,129,15,51,0
694743,124,10,-22,0
694754,148,41,-32,0
694765,137,42,-58,0
694776,138,37,-76,0
694787,143,15,-82,0
694798,119,21,-80,0
694809,127,3,-71,0
694820,86,-48,-89,1
694831,84,-18,-61,0
694842,43,-23,-65,0
694853,53,-49,-72,0
694864,84,-82,-64,0
694875,62,-13,-8,0
694886,69,-68,26,0
694897,194,-163,78,0
694908,241,-42,294,0
694919,331,84,511,0
694930,218,137,511,0
694941,117,244,511,0
694952,41,334,511,0
694963,23,111,443,0
694974,-10,70,363,0
694985,-22,88,353,0
694996,0,189,380,0
695007,55,330,511,0
695018,59,511,511,0
695029,42,202,316,0
695040,38,213,310,0
695051,32,263,346,0
695062,69,175,251,0
695073,106,202,250,0
695084,95,225,243,0
695095,105,214,223,0
695106,100,133,136,0
695117,109,94,98,0
695128,125,74,108,0
695139,131,46,105,0
695150,153,1,49,0
695161,159,18,20,0
695172,126,-6,-22,0
695183,106,-15,-42,0
695194,65,6,-49,0
695205,22,6,-66,0
695216,-4,-17,-68,0
695227,-28,-40,-80,1
695238,-40,-26,-63,0
695249,-25,-16,-97,0
695260,54,18,-162,0
695271,112,-4,-161,0
695282,84,-70,-52,0
695293,83,-152,96,0
695304,63,-135,220,0
695315,67,-48,374,0
695326,121,388,511,0
695337,174,511,511,0
695348,205,295,469,0
695359,184,332,511,0
695370,92,222,381,0
695381,77,186,265,0
695392,-22,341,495,0
695403,-21,108,290,0
695414,63,265,437,0
695425,62,318,474,0
695436,45,148,260,0
695447,56,127,223,0
695458,75,101,179,0
695469,27,127,231,0
695480,16,65,120,0
695491,63,128,104,0
695502,60,151,93,0
695513,57,123,68,0
695524,93,101,29,0
695535,116,50,4,0
695546,138,-5,-41,0
695557,207,5,-98,0
695568,142,-43,-88,0
695579,118,-72,-101,0
695590,140,-34,-110,0
695601,98,-51,-109,0
695612,80,-57,-102,1
695623,48,-14,-90,0
695634,176,-99,14,0
695645,174,-54,91,0
695656,121,106,155,0
695667,146,80,139,0
695678,-12,129,419,0
695689,-102,154,511,0
695700,23,329,511,0
695711,-35,268,511,0
695722,-11,243,421,0
695733,2,232,384,0
695744,15,187,348,0
695755,28,196,373,0
695766,34,215,391,0
695777,32,244,411,0
695788,27,227,389,0
695799,21,207,361,0
695810,30,156,304,0
695821,62,174,301,0
695832,88,201,295,0
695843,102,168,246,0
695854,101,185,231,0
695865,105,173,218,0
695876,87,145,193,0
695887,62,106,159,0
695898,72,31,101,0
695909,91,61,100,0
695920,66,50,81,0
695931,53,21,27,0
695942,46,19,-31,0
695953,23,14,-42,0
695964,1,-24,-68,0
695975,-30,-38,-89,0
695986,-27,-38,-97,0
695997,-33,-17,-92,1
696008,13,12,-95,0
696019,111,20,-118,0
696030,159,-41,-81,0
696041,161,-104,41,0
696052,139,-113,130,0
696063,145,-79,202,0
696074,189,-15,350,0
696085,229,28,511,0
696096,316,426,511,0
696107,226,276,484,0
696118,197,253,438,1
696129,103,214,370,0
696140,34,122,296,0
696151,-27,463,511,0
696162,-96,310,424,0
696173,5,150,365,0
696184,47,186,376,0
696195,57,224,370,0
696206,31,126,275,0
696217,50,83,221,0
696228,-5,87,263,0
696239,24,63,254,0
696250,70,130,53,0
696261,12,119,68,0
696272,74,57,25,0
696283,83,51,-20,0
696294,142,48,-105,0
696305,136,18,-132,0
696316,135,-6,-132,0
696327,176,-25,-160,0
696338,139,-28,-179,0
696349,137,-24,-146,0
696360,108,-62,-117,0
696371,95,-40,-80,1
696382,94,-49,-59,0
696393,77,-87,-59,0
696404,191,-31,115,0
696415,126,65,214,0
696426,46,67,264,0
696437,25,74,317,0
696448,38,2,511,0
696459,-25,126,511,0
696470,-116,246,511,0
696481,-57,213,460,0
696492,0,157,364,0
696503,16,268,468,0
696514,41,206,389,0
696525,58,191,383,0
696536,45,307,456,0
696547,17,309,448,0
696558,16,236,373,0
696569,32,175,309,0
696580,62,123,242,0
696591,35,219,316,0
696602,69,224,295,0
696613,47,144,220,0
696624,111,157,188,0
696635,95,174,213,0
696646,94,118,203,0
696657,99,50,148,0
696668,104,40,125,0
696679,80,22,74,0
696691,59,56,-2,0
696702,36,21,-52,0
696713,15,15,-78,0
696724,-15,-3,-90,0
696735,-45,-15,-102,0
696746,-59,-17,-119,1
696757,-57,0,-110,0
696768,-50,-1,-98,0
696779,2,9,-96,0
696790,118,33,-152,0
696801,225,-18,-147,0
696812,191,-140,49,0
696823,196,-199,167,0
696834,195,-132,207,0
696845,264,73,511,0
696856,328,430,511,0
696867,296,376,511,0
696878,233,168,424,0
696889,190,159,394,0
696900,118,130,315,0
696911,185,350,459,0
696922,-10,447,511,0
696933,9,205,379,0
696944,20,178,394,0
696955,34,240,437,0
696966,31,192,352,0
696977,22,104,259,0
696988,-38,97,298,0
696999,29,31,247,0
697010,46,81,110,0
697021,35,100,56,0
697032,44,71,78,0
697043,68,63,55,0
697054,107,44,2,0
697065,135,18,-30,0
697076,123,0,-66,0
697087,105,-22,-87,1
697098,130,-42,-108,0
697109,140,-47,-118,0
697120,161,-10,-127,0
697131,186,-31,-117,0
697142,110,-16,-51,0
697153,23,-10,-39,0
697164,68,-124,-23,0
697175,206,-147,35,0
697186,125,76,137,0
697197,9,161,200,0
697208,-6,82,333,0
697219,44,70,457,0
697230,-67,138,511,0
697241,-145,209,511,0
697252,-97,253,481,0
697263,-66,250,390,0
697274,-45,234,392,0
697285,-20,184,350,0
697296,4,270,420,0
697307,-25,260,391,0
697318,-17,270,389,0
697329,-10,213,325,0
697340,4,160,291,0
697351,54,147,261,0
697362,62,163,293,0
697373,106,135,226,0
697384,125,145,245,0
697395,118,166,256,0
697406,105,136,214,0
697417,22,39,169,0
697428,66,59,172,0
697439,82,35,139,0
697450,58,14,37,0
697461,44,23,-13,0
697472,39,19,-52,0
697483,31,13,-69,0
697494,10,1,-70,0
697505,-4,-13,-65,0
697516,-22,-31,-75,1
697527,-18,-45,-96,0
697538,21,-55,-108,0
697549,105,-48,-93,0
697560,110,-70,-38,0
697571,133,-56,29,0
697582,168,-36,101,0
697593,171,-58,176,0
697604,196,54,511,0
697615,292,499,511,0
697626,373,511,511,0
697637,295,353,511,0
697648,218,200,362,0
697659,133,236,362,0
697670,115,289,379,0
697681,115,314,441,0
697692,25,201,356,0
697703,36,243,415,0
697714,36,222,376,0
697725,-13,141,320,0
697736,-35,112,285,0
697747,-60,128,322,0
697758,-14,-93,255,0
697769,31,-71,176,0
697780,90,173,4,0
697791,143,175,50,0
697802,104,67,-32,0
697813,67,31,-124,0
697824,173,72,-141,0
697835,131,-16,-177,0
697846,96,-53,-212,0
697857,157,-42,-244,0
697868,118,-28,-249,0
697879,39,-7,-220,0
697890,70,-18,-139,1
697901,99,-17,-64,0
697912,9,3,50,0
697923,-4,-85,34,0
697934,110,-383,97,0
697945,350,-122,244,0
697956,71,190,439,0
697967,12,217,359,0
697978,14,42,378,0
697989,-178,108,493,0
698000,-175,183,511,0
698011,-176,158,454,0
698022,-166,38,304,0
698033,-62,290,466,0
698044,-8,310,441,0
698055,108,223,365,0
698066,24,327,459,0
698077,-14,301,420,0
698088,7,327,434,0
698099,-88,78,210,0
698110,13,245,308,0
698121,-14,243,336,0
698132,-19,120,223,0
698143,2,111,186,0
698154,29,203,247,0
698165,16,155,222,0
698176,25,115,192,0
698187,50,86,180,0
698198,128,85,124,0
698209,89,39,67,0
698220,96,20,21,0
698231,86,7,-22,0
698242,70,-5,-66,0
698253,23,-27,-102,0
698264,-4,-49,-121,0
698275,-75,-50,-116,0
698286,-99,-38,-152,0
698297,-130,-11,-122,0
698308,-84,24,-106,0
698319,45,7,-135,0
698330,151,39,-135,1
698341,157,-38,-37,0
698352,186,-151,125,0
698363,195,-106,289,0
698374,242,74,511,0
698385,267,444,511,0
698396,294,511,511,0
698407,197,238,479,0
698418,167,142,416,0
698429,107,159,369,0
698440,73,30,217,0
698451,-68,505,511,0
698462,-7,319,462,0
698473,47,206,361,0
698484,-12,278,464,0
698495,6,235,399,0
698506,25,160,307,0
698517,11,161,300,0
698528,38,76,268,0
698539,56,64,183,0
698550,14,134,78,0
698561,10,115,67,0
698572,11,88,36,0
698583,34,30,-26,0
698594,69,11,-66,0
698605,91,-12,-102,0
698616,129,-15,-106,0
698627,126,-34,-110,0
698638,88,-61,-132,0
698649,169,-43,-180,0
698660,248,-2,-141,0
698671,186,9,-84,0
698682,142,18,-68,0
698693,-1,-19,-8,0
698704,229,-262,60,0
698715,366,55,154,1
698726,174,195,270,0
698737,-2,156,279,0
698748,47,109,446,0
698759,-153,95,374,0
698770,-266,95,482,0
698781,-271,74,511,0
698792,-174,140,383,0
698803,-134,209,397,0
698814,-70,282,451,0
698825,-16,303,455,0
698836,-51,336,483,1
698847,-64,290,447,0
698858,-76,273,430,0
698869,-80,195,347,0
698880,-76,187,344,0
698891,-49,149,274,0
698902,-1,127,246,0
698913,37,139,223,0
698924,69,172,229,0
698935,118,181,207,0
698946,121,166,189,0
698957,138,135,140,0
698968,113,84,109,0
698979,69,56,104,0
698990,77,61,73,0
699001,53,37,44,0
699012,48,34,22,0
699023,37,19,-7,0
699034,15,8,-27,0
699045,2,6,-48,0
699056,-47,-12,-71,0
699067,-77,-20,-83,0
699078,-96,-18,-89,0
699089,-61,-5,-92,0
699100,-40,18,-95,1
699111,40,10,-156,0
699122,211,108,-220,0
699133,227,-191,135,0
699144,196,-301,274,0
699155,171,-151,368,0
699166,213,15,511,0
699177,361,479,511,0
699188,419,511,511,0
699199,294,248,413,0
699210,221,161,354,0
699221,115,99,254,0
699232,155,102,249,0
699243,-71,511,511,0
699254,-46,108,311,1
699265,23,156,367,0
699276,65,329,493,0
699287,61,218,337,0
699298,93,274,346,0
699309,-52,178,293,0
699320,23,136,212,0
699331,43,86,197,0
699342,21,-8,140,0
699353,-35,65,34,0
699364,-7,124,59,0
699375,26,58,75,0
699386,67,-7,13,0
699397,86,-41,-24,0
699408,127,8,-29,0
699419,155,-1,-51,0
699430,152,-26,-33,0
699441,169,-10,-53,0
699452,232,32,-58,0
699463,137,-54,-97,1
699474,140,-39,-45,0
699485,38,11,-49,0
699496,-9,15,-37,0
699507,104,-242,-17,0
699518,174,-47,29,0
699529,-4,126,212,0
699540,34,52,251,0
699551,64,68,357,0
699562,46,57,501,0
699573,12,173,511,0
699584,18,234,415,0
699595,22,139,341,0
699606,41,116,339,0
699617,70,136,337,0
699628,86,179,357,0
699639,76,207,354,0
699650,74,327,416,0
699661,79,303,395,0
699672,73,187,290,0
699683,83,203,318,0
699695,71,113,245,0
699706,110,108,232,0
699717,139,192,266,0
699728,96,147,245,0
699739,82,123,220,0
699750,78,137,207,0
699761,26,55,153,0
699772,55,71,173,0
699783,11,-1,113,0
699795,3,-3,85,0
699806,9,4,55,0
699817,-13,-3,-5,0
699828,-3,-16,-81,0
699839,-1,-4,-78,0
699850,-16,-17,-64,0
699861,-55,-55,-89,1
699872,-51,-51,-83,0
699883,-38,-45,-75,0
699895,27,-64,-85,0
699906,134,-75,-87,0
699917,167,-39,-68,0
699928,140,-73,58,0
699939,162,-61,153,0
699950,111,-53,220,0
699961,163,67,430,0
699972,226,205,511,0
699983,511,511,511,0
699994,473,511,511,0
700005,317,215,337,0
700016,493,253,339,0
700027,62,425,444,0
700038,96,150,305,0
700049,48,198,384,0
700060,75,256,442,0
700071,-20,178,354,0
700082,-1,158,330,0
700093,130,178,250,0
700104,-89,147,276,0
700115,-223,129,336,0
700126,-118,186,237,0
700137,-131,141,144,0
700148,-157,53,95,0
700159,-61,-32,15,0
700170,14,-29,-45,0
700181,24,3,-26,0
700192,139,9,-75,0
700203,77,-24,-100,0
700214,37,-27,-107,0
700225,45,-60,-115,0
700236,79,-55,-128,1
700247,33,-53,-113,0
700258,44,-58,-103,0
700269,77,-55,-66,0
700280,113,-30,-36,0
700291,125,-95,-31,0
700302,235,-275,-2,0
700313,222,28,121,0
700324,177,82,121,0
700335,175,53,229,0
700346,209,90,390,0
700357,206,163,511,0
700368,134,313,511,1
700379,133,336,511,0
700390,134,208,366,0
700401,125,154,284,0
700412,178,204,312,0
700423,198,217,291,0
700434,226,367,375,0
700445,112,363,419,0
700456,33,282,359,0
700467,-11,329,389,0
700478,-79,100,209,0
700489,-56,248,337,0
700500,29,276,327,0
700511,-70,126,244,0
700522,-42,50,199,0
700533,82,107,206,0
700544,53,80,193,0
700555,68,44,140,0
700566,55,10,105,0
700577,152,50,47,0
700588,61,-15,38,0
700599,58,-35,6,0
700610,50,-43,-32,0
700621,61,-65,-116,0
700632,47,-78,-131,0
700643,31,-69,-146,1
700654,11,-57,-146,0
700665,2,-44,-126,0
700676,53,-53,-155,0
700687,109,-62,-132,0
700698,93,-94,-48,0
700709,112,-137,105,0
700720,130,-133,178,0
700731,106,-59,304,0
700742,184,64,511,0
700753,262,506,511,0
700764,511,511,511,0
700775,314,324,395,0
700786,223,351,392,0
700797,168,306,390,0
700808,117,281,450,0
700819,51,153,398,0
700831,91,229,470,0
700842,101,227,420,0
700853,119,185,324,0
700864,78,191,299,0
700875,71,219,323,0
700886,40,122,226,0
700897,16,80,186,0
700908,-27,110,207,0
700919,-23,65,108,0
700930,27,87,59,0
700941,49,59,-17,0
700952,5,12,-44,0
700963,26,7,-56,0
700974,33,-13,-82,0
700985,46,-17,-112,0
700996,80,-6,-109,0
701007,8,-21,-120,0
701018,27,-25,-101,0
701029,37,-48,-116,0
701040,55,-2,-108,0
701051,70,10,-91,0
701062,46,-10,-68,1
701073,133,-180,-23,0
701084,186,-97,-36,0
701095,101,115,201,0
701106,132,49,237,0
701117,103,-37,282,0
701128,91,67,411,0
701139,23,144,511,0
701150,-114,272,511,0
701161,-60,265,511,0
701172,-103,160,459,0
701183,-30,166,434,0
701194,-33,154,390,0
701205,48,142,342,0
701216,166,262,344,0
701227,118,394,443,0
701238,172,371,373,0
701249,75,95,215,0
701260,112,60,191,0
701271,92,86,241,0
701282,199,113,230,0
701293,139,80,207,0
701304,159,133,243,0
701315,-5,128,315,0
701326,173,142,257,0
701337,-6,55,195,0
701348,-10,62,186,0
701359,13,49,119,0
701370,-6,-33,-46,0
701381,14,-34,-107,0
701392,-16,-58,-110,0
701403,-43,-98,-120,0
701414,-89,-73,-92,0
701425,-49,-66,-109,0
701436,-49,-62,-88,0
701447,-1,-65,-99,1
701458,113,-60,-148,0
701469,215,35,-158,0
701480,187,-33,-9,0
701491,178,-137,208,0
701502,107,-134,288,0
701513,296,308,511,0
701524,422,511,511,0
701535,409,432,511,0
701546,373,188,402,0
701557,324,47,218,0
701568,189,373,387,0
701579,-54,294,367,0
701590,33,175,355,0
701601,-13,197,374,0
701612,13,267,424,0
701623,-35,277,406,0
701634,-45,232,335,0
701645,-43,206,293,0
701656,-62,170,266,0
701667,-75,66,245,0
701678,-13,1,222,0
701689,21,8,198,0
701700,54,139,80,0
701711,38,91,27,0
701722,43,12,-18,0
701733,3,-28,-54,0
701744,252,-64,90,0
701755,48,-29,-40,0
701766,25,-66,-100,0
701777,25,-64,-128,0
701788,12,-115,-121,0
701799,-112,53,-252,0
701810,11,-27,-147,0
701821,71,-58,-138,1
701832,117,-112,-121,0
701843,161,-188,-130,0
701854,162,184,-98,0
701865,139,138,45,0
701876,150,-160,45,0
701887,400,148,355,0
701898,511,-62,265,0
701909,476,389,511,0
701920,386,511,511,0
701931,214,203,455,0
701942,175,41,219,0
701953,141,93,206,0
701964,105,160,251,0
701975,229,320,355,0
701986,181,281,355,0
701997,173,232,379,0
702008,163,225,379,0
702019,144,194,323,0
702030,162,227,337,0
702041,118,200,296,0
702052,34,172,242,0
702063,126,204,253,0
702074,99,147,222,0
702085,93,138,213,0
702096,113,152,191,0
702107,101,136,147,0
702118,45,156,98,0
702129,36,143,84,0
702140,72,139,88,0
702151,106,179,-1,0
702162,-1,73,-72,0
702173,-67,12,12,0
702184,66,86,-29,0
702195,13,95,-42,0
702206,-34,96,-67,1
702217,-54,98,-75,0
702228,-49,77,-91,0
702239,47,22,-113,0
702250,21,-78,-93,0
702261,65,-41,-80,0
702272,72,31,-27,0
702283,47,-58,93,0
702294,75,-78,263,0
702305,80,-89,511,0
702316,-122,-18,511,1
702327,-118,325,511,0
702338,50,418,511,0
702349,125,248,511,0
702360,128,159,511,0
702371,60,134,506,0
702382,-7,85,407,0
702393,-4,121,405,0
702404,47,61,365,0
702415,143,481,511,0
702426,-70,120,420,0
702437,28,65,310,0
702448,61,27,244,0
702459,53,72,291,0
702470,38,48,276,0
702481,69,8,248,0
702492,98,20,168,0
702503,116,58,137,0
702514,54,11,102,0
702525,79,17,92,0
702536,74,-1,66,0
702547,59,-35,22,0
702558,43,-31,0,0
702569,17,30,49,0
702580,11,43,4,0
702591,8,-40,-26,0
702602,8,-13,-114,1
702613,-27,1,-62,0
702624,5,-8,-64,0
702635,40,-32,-96,0
702646,54,0,-51,0
702657,99,-54,-50,0
702668,157,-113,-51,0
702679,295,-63,-19,0
702690,329,38,57,0
702701,247,141,146,0
702712,338,147,205,0
702723,259,195,363,0
702734,126,377,511,0
702745,-29,284,489,0
702756,-96,221,401,0
702767,-82,165,336,0
702778,-17,171,337,0
702789,58,231,365,0
702800,87,284,379,0
702811,98,326,421,0
702822,71,301,384,0
702833,57,292,388,0
702844,25,229,340,0
702855,24,221,326,0
702866,18,185,295,0
702877,10,69,198,0
702888,83,136,257,0
702899,51,19,159,0
702910,103,136,241,0
702921,113,142,224,0
702932,77,131,247,0
702943,48,141,211,0
702954,35,107,175,0
702965,36,61,148,0
702976,24,12,113,0
702987,7,13,72,0
702998,-4,-27,-7,0
703009,6,-32,-21,1
703020,17,-36,-77,0
703031,25,0,-88,0
703042,15,12,-82,0
703053,69,-2,-91,0
703064,131,-11,-85,0
703075,185,-48,-19,0
703086,204,-103,60,0
703097,196,-93,115,0
703108,173,-41,205,0
703119,150,-16,412,0
703130,159,135,511,0
703141,194,502,511,0
703152,228,480,511,0
703163,203,335,498,0
703174,185,232,374,0
703185,123,356,428,0
703196,90,269,418,0
703207,50,191,382,0
703218,26,126,344,0
703229,69,130,332,0
703240,54,91,283,0
703251,54,99,287,0
703262,41,81,248,0
703273,53,77,209,0
703284,32,52,150,0
703295,17,65,118,0
703306,44,150,116,0
703317,13,108,44,0
703328,-51,36,-5,0
703339,15,46,-29,0
703350,28,-53,-103,0
703362,66,-16,-121,0
703373,72,3,-123,0
703384,78,-41,-124,1
703395,94,-27,-101,0
703406,90,-10,-92,0
703417,98,-34,-75,0
703428,57,-29,-63,0
703439,8,15,-44,0
703450,7,-60,-37,0
703462,223,-385,-9,0
703473,353,200,301,0
703484,256,132,145,0
703495,186,-39,287,0
703506,17,101,409,0
703517,-52,191,511,0
703528,-74,178,511,0
703539,-103,160,399,0
703550,-100,133,376,0
703561,-33,272,447,0
703572,45,339,477,0
703583,78,300,436,0
703594,108,366,462,0
703605,70,358,454,0
703616,50,284,402,0
703627,16,174,286,0
703638,-18,154,272,0
703649,32,156,247,0
703660,69,173,234,0
703671,81,162,174,0
703682,130,190,197,0
703693,157,200,202,0
703704,136,146,143,0
703715,150,118,136,0
703726,145,90,125,0
703737,108,38,64,0
703748,70,33,51,0
703759,63,48,26,0
703770,6,-1,-57,0
703781,-23,1,-85,0
703792,-46,-1,-87,0
703803,-63,-3,-70,0
703814,-79,-27,-58,0
703825,-66,-12,-52,0
703836,-39,5,-64,0
703847,82,34,-105,0
703858,220,32,-148,0
703869,179,-113,30,0
703880,208,-236,154,1
703891,199,-192,245,0
703902,175,-64,308,0
703913,125,57,511,0
703924,264,511,511,0
703935,238,301,455,0
703946,251,295,459,0
703957,168,285,410,0
703968,96,159,282,0
703979,38,511,511,0
703990,33,348,443,0
704001,31,200,368,0
704012,47,235,397,0
704023,67,249,377,0
704034,49,142,263,0
704045,91,172,257,0
704056,58,175,287,0
704067,44,110,235,0
704078,90,42,119,0
704089,42,125,48,0
704100,6,149,16,0
704111,62,89,2,0
704122,57,-30,19,0
704133,116,-14,-54,0
704144,106,48,-63,0
704155,104,4,-77,0
704166,165,-61,-99,0
704177,130,-60,-101,0
704188,132,-29,-78,0
704199,152,-28,-64,0
704210,129,-19,-66,0
704221,56,-28,-57,0
704232,106,-81,16,0
704243,230,-101,114,1
704254,206,74,183,0
704265,146,131,252,0
704276,61,61,262,0
704287,126,63,362,0
704298,25,114,469,0
704309,18,153,511,0
704320,-36,170,473,0
704331,-41,190,393,0
704342,-34,161,332,0
704354,13,161,332,0
704365,28,280,411,0
704376,-21,304,446,0
704387,-38,327,469,0
704398,-60,269,403,0
704409,-70,248,358,0
704420,-30,215,305,0
704431,-10,148,232,0
704442,52,179,246,0
704453,74,162,212,0
704465,149,177,190,0
704476,162,188,200,0
704487,154,143,183,0
704498,156,111,163,0
704509,147,85,122,0
704520,108,55,94,0
704531,99,46,57,0
704542,50,48,21,0
704553,26,34,-8,0
704564,2,16,-37,0
704575,-34,-3,-49,0
704586,-60,-17,-64,0
704597,-66,-20,-84,0
704608,-82,-27,-91,0
704619,15,-13,-112,0
704630,50,-22,-123,1
704641,153,3,-124,0
704652,208,-113,63,0
704663,161,-144,160,0
704674,142,-87,196,0
704685,150,32,353,0
704696,214,150,511,0
704707,308,467,511,0
704718,300,429,511,0
704729,277,230,426,0
704740,239,186,369,0
704751,103,129,244,0
704762,206,511,511,0
704773,112,250,395,0
704784,86,155,375,0
704795,77,213,436,0
704806,59,213,413,0
704817,47,131,280,0
704828,96,170,286,0
704839,-27,124,334,0
704850,30,33,201,0
704861,26,58,62,0
704872,-16,98,97,0
704883,40,103,90,0
704894,73,76,62,0
704905,83,38,20,0
704916,90,16,-25,0
704927,93,5,-56,0
704938,75,-35,-84,0
704949,90,-44,-90,0
704960,67,-46,-108,0
704971,81,-22,-82,0
704982,123,-31,-103,0
704993,65,-70,-79,0
705004,69,-73,-64,1
705015,113,-126,-34,0
705026,229,-130,60,0
705037,192,116,148,0
705048,70,101,196,0
705059,83,73,213,0
705070,140,89,445,0
705081,65,117,449,0
705092,-1,162,511,0
705103,-9,177,508,0
705114,20,166,331,0
705125,40,141,344,0
705136,88,167,333,0
705147,101,235,363,0
705158,67,270,386,0
705169,44,292,406,0
705180,11,261,379,0
705191,-12,227,340,0
705202,-21,205,311,0
705213,22,186,270,0
705224,31,151,251,0
705235,61,168,255,0
705246,111,166,239,0
705257,98,144,238,0
705268,117,78,177,0
705279,101,23,141,0
705290,99,-2,149,0
705301,83,-8,136,0
705312,48,-11,90,0
705323,22,-34,21,0
705334,-3,-32,-13,0
705345,-41,-60,-57,0
705356,-70,-77,-76,0
705367,-87,-86,-90,0
705378,-79,-82,-109,0
705389,-56,-70,-103,0
705400,18,-42,-134,1
705411,139,-13,-159,0
705422,188,-111,99,0
705433,195,-119,199,0
705444,166,50,241,0
705455,214,220,403,0
705466,348,271,511,0
705477,457,511,511,0
705488,395,432,511,0
705499,370,191,351,0
705510,308,316,348,0
705521,258,383,409,0
705532,149,201,298,1
705543,118,183,344,0
705554,111,197,397,0
705565,101,166,353,0
705576,89,203,334,0
705587,85,222,325,0
705598,-45,151,314,0
705609,-38,89,252,0
705620,-54,4,167,0
705631,-76,74,173,0
705642,-81,71,124,0
705653,-80,47,78,0
705664,14,21,23,0
705675,13,23,-2,0
705686,49,8,-51,0
705697,28,-23,-57,0
705708,61,-66,-92,0
705719,46,-93,-132,0
705730,110,-69,-149,0
705741,122,-37,-161,0
705752,106,25,-88,0
705763,193,-36,-92,1
705774,110,-65,-48,0
705785,50,-19,-11,0
705796,43,-96,30,0
705807,217,-338,97,0
705818,137,322,197,0
705829,190,46,306,0
705840,94,158,375,0
705851,210,231,511,0
705862,128,346,511,0
705873,52,137,344,0
705884,30,45,274,0
705895,73,155,316,0
705906,149,196,319,0
705917,158,204,326,0
705928,150,338,422,0
705939,93,226,336,0
705950,80,219,335,0
705962,37,252,350,0
705973,-10,230,325,0
705984,-17,205,299,0
705995,2,288,386,0
706006,-44,189,294,0
706017,-30,143,263,0
706028,-12,135,252,0
706039,24,85,209,0
706050,54,42,153,0
706062,136,60,135,0
706073,97,40,128,0
706084,67,14,70,0
706095,56,-14,21,0
706106,48,-39,-20,0
706117,33,-52,-57,0
706128,0,-65,-101,0
706139,-40,-82,-120,0
706150,-62,-62,-138,0
706162,-39,-57,-120,1
706173,49,-67,-125,0
706184,122,-58,-79,0
706195,102,-96,56,0
706206,99,-119,154,0
706217,115,-31,216,0
706228,160,102,353,0
706239,269,238,511,0
706250,413,511,511,0
706261,390,511,511,1
706272,284,179,420,0
706283,219,214,356,0
706294,148,316,399,0
706305,112,260,420,0
706316,58,132,333,0
706327,61,167,371,0
706338,72,138,327,0
706349,45,82,284,0
706360,40,110,299,0
706371,44,111,277,0
706382,4,90,249,0
706393,40,82,215,0
706404,49,51,148,0
706415,56,20,71,0
706426,65,104,90,0
706437,114,67,7,0
706448,106,13,-69,0
706459,59,-15,-73,0
706470,24,-58,-102,0
706481,51,-62,-151,0
706492,67,-48,-186,0
706503,86,-34,-183,0
706514,70,-40,-135,0
706525,56,-40,-97,1
706536,68,-30,-65,0
706547,91,-100,-51,0
706558,247,-253,19,0
706569,262,41,127,0
706580,166,141,244,0
706591,6,174,437,0
706602,36,264,511,0
706613,-70,343,511,0
706624,-109,263,511,0
706635,-44,142,403,0
706646,9,119,349,0
706657,70,143,372,0
706668,85,168,396,0
706679,200,210,389,0
706690,144,272,409,0
706701,106,260,412,0
706712,65,207,348,0
706723,61,223,363,0
706734,43,121,254,0
706745,55,217,304,0
706756,50,230,309,0
706767,30,147,236,0
706778,52,105,202,0
706789,44,93,175,0
706800,62,94,198,0
706811,131,28,123,0
706822,78,1,68,0
706833,24,-19,38,0
706844,77,9,4,0
706855,44,-24,-55,0
706866,13,-44,-88,0
706877,-10,-51,-120,0
706888,13,-38,-165,0
706899,-54,-39,-98,0
706910,-48,-19,-78,1
706921,28,-33,-97,0
706932,120,-40,-101,0
706943,161,-98,-12,0
706954,134,-185,110,0
706965,106,-199,132,0
706976,58,-21,236,0
706987,193,123,511,0
706998,303,333,511,0
707009,478,511,511,0
707020,345,334,511,0
707031,294,267,464,0
707042,158,92,221,0
707053,101,253,405,0
707065,55,172,378,0
707076,75,259,458,0
707087,63,228,397,0
707098,58,163,324,0
707109,55,110,268,0
707120,74,127,263,0
707131,3,93,263,0
707142,-25,5,186,0
707153,-16,-5,124,0
707164,7,156,192,0
707175,9,73,36,0
707186,28,48,26,0
707197,30,-2,-47,0
707208,21,-34,-106,0
707219,82,-55,-136,0
707230,74,-69,-145,0
707241,24,-66,-161,0
707252,58,-36,-141,0
707263,59,-10,-164,1
707274,124,-22,-137,0
707285,132,1,-107,0
707296,105,14,-64,0
707307,107,-51,-41,0
707318,237,-220,52,0
707329,299,-61,38,0
707340,73,-30,282,0
707351,38,148,373,0
707362,56,203,511,0
707373,0,260,511,0
707384,-51,277,511,0
707395,-44,152,413,0
707406,-20,89,350,0
707417,44,132,389,0
707428,100,184,404,0
707439,137,278,450,0
707450,38,160,329,0
707461,73,411,511,0
707472,12,271,389,0
707483,-12,200,336,0
707494,56,107,233,0
707505,94,92,221,0
707516,99,159,293,0
707527,109,127,281,0
707538,143,104,265,0
707549,131,145,279,0
707560,70,161,264,0
707571,45,167,249,0
707582,-1,130,133,0
707593,-76,-1,57,0
707604,-49,-27,7,0
707615,-12,-7,-16,0
707626,-19,-55,-90,1
707637,-108,-102,-91,0
707648,-110,-67,-142,0
707659,-89,-42,-57,0
707670,-1,-37,-76,0
707681,115,-34,-111,0
707692,178,-40,-16,0
707703,170,-90,107,0
707714,166,-66,171,0
707725,165,9,180,0
707736,184,115,326,0
707747,279,238,511,0
707758,408,415,511,0
707769,326,304,511,0
707780,262,181,424,0
707791,125,117,279,0
707802,146,504,511,0
707813,-116,303,382,0
707824,36,244,415,0
707835,28,194,388,0
707846,45,227,397,0
707857,34,161,310,0
707868,15,107,263,0
707879,26,160,312,0
707890,-13,128,267,0
707901,17,121,206,0
707912,11,120,150,0
707923,-5,82,93,0
707934,15,91,68,0
707945,17,32,-19,0
707956,0,-7,-49,0
707967,29,-42,-100,0
707978,63,-67,-120,0
707989,70,-97,-147,0
708000,85,-61,-162,0
708011,121,-14,-150,0
708022,105,-25,-134,1
708033,123,-96,-132,0
708044,127,-88,-101,0
708055,131,-82,-92,0
708066,229,-163,-1,0
708077,231,31,54,0
708088,184,130,196,0
708099,75,77,245,0
708110,11,151,437,1
708121,-28,234,511,0
708132,-64,379,511,0
708143,-49,336,479,0
708154,-14,244,377,0
708165,-33,168,327,0
708176,31,154,252,0
708187,77,229,333,0
708198,104,395,480,0
708209,60,278,414,0
708220,44,272,423,0
708231,36,233,384,0
708242,19,193,324,0
708253,64,107,211,0
708264,101,158,203,0
708275,128,210,237,0
708286,122,158,184,0
708297,144,216,210,0
708308,134,187,200,0
708319,128,144,184,0
708330,119,81,166,0
708341,88,14,100,0
708352,95,65,90,0
708364,49,11,46,0
708375,47,-10,-34,0
708386,-1,-15,-68,1
708397,-27,-18,-111,0
708408,-42,-8,-132,0
708419,-25,-5,-164,0
708430,-17,14,-169,0
708441,76,34,-219,0
708452,134,34,-193,0
708463,148,-102,-51,0
708474,114,-240,114,0
708485,62,-222,181,0
708496,127,-68,241,0
708507,225,79,445,0
708518,344,191,511,0
708529,448,511,511,0
708540,244,165,370,0
708551,143,137,347,0
708562,134,120,384,0
708573,-40,31,273,0
708584,-261,511,511,0
708595,-170,223,348,0
708606,45,118,356,0
708617,20,161,370,0
708628,51,223,378,0
708639,67,149,280,0
708650,61,43,204,0
708661,118,114,231,0
708672,64,218,266,0
708683,7,182,173,0
708694,42,128,35,0
708705,7,77,14,0
708716,17,32,6,0
708727,53,-20,-21,1
708738,59,-45,-60,0
708749,82,-46,-98,0
708760,51,-62,-117,0
708771,74,-54,-155,0
708782,74,-19,-135,0
708793,117,-28,-130,0
708804,123,-43,-97,0
708815,137,-60,-96,0
708826,90,-4,-68,0
708837,69,-14,-42,0
708848,349,46,183,0
708859,352,195,339,0
708870,170,40,251,0
708881,16,215,410,0
708892,61,160,477,0
708903,-3,182,511,0
708914,-37,170,420,0
708925,-31,214,361,0
708936,-6,283,405,0
708947,36,282,381,0
708958,64,427,484,0
708969,95,384,482,0
708980,76,327,445,0
708991,55,339,458,0
709002,1,191,332,0
709013,-22,168,323,0
709024,10,134,236,0
709035,75,153,228,0
709046,86,148,197,0
709057,98,174,169,0
709068,117,211,183,0
709079,119,175,152,0
709090,100,89,98,0
709101,124,145,139,0
709112,110,115,134,0
709123,87,72,96,1
709134,75,63,68,0
709145,82,40,40,0
709156,30,-6,-31,0
709167,8,6,-69,0
709178,-25,2,-89,0
709189,-38,1,-95,0
709200,-3,5,-116,0
709211,4,8,-109,0
709222,33,7,-197,0
709233,159,92,-212,0
709244,183,9,-122,0
709255,189,-140,90,0
709266,136,-273,226,0
709277,108,-206,338,0
709288,97,-35,511,0
709299,343,511,511,0
709310,312,379,486,0
709321,265,207,422,0
709332,175,144,330,0
709343,121,205,373,0
709354,114,113,302,0
709365,-9,511,511,0
709376,-48,312,433,0
709387,46,116,296,0
709398,55,180,335,0
709409,40,216,339,0
709420,121,143,209,0
709431,106,114,196,0
709442,70,71,182,0
709453,54,53,112,0
709464,63,86,4,0
709475,94,102,-20,0
709486,121,73,-16,0
709497,135,10,-36,1
709508,144,-50,-81,0
709519,139,-6,-103,0
709530,129,-44,-106,0
709541,115,-36,-91,0
709552,113,-16,-58,0
709563,153,-30,-40,0
709574,98,-11,-28,0
709585,-16,-11,-42,0
709596,-56,-12,-33,0
709607,50,-287,-44,0
709618,187,-63,88,0
709629,250,192,330,0
709640,263,181,368,0
709651,168,101,420,0
709662,82,192,511,0
709673,84,219,511,0
709684,63,180,452,0
709695,-16,123,326,0
709706,-16,130,317,0
709717,35,138,296,0
709728,82,343,437,0
709739,95,330,433,0
709750,23,339,484,0
709761,-9,285,439,0
709772,-66,210,348,0
709783,-92,138,285,0
709794,-27,158,271,0
709805,3,106,191,0
709816,-34,77,139,0
709827,125,182,195,0
709838,109,190,197,0
709849,153,149,169,0
709860,196,112,164,0
709871,220,102,169,0
709882,179,100,164,0
709893,175,115,121,1
709904,116,62,65,0
709915,42,4,-13,0
709926,14,12,-52,0
709937,-41,2,-82,0
709948,-76,-6,-100,0
709959,-76,-10,-102,0
709970,-20,-3,-117,0
709981,41,-52,-98,0
709992,64,-60,-34,0
710003,83,-61,33,0
710014,73,-53,83,0
710025,110,-44,169,0
710036,132,-48,257,0
710048,232,232,511,0
710059,303,511,511,0
710070,286,350,511,0
710081,259,260,450,0
710092,216,236,376,0
710103,174,139,278,0
710114,123,313,381,0
710125,83,367,464,0
710136,53,119,297,0
710147,77,170,359,0
710158,87,196,373,0
710169,51,138,312,0
710180,100,79,294,0
710191,44,63,254,0
710202,47,127,100,0
710213,68,77,74,0
710224,64,43,53,0
710235,131,44,29,0
710246,159,84,-56,0
710257,146,34,-105,1
710268,181,-8,-116,0
710279,146,-55,-134,0
710290,150,-39,-142,0
710301,150,-27,-136,0
710312,153,-47,-113,0
710323,114,-74,-94,0
710334,102,-71,-86,0
710345,80,-60,-62,0
710356,183,-130,70,0
710367,188,-28,161,0
710378,92,86,242,0
710389,9,95,300,0
710400,51,-14,341,0
710411,-121,131,511,0
710422,-136,249,511,0
710433,-85,253,511,0
710444,-16,200,402,0
710455,27,194,385,0
710466,79,276,429,0
710477,82,278,435,0
710488,78,338,468,0
710499,4,331,486,0
710510,-21,243,407,0
710521,-40,150,319,0
710532,-47,123,283,0
710543,53,138,259,0
710554,50,122,225,0
710565,88,131,189,0
710576,152,196,242,0
710587,151,201,248,0
710598,130,119,152,1
710609,153,125,147,0
710620,122,55,81,0
710631,119,81,99,0
710642,85,39,52,0
710653,70,24,-8,0
710664,25,0,-85,0
710675,-42,9,-101,0
710686,-48,-27,-152,0
710697,-37,-63,-149,0
710708,-38,-73,-130,0
710719,-24,-48,-110,0
710730,-2,-22,-105,0
710741,107,5,-163,0
710752,187,64,-166,0
710763,208,-80,-43,0
710774,206,-208,157,0
710785,198,-179,257,0
710796,174,-36,340,0
710807,252,398,511,0
710818,212,476,511,0
710829,172,262,511,0
710840,153,242,487,0
710851,97,271,447,0
710862,40,276,447,0
710873,251,379,511,0
710884,-173,504,504,0
710895,-28,263,380,0
710906,-16,211,372,0
710917,-7,245,383,0
710928,7,156,329,0
710939,68,-33,265,0
710950,63,-1,152,0
710961,3,114,145,0
710972,43,116,74,0
710983,103,93,0,0
710994,104,-9,-11,0
711005,125,49,-71,1
711016,128,26,-113,0
711027,134,-5,-134,0
711039,129,-55,-162,0
711050,119,-37,-181,0
711061,195,2,-213,0
711072,65,-73,-156,0
711083,99,-96,-106,0
711094,88,-66,-62,0
711105,187,-188,8,0
711116,284,-6,139,0
711127,201,50,177,0
711138,47,176,152,0
711149,10,23,312,0
711160,-58,67,377,0
711171,-71,82,511,0
711182,-100,128,511,0
711193,-79,161,502,0
711204,10,223,431,0
711215,78,255,424,0
711226,109,306,445,0
711237,78,235,358,0
711248,81,271,392,0
711259,42,290,407,0
711270,10,225,329,0
711281,2,159,269,0
711292,61,191,291,0
711303,9,94,223,0
711314,113,171,263,0
711325,133,150,217,0
711336,117,125,199,0
711347,125,103,224,0
711358,169,135,262,0
711369,162,84,226,1
711380,130,79,180,0
711391,101,51,126,0
711402,60,26,6,0
711413,41,23,-44,0
711424,-17,-28,-83,0
711435,-20,-28,-109,0
711446,-85,-35,-93,0
711457,-106,-54,-99,0
711468,-96,-58,-93,0
711479,-24,-50,-112,0
711490,68,-11,-105,0
711501,132,8,-78,0
711512,150,-3,6,0
711523,169,-43,78,0
711534,175,-59,141,0
711545,198,-27,257,0
711556,294,305,511,0
711567,351,511,511,0
711578,316,355,511,0
711589,260,277,441,0
711600,222,226,341,0
711611,166,389,460,0
711622,145,235,349,0
711633,123,206,379,0
711644,76,212,392,0
711655,43,201,380,0
711666,12,175,347,0
711677,-30,119,330,0
711688,-22,91,333,0
711699,-38,126,129,0
711710,-31,146,82,0
711721,23,100,54,0
711732,25,37,4,0
711743,50,-4,-48,0
711754,68,-42,-95,0
711765,95,-64,-133,0
711776,107,-55,-190,1
711787,42,-57,-209,0
711798,167,-47,-260,0
711809,74,1,-156,0
711820,131,-42,-131,0
711831,145,-39,-97,0
711842,139,-45,-70,0
711853,157,-114,-61,0
711864,330,63,190,0
711875,193,112,272,0
711886,87,235,183,0
711897,50,-32,397,0
711908,6,146,511,0
711919,-22,152,511,0
711930,-84,59,476,0
711941,-70,42,357,0
711952,8,78,353,0
711963,94,146,381,0
711974,149,232,394,0
711985,178,347,477,0
711996,131,399,477,0
712007,84,249,373,0
712018,8,209,331,0
712029,9,149,272,0
712040,33,117,265,0
712051,67,179,312,0
712062,74,178,312,0
712073,76,128,240,0
712084,92,122,202,0
712095,74,139,224,0
712106,72,74,201,1
712117,87,8,150,0
712128,95,20,119,0
712139,57,-64,-22,0
712150,79,36,18,0
712161,27,-13,-125,0
712172,-13,-34,-127,0
712183,-43,-60,-140,0
712194,-78,-71,-138,0
712205,-98,-61,-160,0
712216,-62,-10,-113,0
712227,34,-11,-117,0
712238,164,27,-110,0
712249,218,-17,-30,0
712260,214,-155,122,0
712271,201,-174,209,0
712282,186,-7,251,0
712293,233,143,511,0
712304,451,414,511,0
712315,274,173,431,0
712326,277,210,459,0
712337,134,192,373,0
712348,26,51,241,0
712359,-96,511,511,0
712370,-215,144,251,0
712381,6,130,374,0
712392,-51,268,429,0
712403,-61,237,381,0
712414,-58,156,290,0
712425,-20,146,234,0
712437,-10,202,294,0
712448,-130,124,310,0
712459,14,100,79,0
712470,4,207,-9,0
712481,42,120,-6,0
712492,-13,32,-3,0
712503,64,10,-87,0
712514,89,-12,-123,0
712525,93,-63,-172,1
712536,147,-60,-222,0
712547,259,-49,-293,0
712558,109,-17,-217,0
712569,139,-12,-169,0
712580,143,-10,-132,0
712591,116,-40,-115,0
712602,72,-73,-107,0
712613,382,-21,81,0
712624,322,69,309,0
712635,329,135,256,0
712646,78,218,102,0
712657,-99,129,511,0
712668,-116,180,511,0
712679,-145,160,511,0
712690,-86,84,395,0
712701,-33,134,375,0
712712,63,266,408,0
712723,127,316,385,0
712734,112,470,493,0
712745,130,396,443,0
712756,45,191,341,0
712767,15,207,337,0
712778,76,141,247,0
712789,88,113,230,0
712800,56,139,264,0
712811,92,197,248,0
712822,100,184,221,0
712833,139,146,192,0
712844,119,158,202,0
712855,102,113,183,0
712866,155,140,154,0
712877,75,58,75,0
712888,108,38,29,0
712899,111,54,10,0
712910,46,-16,-113,0
712921,12,-21,-135,0
712932,-24,-30,-138,1
712943,-48,-34,-142,0
712954,-55,-25,-152,0
712965,-15,-16,-170,0
712976,137,11,-265,0
712987,99,-22,-155,0
712998,113,-164,29,0
713009,119,-229,112,0
713020,101,-122,214,0
713031,192,34,329,0
713042,340,114,511,0
713053,341,511,511,0
713064,191,258,445,0
713075,123,233,435,0
713086,58,214,371,0
713097,-25,88,270,0
713108,8,511,511,0
713119,-356,266,289,0
713130,4,191,380,0
713141,-13,322,438,0
713152,2,299,391,0
713163,21,169,265,0
713174,32,54,195,0
713185,101,80,209,0
713196,38,129,267,0
713207,37,98,196,0
713218,60,119,15,0
713229,33,85,-28,0
713240,40,-11,-17,0
713251,50,-50,-41,0
713262,107,-28,-95,0
713273,104,-33,-121,1
713284,124,-29,-159,0
713295,256,-60,-198,0
713306,160,-69,-151,0
713317,196,-38,-91,0
713328,210,-69,-63,0
713339,202,-76,-57,0
713350,218,-109,-22,0
713361,252,-98,50,0
713372,103,198,138,0
713383,-60,93,269,0
713394,-206,95,415,0
713405,-83,90,511,0
713416,-205,197,511,0
713427,-95,314,476,0
713438,-11,337,383,0
713449,31,279,371,0
713460,44,257,370,0
713471,38,233,340,0
713482,24,338,451,0
713493,1,295,425,0
713504,-17,273,406,0
713515,-12,239,355,0
713526,18,139,226,0
713537,38,136,222,0
713548,25,95,168,0
713559,96,181,227,0
713570,86,168,233,0
713581,141,135,202,0
713592,140,99,188,0
713603,138,80,190,0
713614,117,20,124,0
713625,88,17,123,0
713636,50,18,99,1
713647,33,29,39,0
713658,16,29,-12,0
713669,-8,24,-58,0
713680,-66,11,-84,0
713691,-80,6,-75,0
713702,-30,0,-94,0
713713,84,-4,-129,0
713724,148,-42,-78,0
713735,165,-38,-6,0
713746,147,-61,51,0
713757,165,-50,119,0
713768,189,-34,216,0
713779,254,14,417,0
713790,344,208,511,0
713801,466,511,511,0
713812,391,395,479,0
713823,316,230,347,0
713834,451,418,488,0
713845,-163,367,407,0
713856,77,151,361,0
713867,32,152,368,0
713878,59,255,439,0
713889,21,195,363,0
713900,0,136,298,0
713911,25,139,230,0
713922,-19,126,253,0
713933,-86,50,253,0
713944,-45,-10,163,0
713955,-18,57,59,0
713966,7,48,14,0
713977,86,23,-16,0
713988,86,7,-47,0
713999,72,-31,-95,0
714010,89,-45,-135,0
714021,79,-54,-141,1
714032,67,-59,-139,0
714043,54,-31,-109,0
714054,42,-9,-101,0
714065,54,6,-66,0
714076,60,-24,-48,0
714087,31,-33,-12,0
714098,-12,-53,16,0
714109,92,-316,37,0
714120,388,-269,68,0
714131,207,162,194,0
714142,92,83,460,0
714153,182,269,511,0
714164,150,305,511,0
714175,128,267,511,0
714186,77,119,324,0
714197,85,127,312,0
714208,134,128,283,0
714219,182,239,345,0
714230,215,251,352,0
714241,156,199,305,0
714252,150,274,383,0
714263,116,249,351,0
714274,69,224,313,0
714285,26,254,333,0
714296,-8,179,274,0
714307,-17,97,213,0
714318,-11,126,225,0
714329,-19,107,221,0
714340,14,113,245,0
714351,39,54,194,0
714362,56,48,162,0
714373,77,75,135,1
714384,32,42,93,0
714395,44,11,40,0
714406,0,-32,-5,0
714417,-20,-47,-51,0
714428,-25,-60,-88,0
714439,-29,-85,-133,0
714450,-25,-63,-92,0
714461,-5,-68,-91,0
714472,70,-80,-172,0
714483,152,-27,-156,0
714494,204,-50,-42,0
714505,195,-196,148,0
714516,158,-191,181,0
714527,137,-4,294,0
714538,281,161,511,0
714549,327,511,511,0
714560,511,511,511,0
714571,336,198,424,0
714582,277,233,355,0
714593,150,345,410,0
714604,88,280,399,0
714615,26,140,347,0
714626,44,194,395,0
714637,18,172,366,0
714648,53,134,301,0
714659,-33,146,336,0
714670,-22,161,334,0
714681,-63,95,275,0
714692,6,64,204,0
714703,2,55,161,0
714714,-3,64,96,0
714725,33,77,63,0
714736,28,85,40,0
714747,72,16,-77,0
714758,69,-10,-93,0
714769,84,-33,-100,0
714780,57,-44,-122,0
714791,-2,-66,-120,1
714802,145,-86,-159,0
714813,66,-69,-108,0
714824,66,-63,-79,0
714835,73,-22,-34,0
714846,85,-69,2,0
714857,162,-208,68,0
714868,223,-24,140,0
714879,170,140,151,0
714890,-46,63,222,0
714901,116,101,334,0
714912,148,164,456,0
714923,140,184,511,0
714934,70,313,511,0
714945,74,273,455,0
714956,109,266,408,0
714967,142,175,336,0
714978,172,181,295,0
714989,169,354,408,0
715000,119,252,326,0
715011,76,285,372,0
715022,38,266,351,0
715033,6,155,261,0
715044,5,174,274,0
715055,-23,109,227,0
715066,74,143,243,0
715077,138,135,230,0
715088,91,127,258,0
715099,97,146,287,0
715110,109,113,253,0
715121,118,102,225,0
715132,57,94,194,0
715143,-10,89,167,0
715154,-8,69,114,0
715166,-62,11,38,1
715177,-93,-39,-9,0
715188,-50,-55,-95,0
715199,-95,-70,-99,0
715210,-97,-61,-107,0
715221,-59,-21,-85,0
715232,-7,1,-80,0
715243,135,3,-125,0
715254,216,3,-66,0
715266,218,-83,23,0
715277,202,-128,139,0
715288,214,-94,138,0
715299,206,48,283,0
715310,290,156,511,0
715321,414,511,511,0
715332,317,339,429,0
715343,210,221,325,0
715354,170,275,346,0
715365,52,417,461,0
715376,-28,173,301,0
715387,-22,272,435,0
715398,-31,205,389,0
715409,-22,182,385,0
715420,9,167,333,0
715431,76,175,352,0
715442,-40,126,325,0
715453,2,169,146,0
715464,-29,67,110,0
715476,-34,60,87,0
715487,-19,52,67,0
715498,-4,2,21,0
715509,64,31,-12,0
715520,33,31,-10,0
715531,42,-62,-48,0
715542,51,-71,-81,0
715553,81,-76,-119,1
715564,117,-53,-118,0
715575,123,-44,-109,0
715586,122,-30,-87,0
715597,104,-39,-69,0
715608,89,-13,-51,0
715619,372,-295,86,0
715630,338,21,113,0
715641,276,218,241,0
715652,154,-13,319,0
715664,175,158,327,0
715675,43,160,357,0
715686,-5,214,479,0
715697,-57,192,447,0
715708,-25,188,348,0
715719,-19,198,313,0
715730,59,201,299,0
715741,146,255,340,0
715752,162,253,332,0
715763,138,204,305,0
715774,116,193,305,0
715785,97,194,299,0
715796,69,187,286,0
715807,43,155,258,0
715818,22,129,242,0
715829,4,132,256,0
715840,-5,150,265,0
715851,-16,96,215,0
715862,9,106,211,0
715873,4,123,235,0
715884,28,66,169,0
715895,53,62,160,0
715906,100,48,123,0
715917,120,39,97,0
715928,125,24,72,0
715939,125,6,21,0
715950,124,0,-17,0
715961,133,4,-64,1
715972,81,-37,-84,0
715983,26,-45,-76,0
715994,-5,-61,-60,0
716005,-9,-93,-72,0
716016,8,-106,-72,0
716027,13,-74,-31,0
716038,-5,-108,75,0
716049,18,-122,185,0
716060,76,65,227,0
716071,151,202,375,0
716082,211,283,511,0
716093,229,371,511,0
716104,261,423,511,0
716115,277,268,483,0
716126,241,111,314,0
716137,161,227,354,0
716148,156,255,352,0
716159,160,307,393,0
716170,127,257,364,0
716181,106,219,324,0
716192,92,202,306,0
716203,65,162,262,0
716214,53,152,257,0
716225,39,126,255,0
716236,-15,76,222,0
716247,-12,88,198,0
716258,-24,45,136,0
716269,-3,15,90,0
716280,5,-16,61,0
716291,-4,16,80,0
716302,15,-16,31,0
716313,28,-44,4,0
716324,66,-61,-11,0
716335,33,-61,-24,0
716346,-2,-65,-36,0
716357,-2,-5,-73,0
716368,14,-11,-90,0
716379,39,-15,-83,0
716390,85,19,-114,0
716401,79,-5,-116,0
716412,200,107,-179,0
716423,314,48,-117,0
716434,302,-4,-35,1
716445,315,67,69,0
716456,300,83,199,0
716467,511,-4,511,0
716478,270,340,511,0
716489,50,476,511,0
716500,-23,205,436,0
716511,-89,112,259,0
716522,-21,155,311,0
716533,44,178,295,0
716544,56,174,267,0
716555,118,372,427,0
716566,100,441,499,0
716577,110,328,390,0
716588,90,307,366,0
716599,72,256,327,0
716610,58,259,339,0
716621,30,180,278,0
716632,15,162,265,0
716643,-14,178,273,0
716654,-31,156,242,0
716665,-64,130,193,0
716676,-37,141,178,0
716687,-59,128,170,0
716698,-81,95,168,0
716709,-94,50,168,0
716720,-41,42,129,0
716731,123,121,36,0
716742,24,12,75,0
716754,22,-4,49,1
716765,52,16,72,0
716776,33,-39,-52,0
716787,60,-22,-43,0
716798,70,-14,-87,0
716809,43,-1,-79,0
716820,27,-4,-42,0
716831,53,-19,-74,0
716842,89,-16,-64,0
716853,134,-38,-7,1
716864,145,-74,87,0
716875,138,-30,183,0
716886,145,-14,327,0
716897,103,10,511,0
716908,86,272,511,0
716919,189,511,511,0
716930,208,511,511,0
716941,165,283,408,0
716952,217,115,256,0
716963,164,265,378,0
716974,106,172,341,0
716985,133,234,407,0
716996,101,133,308,0
717007,66,71,262,0
717018,114,66,238,0
717029,52,121,298,0
717040,-125,80,323,0
717051,12,97,266,0
717062,-2,135,242,0
717073,-19,51,117,0
717084,11,130,144,0
717095,35,99,94,0
717106,21,36,76,0
717117,20,-54,12,1
717128,39,-154,-51,0
717139,102,-97,-97,0
717150,118,-34,-132,0
717161,65,35,-133,0
717172,53,28,-136,0
717183,51,25,-120,0
717194,-11,-17,-174,0
717205,-4,-26,-127,0
717216,135,-102,-104,0
717227,202,-73,-43,0
717238,150,46,102,0
717249,49,118,250,0
717260,84,52,483,0
717271,8,254,511,0
717282,-120,300,511,0
717293,-173,163,453,0
717304,-193,133,372,0
717315,-181,123,325,0
717326,-137,141,382,0
717337,-94,138,379,0
717348,25,168,332,0
717359,54,314,398,0
717370,84,260,363,0
717381,40,337,452,0
717392,25,162,298,0
717403,35,87,320,0
717414,40,-21,159,0
717425,198,139,214,0
717436,161,80,248,0
717447,145,123,249,0
717458,171,117,211,0
717469,121,151,200,0
717480,134,147,195,0
717491,52,117,225,0
717502,35,79,145,0
717513,12,38,71,1
717524,18,16,17,0
717535,0,-1,-10,0
717546,-27,-34,-53,0
717557,-39,-45,-60,0
717568,-7,-20,-71,0
717579,13,7,-70,0
717590,111,44,-134,0
717601,123,40,-72,0
717612,178,-100,26,0
717623,126,-200,131,0
717634,116,-161,127,0
717645,91,-46,121,0
717656,83,62,250,0
717667,200,151,462,0
717678,204,252,511,0
717689,230,376,511,0
717700,214,285,464,0
717711,214,360,511,0
717722,27,393,476,0
717733,-4,321,437,0
717744,0,254,390,0
717755,18,224,377,0
717766,29,210,348,0
717777,39,144,259,0
717788,68,147,245,0
717799,49,142,264,0
717810,59,112,269,0
717821,101,87,241,0
717832,63,127,140,0
717843,43,185,93,0
717854,29,101,100,0
717865,63,48,-21,0
717876,83,42,-43,0
717887,80,12,-46,0
717898,71,-8,-55,0
717909,57,-28,-70,0
717920,75,-23,-91,0
717931,78,-24,-102,0
717942,263,-25,-120,1
717953,101,-65,-117,0
717964,150,-44,-54,0
717975,115,-23,-42,0
717986,97,-52,-45,0
717997,262,-168,60,0
718008,325,-115,193,0
718019,178,65,272,0
718030,-101,83,321,0
718041,-78,139,428,1
718052,-164,129,504,0
718063,-141,191,511,0
718074,-47,216,406,0
718085,22,280,431,0
718096,56,285,428,0
718107,86,328,447,0
718118,78,308,435,0
718129,63,286,427,0
718140,46,268,410,0
718151,19,206,363,0
718162,11,158,317,0
718173,50,132,257,0
718184,72,111,211,0
718195,82,77,147,0
718206,117,181,217,0
718217,106,168,216,0
718228,160,144,175,0
718239,143,93,136,0
718250,153,110,137,0
718261,109,72,112,0
718272,91,81,121,0
718283,63,80,101,0
718294,73,96,30,0
718305,37,30,17,0
718316,28,22,-5,0
718327,-9,13,-64,0
718338,-24,4,-83,0
718349,-28,0,-81,1
718360,-35,-7,-64,0
718371,-61,31,-74,0
718382,40,45,-155,0
718393,113,39,-149,0
718404,207,-139,-80,0
718416,138,-234,104,0
718427,99,-197,201,0
718438,75,-87,329,0
718449,106,6,511,0
718460,395,511,511,0
718471,354,310,471,0
718482,305,247,462,0
718493,196,144,322,0
718504,113,67,207,0
718516,103,511,511,0
718527,39,325,483,0
718538,44,117,362,0
718549,67,151,395,0
718560,81,208,382,0
718571,62,188,312,0
718582,73,148,241,0
718593,31,136,237,0
718604,10,36,124,0
718616,8,-6,65,0
718627,-3,86,150,0
718638,71,50,76,0
718649,57,114,99,0
718660,173,77,27,0
718671,149,41,2,0
718682,112,11,-72,0
718693,120,14,-77,0
718704,118,-19,-83,0
718715,154,-43,-118,0
718726,214,-23,-117,0
718737,120,-36,-65,0
718748,124,-77,-40,0
718759,58,-35,-56,1
718770,69,-79,-28,0
718781,175,-82,47,0
718792,148,20,107,0
718803,38,82,208,0
718814,-25,32,234,0
718825,-2,-50,304,0
718836,58,26,430,0
718847,-21,109,511,0
718858,-56,195,511,0
718869,-18,257,461,0
718880,-1,245,431,0
718891,15,193,421,0
718902,5,263,460,0
718913,-20,293,478,0
718924,-42,345,502,0
718935,-58,295,445,0
718946,-53,179,324,0
718957,-36,166,312,0
718968,8,158,278,0
718979,34,152,273,0
718990,103,130,200,0
719001,128,191,237,0
719012,95,183,235,0
719023,86,140,199,0
719034,113,109,186,0
719045,97,46,142,0
719056,31,47,114,0
719067,63,43,60,0
719078,19,48,27,0
719089,6,48,-35,0
719100,-22,30,-69,0
719111,-39,8,-91,0
719122,-56,-5,-93,0
719133,-73,-39,-103,0
719144,-80,-61,-127,1
719155,-68,-52,-115,0
719166,-20,-48,-127,0
719177,105,-14,-120,0
719188,155,-50,-63,0
719199,175,-110,145,0
719210,184,-75,202,0
719221,228,22,335,0
719232,324,143,511,0
719243,472,479,511,0
719254,477,492,511,1
719265,388,200,424,0
719276,304,189,355,0
719287,265,264,349,0
719298,206,416,506,0
719309,97,86,289,0
719320,115,220,473,0
719331,87,214,452,0
719342,49,194,403,0
719353,193,233,291,0
719364,-237,133,366,0
719375,-104,14,335,0
719386,-6,-37,270,0
719397,-81,145,74,0
719408,-51,54,15,0
719419,-6,28,48,0
719430,13,55,62,0
719441,70,81,35,0
719452,34,-11,-46,0
719463,-14,-93,-87,0
719474,128,-18,-121,0
719485,125,-9,-135,0
719496,38,0,-134,0
719507,134,6,-143,0
719518,153,-45,-114,0
719529,137,-36,-63,0
719541,75,3,6,1
719552,-4,21,31,0
719563,-13,-105,-6,0
719574,267,-379,98,0
719585,221,188,224,0
719596,244,54,400,0
719607,166,103,248,0
719618,19,86,415,0
719629,21,249,511,0
719640,59,146,436,0
719651,40,107,334,0
719662,67,115,310,0
719673,156,194,350,0
719684,134,144,276,0
719695,169,385,447,0
719706,97,253,355,0
719717,56,249,358,0
719728,10,251,362,0
719739,-35,154,247,0
719750,-29,229,294,0
719761,-43,213,283,0
719772,-30,213,295,0
719783,-34,134,239,0
719794,4,147,249,0
719805,3,104,219,0
719816,-14,42,157,0
719827,28,54,155,0
719838,74,47,145,0
719849,29,-11,117,0
719860,33,2,64,0
719871,34,-2,16,0
719882,40,-27,-19,0
719893,41,-55,-67,0
719904,23,-67,-84,0
719915,-1,-72,-82,0
719926,-29,-83,-67,1
719937,-40,-99,-76,0
719948,-19,-80,-63,0
719959,40,-60,-88,0
719970,176,25,-125,0
719981,187,11,-33,0
719992,224,-115,202,0
720003,213,-180,279,0
720014,158,94,377,0
720025,208,277,511,1
720036,357,511,511,0
720047,449,511,511,0
720058,316,104,346,0
720069,302,193,349,0
720080,260,199,313,0
720091,144,175,373,0
720102,105,189,386,0
720113,69,227,385,0
720124,17,201,338,0
720135,-13,212,339,0
720146,-86,183,337,0
720157,-59,120,269,0
720168,-65,129,247,0
720179,-80,12,143,0
720190,-51,115,180,0
720201,-65,129,133,0
720212,5,114,62,0
720223,-4,49,-22,0
720234,-159,-49,-8,0
720245,-23,-75,-81,0
720256,-27,-78,-79,0
720267,105,-83,-147,0
720278,110,-56,-157,0
720289,118,-21,-131,0
720300,120,-15,-112,0
720311,120,-2,-102,0
720323,133,-12,-77,1
720334,105,0,-39,0
720345,61,-12,-21,0
720356,188,-261,73,0
720367,300,-73,180,0
720378,288,274,390,0
720389,64,184,372,0
720400,44,218,511,0
720411,-60,378,511,0
720422,-50,173,492,0
720433,-57,107,336,0
720444,-31,110,319,0
720455,52,194,347,0
720466,125,257,395,0
720477,115,270,361,0
720488,95,455,500,0
720499,25,227,314,0
720510,16,241,326,0
720521,37,189,282,0
720532,5,100,213,0
720543,27,149,260,0
720554,30,155,278,0
720565,48,83,232,0
720576,90,170,291,0
720587,47,81,187,0
720598,113,154,214,0
720609,107,118,189,0
720620,-2,14,105,0
720631,-46,23,106,0
720642,-35,23,84,0
720653,17,10,11,0
720664,-50,-39,-14,0
720675,-55,-37,-55,0
720686,-82,-41,-50,0
720697,-98,-75,-43,0
720708,-59,-38,-65,0
720720,27,-27,-143,0
720731,86,-26,-75,0
720742,149,-75,-28,1
720753,126,-142,80,0
720764,152,-77,152,0
720775,140,38,158,0
720786,215,82,305,0
720797,322,119,511,0
720808,410,443,511,0
720819,347,511,511,0
720830,220,262,371,0
720841,221,361,422,0
720852,141,298,391,0
720863,131,311,456,0
720874,98,173,381,0
720885,103,188,389,0
720896,180,239,345,0
720907,128,253,319,0
720918,-193,150,370,0
720929,65,194,322,0
720940,3,68,256,0
720951,-89,119,243,0
720962,-29,79,153,0
720973,-77,62,119,0
720984,-38,115,70,0
720995,-30,56,-29,0
721006,-13,-4,-90,0
721017,46,-21,-120,0
721028,78,-31,-123,0
721039,13,-44,-110,0
721050,-8,-52,-117,0
721061,27,-52,-122,0
721072,78,-66,-133,0
721083,108,-63,-140,1
721094,101,-38,-103,0
721105,99,-16,-53,0
721116,105,-70,-32,0
721127,193,-205,51,0
721138,153,182,266,0
721149,88,84,307,0
721160,58,88,292,0
721171,93,82,404,0
721182,30,163,511,0
721193,-16,211,511,0
721204,-27,142,467,0
721215,0,97,366,0
721226,46,121,371,0
721237,86,164,372,0
721248,114,195,359,0
721259,205,386,492,0
721270,82,241,355,0
721281,47,309,404,0
721292,14,285,396,0
721303,34,183,283,0
721314,44,104,215,0
721325,66,161,253,0
721336,-4,209,310,0
721347,34,107,214,0
721358,42,72,168,0
721369,112,117,192,0
721380,90,125,192,0
721391,5,4,101,0
721402,39,5,67,0
721413,111,-14,20,0
721424,22,-31,-26,0
721435,13,-34,-53,0
721446,-19,-52,-91,0
721457,-15,-74,-123,1
721468,-1,-61,-115,0
721479,-5,-41,-102,0
721490,1,-30,-75,0
721501,73,-36,-117,0
721512,143,-26,-108,0
721523,153,-113,-12,0
721534,166,-180,134,0
721545,147,-94,149,0
721556,141,60,298,0
721567,313,113,511,0
721578,264,511,511,0
721589,355,511,511,0
721600,260,101,318,0
721611,164,390,470,0
721622,118,286,434,0
721634,96,327,507,0
721645,23,290,498,0
721656,-6,212,430,0
721667,-2,185,410,0
721678,5,121,347,0
721689,56,132,316,0
721700,-33,132,311,0
721711,-17,111,249,0
721722,-58,98,197,0
721733,-31,78,101,0
721744,2,79,55,0
721755,7,60,15,0
721766,-32,15,-18,0
721777,3,31,-47,0
721788,11,-14,-83,0
721799,-17,-38,-102,0
721810,9,-51,-110,0
721821,25,-59,-124,0
721832,71,-49,-143,0
721843,81,-34,-127,0
721854,94,-44,-146,0
721865,83,19,-111,1
721876,78,8,-101,0
721887,95,-107,-57,0
721898,272,-155,14,0
721909,246,83,118,0
721920,198,87,252,0
721931,144,79,255,0
721942,127,81,359,0
721953,78,154,511,0
721964,-45,229,511,0
721975,-160,173,511,0
721986,-139,99,410,0
721998,-92,108,367,0
722009,-16,155,393,0
722020,64,205,393,0
722031,152,372,396,0
722042,99,427,480,0
722053,90,249,335,0
722064,49,214,339,0
722075,58,138,259,0
722086,56,26,180,0
722097,116,117,229,0
722108,95,196,289,0
722119,109,186,253,0
722130,140,188,245,0
722141,65,71,149,0
722152,107,184,241,0
722163,90,158,174,0
722174,43,46,99,0
722185,33,-12,58,0
722196,23,12,17,0
722207,20,0,-15,0
722218,-7,-11,-35,0
722229,-41,-40,-73,1
722240,-54,-74,-102,0
722251,-56,-72,-98,0
722262,-52,-42,-105,0
722273,-45,-14,-100,0
722284,41,8,-136,0
722295,170,55,-140,1
722306,203,-36,-35,0
722317,205,-189,130,0
722328,163,-225,193,0
722339,135,125,432,0
722350,345,283,511,0
722361,360,511,511,0
722372,253,341,483,0
722383,231,258,425,0
722394,172,84,271,0
722405,187,386,483,0
722416,-11,375,478,0
722427,-4,180,351,0
722438,18,217,399,0
722449,49,267,421,0
722460,43,239,375,0
722471,34,162,299,0
722482,14,176,287,0
722493,27,95,250,0
722504,72,72,251,0
722515,27,135,124,0
722526,-25,159,41,0
722537,28,125,80,0
722548,12,87,28,0
722559,8,52,-22,0
722570,37,-11,-97,0
722581,99,-20,-112,0
722592,103,-97,-144,0
722603,120,-61,-169,0
722614,74,-56,-189,0
722625,128,-5,-144,1
722636,192,-71,-109,0
722647,175,-66,-94,0
722658,143,-49,-76,0
722669,254,-134,7,0
722680,344,-138,85,0
722691,267,218,198,0
722702,123,173,206,0
722713,-30,70,310,0
722724,-106,43,373,0
722735,-84,106,453,0
722746,-140,149,511,0
722757,-155,141,457,0
722768,-103,204,393,0
722779,-44,265,432,0
722790,54,321,459,0
722801,33,306,450,0
722812,23,372,511,0
722823,-28,262,427,0
722834,-34,235,388,0
722845,-39,189,336,0
722856,0,161,275,0
722867,28,188,278,0
722878,71,120,198,0
722889,86,227,258,0
722900,127,267,262,0
722911,135,190,187,0
722922,108,166,181,0
722933,110,147,189,0
722944,96,41,121,0
722955,107,69,109,0
722966,83,54,63,0
722977,91,41,7,0
722988,67,-6,-38,1
722999,43,-8,-84,0
723010,9,-14,-110,0
723021,-4,-28,-131,0
723032,-25,-43,-131,0
723043,-34,-44,-119,0
723054,-16,-22,-111,0
723065,9,18,-105,0
723076,100,64,-179,0
723087,219,149,-207,0
723098,192,-186,169,0
723109,158,-244,287,0
723120,176,-94,404,0
723131,146,32,511,0
723142,259,511,511,0
723153,259,511,511,0
723164,195,251,459,0
723175,107,149,399,0
723186,37,174,363,0
723197,-3,130,344,0
723208,-4,315,388,0
723219,-51,424,511,0
723230,-28,193,335,0
723241,6,170,319,0
723252,41,126,219,0
723263,123,150,201,0
723274,130,168,236,0
723285,60,56,170,0
723296,101,68,165,0
723307,76,71,153,0
723318,76,51,94,0
723329,89,32,42,0
723340,86,58,-13,0
723351,103,95,-62,0
723362,105,-4,-33,0
723373,123,-99,-60,1
723384,111,10,-135,0
723395,110,-69,-134,0
723406,152,13,-89,0
723417,157,-19,-61,0
723428,178,-36,-35,0
723439,176,-38,-32,0
723450,73,17,-55,0
723461,149,-19,25,0
723472,180,-67,207,0
723483,125,278,278,0
723494,24,116,420,0
723505,-39,110,356,0
723516,-69,86,367,0
723527,-116,134,388,0
723538,-201,165,478,0
723549,-113,262,407,0
723560,-80,253,432,0
723571,-63,277,459,0
723582,-61,294,473,0
723593,-62,309,511,0
723604,-76,267,440,0
723615,-64,210,364,0
723626,-81,186,336,0
723637,42,204,278,0
723648,1,138,230,0
723659,86,159,188,0
723670,82,226,239,0
723681,112,241,220,0
723692,128,202,196,0
723703,144,139,150,0
723714,141,87,106,0
723725,143,73,98,0
723736,129,45,71,0
723747,122,52,61,1
723758,107,24,45,0
723769,93,-2,1,0
723780,74,9,-32,0
723791,38,12,-55,0
723802,8,-13,-66,0
723813,-15,-36,-71,0
723824,-26,-42,-72,0
723835,-16,-27,-81,0
723846,-34,-19,-90,0
723857,167,145,-224,0
723868,165,25,-108,0
723879,135,-140,140,0
723890,74,-248,289,0
723901,63,-130,481,0
723912,102,76,511,0
723923,220,511,511,0
723934,339,511,511,0
723945,346,358,510,0
723956,215,179,367,0
723967,126,52,197,0
723978,119,224,289,0
723989,-26,386,511,0
724000,-21,159,384,0
724011,5,211,412,0
724022,-17,137,293,0
724033,16,200,305,0
724044,10,166,276,0
724055,-68,111,251,0
724066,26,116,191,0
724077,40,139,168,0
724088,61,100,72,0
724099,75,76,62,0
724110,119,65,68,0
724121,144,40,19,1
724132,144,27,4,0
724143,149,-25,3,0
724154,133,-30,-72,0
724165,143,-56,-108,0
724176,147,-87,-124,0
724187,155,-57,-134,0
724198,132,-62,-142,0
724209,115,-29,-125,0
724221,97,-80,-77,0
724232,132,-51,-55,0
724243,127,-23,31,1
724254,25,58,135,0
724265,-23,58,197,0
724276,-84,114,352,0
724287,-111,116,509,0
724298,-177,234,511,0
724309,-138,258,466,0
724320,-62,197,362,0
724331,-47,-136,511,0
724342,16,180,361,0
724353,-36,147,379,0
724364,-64,261,431,0
724375,-87,247,430,0
724386,-109,261,434,0
724397,-111,217,370,0
724408,-107,161,332,0
724419,-27,164,298,0
724430,12,145,284,0
724441,94,181,258,0
724452,148,208,258,0
724463,138,141,222,0
724474,155,148,223,0
724485,142,130,183,0
724496,108,87,113,0
724507,82,48,47,0
724518,54,23,-16,0
724529,40,6,-60,0
724540,64,8,-111,1
724551,-9,-22,-118,0
724562,-32,-44,-135,0
724573,-51,-50,-151,0
724584,-73,-52,-168,0
724595,112,35,-215,0
724606,178,39,-146,0
724617,164,-133,-3,0
724628,145,-229,113,0
724639,138,-187,162,0
724650,160,-63,311,0
724661,240,49,511,0
724672,326,412,511,0
724683,329,511,511,0
724694,221,246,501,0
724705,174,186,425,0
724716,103,160,353,0
724727,44,172,356,0
724738,163,123,280,0
724749,-61,180,351,0
724760,45,128,349,0
724772,56,159,348,0
724783,51,166,307,0
724794,57,132,240,0
724805,74,89,171,0
724816,26,92,191,0
724827,35,87,183,0
724838,30,10,109,0
724849,7,-11,74,0
724860,21,81,102,0
724871,16,70,20,0
724882,113,31,-17,1
724893,123,0,-74,0
724904,131,-29,-88,0
724915,88,-35,-102,0
724926,130,15,-112,0
724937,149,15,-82,0
724948,134,-42,-55,0
724959,134,-65,-10,0
724970,114,-45,-14,0
724981,192,-30,-9,0
724992,298,-13,87,0
725003,467,-41,315,0
725014,274,322,263,0
725025,3,126,253,0
725036,48,26,250,0
725047,-89,72,366,0
725058,-201,98,442,0
725069,-235,140,432,0
725080,-125,379,511,0
725091,-44,385,502,0
725102,24,322,470,0
725113,49,326,476,0
725124,32,309,467,0
725135,1,248,438,0
725146,-16,216,412,0
725157,-35,195,373,0
725168,-19,168,319,0
725179,6,136,260,0
725190,94,123,186,0
725201,100,209,245,0
725212,91,231,237,0
725223,112,206,182,0
725234,121,173,157,0
725245,128,151,157,0
725256,121,108,135,0
725267,118,67,103,0
725278,111,61,72,0
725289,96,65,44,1
725300,77,43,24,0
725311,51,8,-16,0
725322,16,5,-55,0
725333,-8,9,-76,0
725344,-42,-14,-82,0
725355,-51,-8,-86,0
725366,-29,3,-100,0
725377,43,11,-140,0
725388,91,82,-210,0
725399,257,162,-264,0
725410,207,-10,-114,0
725421,258,-231,168,0
725432,191,-363,283,0
725443,146,-201,492,0
725454,188,56,511,0
725465,344,511,511,0
725476,247,509,511,0
725487,238,251,468,0
725498,-2,180,377,0
725509,-18,50,282,0
725520,39,505,511,0
725531,-139,423,511,0
725542,-52,185,365,0
725553,-33,177,354,0
725564,-5,259,396,0
725575,37,187,259,0
725586,94,189,233,0
725597,99,157,206,0
725608,110,121,187,0
725619,91,58,131,0
725630,51,41,84,0
725641,39,98,76,0
725652,37,30,6,0
725663,105,-18,-25,0
725674,125,-5,-85,0
725685,122,-12,-86,1
725696,118,-39,-117,0
725707,114,-20,-110,0
725718,120,1,-96,0
725729,131,-38,-75,0
725740,125,-24,-51,0
725751,112,-1,-39,0
725762,113,-34,-25,0
725773,217,-103,32,0
725784,307,4,114,0
725795,239,131,185,0
725806,52,47,257,0
725817,-40,21,358,0
725828,-8,100,498,0
725839,-61,162,511,0
725850,-71,206,476,0
725861,-44,286,439,0
725872,-16,374,511,0
725883,8,225,408,0
725894,2,282,448,0
725905,-4,304,459,0
725916,-17,333,471,0
725927,-34,317,449,0
725938,-48,200,328,0
725949,31,206,288,0
725961,43,179,236,0
725972,98,215,249,0
725983,137,229,203,0
725994,188,246,153,0
726005,179,203,144,1
726016,144,131,119,0
726027,167,120,110,0
