timestamp,accX,accY,accZ,step
1152860,12,24,226,0
1152871,11,22,225,0
1152882,9,23,226,0
1152893,10,23,226,0
1152904,11,23,226,0
1152915,11,24,229,0
1152926,11,27,229,0
1152936,12,26,232,0
1152946,11,23,230,0
1152957,12,26,230,0
1152967,13,26,232,0
1152978,12,25,229,0
1152988,11,24,229,0
1152999,12,24,228,0
1153010,11,25,229,0
1153021,14,29,231,0
1153032,15,28,231,0
1153042,14,27,231,0
1153054,14,26,230,0
1153065,12,24,232,0
1153076,11,24,231,0
1153086,12,23,229,0
1153097,12,26,229,0
1153108,12,24,229,0
1153120,13,26,229,0
1153131,14,25,229,0
1153142,13,27,230,0
1153153,15,24,231,0
1153164,13,27,234,0
1153175,12,21,228,0
1153186,8,23,229,0
1153197,7,26,227,0
1153208,5,26,226,0
1153219,6,25,225,0
1153230,7,25,227,0
1153241,9,25,231,0
1153252,11,23,231,0
1153263,11,24,232,0
1153274,13,25,234,0
1153285,13,24,233,0
1153296,14,22,229,0
1153307,14,20,229,0
1153318,14,22,227,0
1153329,14,19,229,0
1153340,12,19,231,0
1153351,11,19,231,0
1153362,11,18,231,0
1153373,9,21,231,0
1153384,9,19,232,0
1153395,9,20,233,0
1153406,11,21,233,0
1153417,11,21,233,0
1153428,11,21,233,0
1153439,10,19,231,0
1153450,7,19,230,0
1153461,7,16,231,0
1153472,7,19,229,0
1153483,5,22,229,0
1153494,3,23,230,0
1153505,4,24,231,0
1153516,7,26,231,0
1153527,8,29,231,0
1153538,9,30,231,0
1153549,9,30,231,0
1153560,9,30,228,0
1153571,12,27,225,0
1153582,11,27,224,0
1153593,11,27,223,0
1153604,12,27,223,0
1153615,12,29,224,0
1153626,16,30,226,0
1153637,19,27,230,0
1153648,23,27,232,0
1153659,24,28,231,0
1153670,23,27,230,0
1153681,22,28,228,0
1153692,20,28,228,0
1153703,19,24,227,0
1153714,16,24,227,0
1153725,15,24,228,0
1153736,13,22,230,0
1153747,12,22,231,0
1153758,11,21,233,0
1153769,12,19,234,0
1153780,12,19,234,0
1153791,13,22,233,0
1153802,12,18,232,0
1153813,13,21,232,0
1153824,11,20,233,0
1153835,14,19,230,0
1153846,17,17,229,0
1153857,17,15,231,0
1153868,16,15,230,0
1153879,16,17,230,0
1153890,16,17,228,0
1153901,16,15,227,0
1153912,16,16,225,0
1153923,17,18,229,0
1153934,18,16,231,0
1153945,20,15,234,0
1153956,19,19,233,0
1153967,16,21,230,0
1153978,11,18,229,0
1153989,7,20,227,0
1154000,4,21,227,0
1154012,4,20,229,0
1154023,4,20,232,0
1154034,5,20,233,0
1154045,5,20,233,0
1154056,10,20,234,0
1154067,13,21,234,0
1154078,9,23,228,0
1154090,8,22,227,0
1154101,8,24,227,0
1154112,9,22,229,0
1154123,11,25,232,0
1154134,15,24,233,0
1154145,14,23,235,0
1154156,16,29,234,0
1154167,15,27,231,0
1154178,12,22,230,0
1154189,8,21,228,0
1154200,8,22,228,0
1154211,8,26,227,0
1154222,7,27,232,0
1154233,11,28,233,0
1154244,12,29,234,0
1154255,16,28,233,0
1154266,17,29,233,0
1154277,15,28,233,0
1154288,15,26,229,0
1154299,13,26,227,0
1154310,16,25,225,0
1154322,16,26,227,0
1154333,19,24,229,0
1154344,23,25,230,0
1154355,25,25,231,0
1154367,27,21,230,0
1154379,27,20,230,0
1154390,27,24,226,0
1154401,26,25,228,0
1154412,25,24,229,0
1154423,24,27,229,0
1154434,23,28,234,0
1154445,24,28,234,0
1154456,24,28,232,0
1154467,23,26,230,0
1154478,25,25,228,0
1154489,25,23,227,0
1154500,25,25,227,0
1154511,25,24,229,0
1154522,24,25,228,0
1154533,24,23,231,0
1154544,23,23,232,0
1154555,22,22,232,0
1154566,22,22,233,0
1154577,23,25,230,0
1154588,21,21,230,0
1154599,19,22,228,0
1154610,18,23,228,0
1154621,19,23,231,0
1154632,18,24,231,0
1154643,20,23,233,0
1154654,20,23,233,0
1154665,19,21,233,0
1154676,19,22,232,0
1154687,19,20,229,0
1154698,19,19,229,0
1154709,18,18,228,0
1154720,18,18,227,0
1154731,18,19,226,0
1154742,16,20,230,0
1154753,16,24,232,0
1154764,14,25,233,0
1154775,13,22,233,0
1154786,13,21,233,0
1154797,12,24,229,0
1154808,15,23,230,0
1154819,16,22,231,0
1154830,18,22,229,0
1154841,18,22,230,0
1154852,20,20,230,0
1154863,20,24,230,0
1154874,16,22,230,0
1154885,14,22,228,0
1154896,13,22,226,0
1154907,15,24,230,0
1154918,18,27,232,0
1154929,21,25,236,0
1154940,23,28,237,0
1154951,29,26,233,0
1154962,32,26,228,0
1154973,31,25,225,0
1154984,31,23,226,0
1154995,31,23,226,0
1155006,31,25,228,0
1155017,31,25,230,0
1155028,32,27,229,0
1155039,31,28,230,0
1155050,32,28,230,0
1155061,33,27,230,0
1155072,35,25,230,0
1155083,35,25,231,0
1155094,35,28,229,0
1155105,29,28,229,0
1155116,27,26,231,0
1155127,24,26,232,0
1155138,24,25,232,0
1155149,20,22,227,0
1155160,21,24,226,0
1155171,21,26,228,0
1155182,22,25,231,0
1155193,23,27,232,0
1155204,23,28,233,0
1155215,19,27,232,0
1155226,19,27,230,0
1155237,19,26,231,0
1155248,20,24,233,0
1155259,23,22,235,0
1155270,25,24,232,0
1155281,25,23,229,0
1155292,27,23,228,0
1155303,28,25,227,0
1155314,28,23,228,0
1155325,28,24,229,0
1155336,29,23,229,0
1155347,27,22,230,0
1155358,27,22,229,0
1155369,27,21,228,0
1155380,27,21,227,0
1155391,26,20,229,0
1155402,26,22,230,0
1155413,25,21,228,0
1155424,23,21,229,0
1155435,21,21,229,0
1155446,20,22,231,0
1155457,18,19,233,0
1155468,19,20,233,0
1155479,19,20,232,0
1155490,20,19,231,0
1155501,21,21,229,0
1155512,22,23,229,0
1155523,21,24,229,0
1155534,21,25,232,0
1155545,21,25,230,0
1155556,21,24,229,0
1155567,15,21,227,0
1155578,12,26,228,0
1155589,11,26,229,0
1155600,9,25,232,0
1155611,9,27,232,0
1155622,10,27,233,0
1155633,11,26,230,0
1155644,12,28,229,0
1155655,13,29,228,0
1155666,15,29,226,0
1155677,16,30,227,0
1155688,18,30,227,0
1155699,19,32,230,0
1155710,20,31,230,0
1155721,18,26,231,0
1155732,18,23,229,0
1155743,19,24,229,0
1155754,20,21,228,0
1155765,21,22,228,0
1155776,21,24,229,0
1155787,23,25,230,0
1155798,27,28,231,0
1155809,28,29,232,0
1155820,29,28,230,0
1155831,29,27,232,0
1155842,29,25,230,0
1155853,28,25,231,0
1155864,30,26,231,0
1155875,28,28,227,0
1155886,30,28,224,0
1155897,27,30,222,0
1155908,26,31,223,0
1155919,24,32,224,0
1155930,22,32,226,0
1155941,21,32,227,0
1155952,18,33,228,0
1155963,14,33,228,0
1155974,10,35,229,0
1155985,4,35,231,0
1155996,2,40,231,0
1156007,1,41,230,0
1156018,0,42,231,0
1156029,3,40,232,0
1156040,3,39,230,0
1156051,3,36,228,0
1156062,4,36,227,0
1156073,5,36,226,0
1156084,6,38,227,0
1156095,8,37,227,0
1156106,10,37,228,0
1156117,11,36,229,0
1156129,11,36,226,0
1156140,10,37,228,0
1156151,10,41,230,0
1156162,11,40,235,0
1156173,10,40,234,0
1156184,10,40,233,0
1156195,8,41,235,0
1156206,7,43,234,0
1156217,6,46,233,0
1156228,4,47,230,0
1156239,3,42,226,0
1156250,1,40,218,0
1156261,1,37,214,0
1156272,1,38,216,0
1156283,-1,45,222,0
1156294,-3,46,230,0
1156305,-3,49,239,0
1156316,-3,51,252,0
1156327,-2,54,255,0
1156338,-5,56,255,0
1156349,-3,57,256,0
1156360,-3,56,254,0
1156371,-5,58,250,0
1156382,-4,57,246,0
1156393,-7,64,247,0
1156404,-16,69,245,0
1156415,-32,70,241,1
1156426,-40,73,235,0
1156437,-41,71,229,0
1156448,-187,89,225,0
1156459,-23,61,205,0
1156470,-18,40,192,0
1156481,38,37,146,0
1156492,83,36,115,0
1156503,95,-7,123,0
1156514,52,-53,120,0
1156525,6,-69,100,0
1156536,-34,-52,121,0
1156548,-51,-2,175,0
1156559,-45,38,242,0
1156570,-41,65,314,0
1156581,-22,70,378,0
1156592,-11,75,405,0
1156603,-13,73,437,0
1156614,-27,108,478,0
1156625,5,73,483,0
1156636,27,85,453,0
1156647,35,95,435,0
1156658,38,89,422,0
1156669,50,68,402,0
1156680,64,47,373,0
1156691,68,31,342,0
1156702,68,15,312,0
1156713,63,-14,282,0
1156724,39,-33,260,0
1156735,14,-36,254,0
1156746,-4,-22,235,0
1156757,-22,-6,216,0
1156768,-10,14,172,0
1156779,-1,49,119,0
1156790,-1,45,78,0
1156801,9,2,38,0
1156812,22,-8,-6,0
1156823,24,-25,-27,0
1156834,38,-36,-38,0
1156845,55,-26,-44,0
1156856,65,-11,-47,0
1156867,74,-20,-44,0
1156878,95,-35,-47,0
1156889,101,-36,-23,1
1156900,112,-43,-13,0
1156911,141,-34,56,0
1156922,123,7,196,0
1156933,108,74,258,0
1156944,48,65,295,0
1156955,7,0,314,0
1156966,6,-44,370,0
1156977,-58,12,439,0
1156988,-102,37,470,0
1156999,-117,78,447,0
1157010,-81,80,425,0
1157021,-55,84,428,0
1157032,-23,102,436,0
1157043,-22,108,453,0
1157054,-36,100,455,0
1157065,-61,92,446,0
1157076,-63,59,362,0
1157087,-49,44,314,0
1157098,-26,41,290,0
1157109,-7,56,300,0
1157120,-7,89,310,0
1157131,-10,87,268,0
1157142,-11,90,255,0
1157154,-11,91,253,0
1157165,-1,67,228,0
1157176,17,45,202,0
1157187,26,13,179,0
1157198,43,-6,152,0
1157209,52,8,117,0
1157220,59,28,36,0
1157231,66,7,14,1
1157242,58,1,-13,0
1157253,29,-12,-27,0
1157264,-3,-28,-45,0
1157275,-38,-28,-61,0
1157286,-42,-16,-65,0
1157297,-8,2,-48,0
1157308,53,6,12,0
1157319,73,-44,76,0
1157330,57,-107,150,0
1157341,57,-102,221,0
1157352,60,-50,284,0
1157363,29,11,385,0
1157374,-102,94,511,0
1157385,-108,138,511,0
1157396,-32,145,511,0
1157407,17,114,511,0
1157418,20,67,468,0
1157429,-6,37,410,0
1157440,-28,12,383,0
1157451,-40,14,383,0
1157462,-48,17,385,0
1157473,-53,14,369,0
1157484,-61,9,336,0
1157495,-68,11,309,0
1157506,-61,13,287,0
1157517,-51,32,258,0
1157528,-27,67,176,0
1157539,-4,95,123,0
1157550,22,114,78,0
1157561,50,94,39,0
1157572,85,37,6,0
1157583,124,-40,8,0
1157594,180,-76,13,0
1157605,207,-49,-11,0
1157616,196,18,-48,0
1157627,179,13,-56,0
1157639,193,-9,-57,0
1157650,195,13,-50,1
1157661,183,-14,-49,0
1157672,94,37,11,0
1157683,125,-101,176,0
1157694,155,-127,280,0
1157705,110,64,208,0
1157716,59,13,274,0
1157727,-24,-33,244,0
1157738,-47,-107,386,0
1157749,-64,-41,497,0
1157760,-95,-16,499,0
1157771,-96,-16,478,0
1157782,-92,9,466,0
1157793,-68,-32,422,0
1157804,-70,-49,408,0
1157815,-79,-21,439,0
1157826,-93,57,475,0
1157837,-100,50,447,0
1157848,-91,51,398,0
1157859,-63,48,363,0
1157870,-55,69,343,0
1157881,-45,79,304,0
1157892,-33,100,298,0
1157903,-17,109,272,0
1157914,12,99,230,0
1157925,34,96,194,0
1157936,60,71,162,0
1157947,84,42,134,0
1157958,99,21,89,0
1157969,99,2,60,0
1157980,81,-29,30,0
1157991,64,-3,-5,0
1158002,40,7,-42,0
1158013,24,1,-59,0
1158024,16,-9,-69,0
1158035,18,-19,-65,0
1158046,22,-34,-61,1
1158057,33,-40,-26,0
1158068,62,-50,1,0
1158079,119,-5,24,0
1158090,108,-18,119,0
1158101,91,-98,236,0
1158112,86,-69,331,0
1158123,27,-39,478,0
1158134,-72,120,511,0
1158145,20,153,511,0
1158156,92,120,511,0
1158167,105,46,511,0
1158178,75,45,475,0
1158189,56,35,439,0
1158200,33,12,400,0
1158211,17,9,377,0
1158222,3,10,362,0
1158233,-46,-13,361,0
1158244,-78,-34,336,0
1158255,-95,-33,307,0
1158266,-90,-34,245,0
1158278,-65,51,139,0
1158289,-33,53,95,0
1158300,18,46,51,0
1158311,51,22,8,0
1158322,63,-14,-15,0
1158333,78,-49,-15,0
1158344,101,-69,-14,0
1158355,139,-57,-16,0
1158366,160,-33,-32,0
1158377,160,-5,-41,0
1158388,152,5,-45,0
1158399,147,-12,-53,0
1158410,140,-26,-31,0
1158421,112,-33,-2,0
1158432,54,-47,78,1
1158443,59,-20,200,0
1158454,-8,9,245,0
1158465,-113,168,215,0
1158476,-122,64,325,0
1158487,-99,-24,365,0
1158498,-54,-9,442,0
1158509,-24,23,511,0
1158520,14,-3,511,0
1158531,63,-10,472,0
1158542,120,9,450,0
1158553,145,-4,394,0
1158564,133,-29,356,0
1158575,106,-12,348,0
1158586,46,45,381,0
1158597,17,66,410,0
1158608,-3,71,414,0
1158619,-23,75,415,0
1158630,-43,95,400,0
1158641,-58,87,355,0
1158652,-83,76,293,0
1158663,-77,61,247,0
1158674,-77,41,221,0
1158685,-62,29,197,0
1158696,-42,14,166,0
1158707,-11,-13,135,0
1158718,22,-38,115,0
1158729,51,-37,91,0
1158740,65,-30,19,1
1158751,61,-32,-14,0
1158762,40,-24,-51,0
1158773,16,-30,-80,0
1158784,2,-33,-81,0
1158795,-11,-28,-69,0
1158806,-12,-17,-62,0
1158817,1,-8,-62,0
1158828,17,-18,-62,0
1158839,65,-30,-65,0
1158850,188,30,-76,0
1158861,230,94,36,0
1158872,76,-201,251,0
1158883,74,-223,452,0
1158894,-81,143,511,1
1158905,-63,98,511,0
1158916,-19,64,511,0
1158927,49,71,511,0
1158938,82,77,511,0
1158949,64,70,511,0
1158960,21,49,511,0
1158971,-36,54,507,0
1158982,-64,57,508,0
1158993,-82,51,483,0
1159004,-79,38,439,0
1159015,-71,20,392,0
1159026,-55,-18,354,0
1159037,-44,-25,300,0
1159048,-42,9,208,0
1159059,-16,-7,177,0
1159070,21,-5,138,0
1159081,52,18,118,0
1159092,63,32,77,0
1159104,62,22,27,0
1159115,57,-1,-6,0
1159126,60,-23,-22,0
1159137,66,-26,-26,0
1159148,74,-17,-41,0
1159159,93,-4,-64,0
1159170,107,18,-81,0
1159181,118,34,-107,0
1159192,100,-35,-58,0
1159203,124,-75,-6,1
1159214,126,-147,104,0
1159225,142,0,60,0
1159236,81,-29,180,0
1159247,61,64,226,0
1159258,26,88,309,0
1159269,-68,78,474,0
1159280,-51,53,511,0
1159291,-128,75,511,0
1159302,-131,78,511,0
1159313,-83,36,456,0
1159324,-45,2,353,0
1159335,-9,-39,326,0
1159346,33,10,370,0
1159357,34,35,392,0
1159368,24,40,405,0
1159379,9,43,388,0
1159390,-2,48,361,0
1159401,-25,47,349,0
1159412,-45,40,330,0
1159423,-60,31,301,0
1159434,-57,54,260,0
1159445,-59,60,205,0
1159456,-62,43,158,0
1159467,-35,8,138,0
1159478,-9,-31,120,0
1159489,14,-36,105,0
1159500,32,-25,51,0
1159511,29,-19,6,0
1159522,9,-12,-37,0
1159533,5,-19,-68,0
1159544,23,-39,-83,0
1159555,45,-47,-81,0
1159566,86,-30,-63,0
1159577,117,-3,-20,1
1159588,122,-45,58,0
1159599,122,-49,116,0
1159610,119,-37,196,0
1159621,106,-19,295,0
1159632,75,5,435,0
1159643,41,18,511,0
1159654,-116,107,511,0
1159665,-29,107,511,0
1159676,10,83,511,0
1159687,-22,83,511,0
1159698,-52,55,472,0
1159709,-74,43,435,0
1159720,-89,25,408,0
1159731,-97,20,382,0
1159742,-98,9,364,0
1159753,-86,-36,335,0
1159764,-66,-46,284,0
1159775,-50,-35,249,0
1159786,-22,-21,233,0
1159797,19,29,183,0
1159808,56,55,71,0
1159819,73,50,18,0
1159830,80,27,-30,0
1159841,86,-14,-63,0
1159852,105,-38,-81,0
1159863,126,-33,-81,0
1159874,127,-14,-74,0
1159885,107,-13,-82,0
1159896,92,-22,-73,0
1159907,98,-39,-62,0
1159918,102,-34,-47,0
1159929,85,-30,-30,1
1159940,59,-12,-13,0
1159951,5,19,0,0
1159962,8,-106,132,0
1159973,107,-205,185,0
1159984,48,110,201,0
1159995,24,-14,272,0
1160006,39,-18,331,0
1160017,-34,24,417,0
1160028,-62,62,511,0
1160039,-87,78,511,0
1160050,-142,96,511,0
1160061,-182,78,511,0
1160072,-173,80,507,0
1160083,-145,63,473,0
1160094,-117,70,486,0
1160105,-100,84,489,0
1160116,-61,77,450,0
1160127,-33,68,421,0
1160138,-16,65,399,0
1160149,1,56,350,0
1160160,11,32,284,0
1160171,9,33,225,0
1160182,-12,31,181,0
1160193,-16,19,148,0
1160204,-7,-1,128,0
1160215,9,-21,108,0
1160226,21,-17,108,0
1160237,31,-4,95,0
1160248,33,14,61,0
1160259,33,21,15,0
1160270,-1,-16,-73,0
1160281,-21,-41,-110,0
1160292,-34,-57,-125,0
1160303,-41,-54,-115,1
1160314,-32,-39,-107,0
1160325,-7,-17,-86,0
1160336,24,2,-57,0
1160347,114,-3,-46,0
1160358,221,66,-8,0
1160369,191,-99,159,0
1160380,119,-227,336,0
1160391,141,-126,399,0
1160402,112,27,433,0
1160413,87,97,511,1
1160424,60,71,511,0
1160435,117,53,511,0
1160446,94,51,511,0
1160457,44,100,511,0
1160468,-8,110,511,0
1160479,-61,87,511,0
1160490,-87,80,496,0
1160501,-89,63,457,0
1160512,-79,43,398,0
1160523,-80,26,364,0
1160534,-86,-3,345,0
1160545,-62,-93,309,0
1160556,-20,-33,244,0
1160567,-14,65,178,0
1160578,29,-22,167,0
1160589,68,48,40,0
1160600,69,32,3,0
1160611,67,12,-29,0
1160622,69,-19,-68,0
1160633,66,-48,-92,0
1160644,67,-55,-113,0
1160655,55,-40,-115,0
1160666,35,-21,-105,0
1160677,26,-21,-102,1
1160688,31,-26,-73,0
1160699,53,-48,-40,0
1160710,65,-55,2,0
1160721,56,-31,32,0
1160732,31,23,56,0
1160743,98,-95,230,0
1160754,195,-206,351,0
1160765,76,204,285,0
1160776,27,53,285,0
1160787,40,1,271,0
1160798,-27,71,328,0
1160809,-84,55,457,0
1160820,-129,66,511,0
1160831,-130,87,511,0
1160842,-115,71,511,0
1160853,-92,33,457,0
1160864,-67,35,417,0
1160875,-40,53,429,0
1160886,-37,68,434,0
1160897,-18,67,422,0
1160908,-13,73,408,0
1160919,-15,80,383,0
1160930,-26,74,339,0
1160941,-36,58,277,0
1160952,-48,48,230,0
1160963,-52,47,209,0
1160974,-46,35,195,0
1160985,-34,3,166,0
1160996,-9,-18,142,0
1161007,21,-38,118,0
1161018,51,-35,88,0
1161029,64,-37,49,0
1161040,65,-35,9,0
1161051,43,-54,-62,0
1161062,30,-66,-92,0
1161073,24,-68,-112,0
1161084,18,-60,-111,0
1161095,22,-48,-95,1
1161106,78,-19,-72,0
1161117,114,-12,-19,0
1161128,122,-58,72,0
1161139,82,-96,189,0
1161150,73,-66,270,0
1161161,65,44,345,0
1161172,38,53,511,0
1161183,-9,89,511,0
1161194,-53,155,511,1
1161205,94,112,511,0
1161216,40,84,511,0
1161227,-21,108,451,0
1161238,-50,111,441,0
1161249,-66,87,454,0
1161260,-70,69,441,0
1161271,-72,37,397,0
1161282,-84,7,350,0
1161293,-58,-16,337,0
1161304,-51,-17,328,0
1161315,-6,-106,288,0
1161326,27,15,188,0
1161337,29,41,149,0
1161348,56,11,137,0
1161359,67,21,-2,0
1161370,60,-5,-23,0
1161381,59,-43,-57,0
1161392,75,-71,-84,0
1161403,87,-64,-102,0
1161414,71,-24,-124,0
1161425,33,-3,-141,0
1161436,8,-12,-139,0
1161447,22,-44,-111,0
1161458,44,-38,-69,0
1161469,49,-34,-23,1
1161480,56,-93,32,0
1161491,85,-95,64,0
1161502,119,-27,101,0
1161513,12,-29,229,0
1161524,74,122,304,0
1161535,37,29,460,0
1161546,49,71,511,0
1161557,42,16,511,0
1161568,-22,51,511,0
1161579,-30,71,511,0
1161590,17,27,391,0
1161601,22,-28,308,0
1161612,11,-34,287,0
1161623,29,5,342,0
1161634,11,44,392,0
1161645,-28,72,431,0
1161656,-49,92,454,0
1161667,-64,120,437,0
1161678,-64,114,397,0
1161689,-60,88,351,0
1161700,-56,77,306,0
1161711,-61,73,273,0
1161722,-65,74,254,0
1161733,-70,52,239,0
1161744,-61,38,214,0
1161755,-40,25,192,0
1161766,-23,5,158,0
1161777,-2,-18,120,0
1161788,16,-23,79,0
1161799,27,-24,41,0
1161810,33,-28,-5,0
1161821,1,-45,-79,0
1161832,-8,-60,-91,0
1161843,8,-43,-89,0
1161854,53,-4,-75,1
1161865,69,-14,-31,0
1161876,79,-82,29,0
1161887,129,-39,67,0
1161898,156,69,90,0
1161909,117,8,184,0
1161920,140,-62,350,0
1161931,71,-132,511,0
1161942,-36,-41,511,0
1161953,-137,102,511,1
1161964,-88,227,511,0
1161975,21,90,511,0
1161986,4,80,475,0
1161997,2,59,431,0
1162008,-8,30,406,0
1162019,-27,31,412,0
1162030,-46,23,424,0
1162041,-37,1,401,0
1162052,-16,-16,356,0
1162063,0,-16,301,0
1162074,15,-16,252,0
1162085,29,-12,209,0
1162096,36,-2,165,0
1162107,48,8,125,0
1162118,51,5,74,0
1162129,49,1,-38,0
1162140,46,-11,-63,0
1162151,46,-16,-103,0
1162162,50,6,-130,0
1162173,38,12,-143,0
1162184,26,-1,-139,0
1162195,17,1,-137,0
1162206,3,-1,-123,0
1162217,2,0,-87,0
1162228,21,-18,-52,1
1162239,50,-46,3,0
1162250,102,-77,63,0
1162261,103,116,61,0
1162272,4,126,178,0
1162283,111,-13,304,0
1162295,11,76,511,0
1162306,31,-28,511,0
1162317,44,-24,511,0
1162328,12,-23,511,1
1162339,74,39,511,0
1162350,82,-4,423,0
1162361,47,-37,355,0
1162372,11,15,338,0
1162383,-12,34,403,0
1162394,-54,44,445,0
1162405,-46,40,454,0
1162416,-59,40,444,0
1162427,-28,52,384,0
1162438,-1,56,355,0
1162449,21,48,319,0
1162460,39,41,292,0
1162471,40,54,266,0
1162482,21,72,260,0
1162493,-16,80,259,0
1162504,-48,66,210,0
1162515,-59,67,166,0
1162526,-72,61,126,0
1162537,-60,25,85,0
1162548,-43,-6,53,0
1162559,-30,-27,23,0
1162570,-20,-28,-1,0
1162581,20,-15,-48,0
1162592,38,-17,-61,1
1162603,51,-14,-59,0
1162614,70,-12,-53,0
1162625,94,8,-35,0
1162636,100,-2,-17,0
1162647,95,-33,5,0
1162658,96,-27,22,0
1162669,118,39,56,0
1162680,89,8,145,0
1162691,78,-47,297,0
1162702,-10,-92,417,0
1162713,-64,-42,511,0
1162724,-147,5,511,0
1162735,-149,52,511,0
1162746,-68,90,511,0
1162757,-44,65,511,0
1162768,-50,36,487,0
1162779,-62,8,449,0
1162790,-76,-2,442,0
1162801,-83,14,460,0
1162812,-79,16,480,0
1162823,-64,11,451,0
1162834,-53,19,388,0
1162845,-50,18,342,0
1162856,-51,11,313,0
1162867,-35,4,267,0
1162878,-33,-4,219,0
1162889,-40,15,165,0
1162900,-35,9,55,0
1162911,-28,-9,34,0
1162922,-7,-26,-9,0
1162933,20,-26,-60,0
1162944,46,-20,-86,0
1162955,63,-21,-99,0
1162966,71,-27,-111,0
1162977,81,-39,-117,0
1162988,96,-30,-96,0
1162999,106,-10,-77,1
1163010,102,8,-64,0
1163021,87,16,-34,0
1163032,70,17,-22,0
1163043,49,-5,19,0
1163054,40,22,84,0
1163065,55,-66,212,0
1163076,68,11,271,0
1163087,30,-9,393,0
1163098,47,33,511,0
1163109,-7,110,511,0
1163120,-69,82,511,0
1163131,-91,73,511,0
1163142,-57,33,442,0
1163153,-21,-2,373,0
1163164,-12,-17,353,0
1163175,-24,3,361,0
1163186,-9,41,411,0
1163197,-28,54,428,0
1163208,-23,63,408,0
1163219,-17,64,376,0
1163230,-14,65,351,0
1163241,-14,55,327,0
1163252,-12,47,317,0
1163263,-13,48,300,0
1163274,-21,67,289,0
1163285,-37,66,260,0
1163296,-45,60,217,0
1163307,-52,40,178,0
1163318,-48,19,159,0
1163329,-30,-5,153,0
1163340,-6,-18,136,0
1163351,2,-12,110,0
1163362,4,-23,47,0
1163373,25,-27,10,0
1163384,24,-36,-14,1
1163395,14,-44,-33,0
1163406,22,-44,-45,0
1163417,26,-32,-35,0
1163428,24,-58,-1,0
1163439,53,-68,24,0
1163450,66,-11,57,0
1163461,45,1,139,0
1163472,49,-11,247,0
1163483,56,-35,373,0
1163494,-29,-41,503,0
1163505,-95,-5,511,1
1163516,-76,183,511,0
1163527,20,105,511,0
1163538,51,45,511,0
1163549,44,25,472,0
1163560,43,1,408,0
1163571,25,-15,386,0
1163582,0,-27,374,0
1163593,-18,-39,355,0
1163604,-18,-49,332,0
1163615,-10,-48,311,0
1163626,-3,-41,292,0
1163637,4,-22,258,0
1163648,10,-3,192,0
1163659,11,24,156,0
1163670,10,25,63,0
1163681,16,13,17,0
1163692,8,1,-28,0
1163703,21,-50,-43,0
1163714,58,-73,-68,0
1163725,84,-49,-84,0
1163736,93,-38,-103,0
1163747,100,-28,-122,0
1163758,110,-8,-116,0
1163769,125,-2,-99,0
1163780,148,3,-81,1
1163791,160,2,-51,0
1163802,158,16,-41,0
1163813,112,-42,130,0
1163824,96,-27,239,0
1163835,31,122,337,0
1163846,2,106,433,0
1163857,-46,92,458,0
1163868,-91,15,507,0
1163879,-202,29,511,0
1163890,-249,64,511,0
1163901,-200,40,511,0
1163912,-144,14,416,1
1163923,-99,-8,356,0
1163934,-45,12,391,0
1163945,-14,28,402,0
1163956,-16,65,430,0
1163967,-35,64,416,0
1163978,-50,52,381,0
1163989,-51,63,333,0
1164000,-53,65,314,0
1164011,-44,59,287,0
1164022,-39,51,259,0
1164033,-21,33,217,0
1164044,-18,33,193,0
1164055,-5,30,182,0
1164066,7,9,160,0
1164077,15,2,125,0
1164088,24,13,91,0
1164099,33,30,68,0
1164110,45,49,43,0
1164121,57,12,15,0
1164132,34,-11,-23,0
1164143,26,-28,-54,0
1164154,21,-27,-73,0
1164165,18,-24,-78,1
1164176,20,-9,-71,0
1164187,78,41,-63,0
1164198,106,67,-26,0
1164209,46,-88,67,0
1164220,33,-217,146,0
1164231,22,-156,203,0
1164242,23,-35,291,0
1164253,-12,15,466,0
1164264,-35,40,511,0
1164275,-49,90,511,0
1164286,78,137,511,0
1164297,57,89,511,0
1164308,-6,72,489,0
1164319,-56,61,474,0
1164330,-90,44,469,0
1164341,-101,26,449,0
1164352,-91,23,430,0
1164363,-79,23,404,0
1164374,-62,17,369,0
1164385,-48,15,316,0
1164396,-39,14,267,0
1164407,-25,10,235,0
1164418,-10,23,214,0
1164429,5,30,169,0
1164440,49,32,75,0
1164451,56,27,39,0
1164462,59,12,-13,0
1164473,64,-7,-55,0
1164484,80,-20,-72,0
1164495,97,-24,-87,0
1164506,103,-19,-89,0
1164517,109,-30,-79,0
1164528,117,-33,-59,0
1164539,118,-23,-46,1
1164550,110,-27,-22,0
1164561,90,-19,-25,0
1164572,84,-39,-13,0
1164583,57,-49,33,0
1164594,18,-5,36,0
1164605,36,-98,114,0
1164616,136,-190,345,0
1164627,169,61,511,0
1164638,57,171,511,0
1164649,-103,19,461,0
1164660,-164,32,430,0
1164671,-126,-51,458,0
1164682,-89,-12,477,0
1164693,-109,4,445,0
1164704,-121,29,427,0
1164715,-102,67,461,0
1164726,-84,109,511,0
1164737,-56,108,511,0
1164748,-38,77,411,0
1164759,-24,79,363,0
1164770,-25,93,351,0
1164781,-46,94,332,0
1164792,-52,64,285,0
1164803,-49,70,278,0
1164814,-29,66,240,0
1164825,-8,51,199,0
1164836,22,35,160,0
1164847,57,26,119,0
1164858,79,33,74,0
1164869,86,47,40,0
1164880,103,38,-3,0
1164891,116,11,-41,0
1164902,60,0,-64,0
1164913,11,-12,-72,0
1164924,-24,-30,-73,0
1164935,-35,-30,-63,0
1164946,-18,-7,-45,1
1164957,48,16,-46,0
1164968,133,73,-36,0
1164979,169,-20,38,0
1164990,128,-150,128,0
1165001,92,-209,230,0
1165012,57,-149,288,0
1165023,-34,-33,429,0
1165034,-75,36,511,0
1165045,-103,119,511,0
1165056,47,195,511,0
1165067,39,101,511,0
1165078,-8,67,464,0
1165089,-41,60,436,0
1165100,-70,49,416,0
1165111,-91,42,404,0
1165122,-94,42,386,0
1165133,-88,45,358,0
1165144,-91,42,321,0
1165155,-73,40,284,0
1165166,-45,41,247,0
1165177,-16,54,216,0
1165188,7,68,188,0
1165199,44,59,160,0
1165210,72,62,137,0
1165221,127,23,58,0
1165232,166,-58,44,0
1165243,199,-56,5,0
1165254,186,-2,-36,0
1165265,169,-10,-77,0
1165276,161,-35,-105,0
1165287,154,-32,-100,0
1165298,140,-29,-83,0
1165309,127,-41,-73,0
1165320,102,-54,-45,0
1165331,86,-54,-23,1
1165342,56,-28,-52,0
1165353,35,-19,-12,0
1165364,-15,-45,57,0
1165375,21,52,385,0
1165386,1,92,511,0
1165397,-77,75,511,0
1165408,-189,16,511,0
1165419,-212,-14,511,0
1165430,-98,-32,433,0
1165441,-27,11,437,0
1165452,-53,13,444,0
1165463,-72,20,428,0
1165474,-73,23,431,0
1165485,-72,38,437,0
1165496,-73,51,441,0
1165507,-53,74,439,0
1165518,-38,82,429,0
1165529,-17,101,380,0
1165540,-1,98,340,0
1165551,4,83,294,0
1165562,12,62,257,0
1165573,47,39,215,0
1165584,63,21,160,0
1165595,79,-8,99,0
1165606,80,-25,67,0
1165617,94,-29,61,0
1165628,98,-9,47,0
1165639,85,-6,21,0
1165650,66,17,-22,0
1165661,56,26,-52,0
1165672,36,16,-67,0
1165683,-13,12,-83,0
1165694,-26,9,-74,0
1165705,2,13,-80,1
1165716,119,103,-108,0
1165727,120,77,-34,0
1165738,-13,-190,140,0
1165749,-21,-284,289,0
1165760,-26,-151,396,0
1165771,-51,-18,511,0
1165782,-54,81,511,0
1165793,26,111,511,0
1165804,154,125,511,0
1165815,173,49,511,0
1165826,102,36,432,1
1165837,-40,17,389,0
1165848,-86,20,419,0
1165859,-119,25,425,0
1165870,-125,36,398,0
1165881,-110,43,343,0
1165892,-98,64,306,0
1165903,-83,51,265,0
1165914,-48,22,230,0
1165925,-14,0,195,0
1165936,14,12,172,0
1165947,36,46,155,0
1165958,52,49,138,0
1165969,101,7,113,0
1165980,138,13,70,0
1165991,160,-1,-15,0
1166002,177,-12,-46,0
1166013,176,-26,-51,0
1166024,163,-27,-46,0
1166035,152,-16,-59,0
1166046,144,-47,-63,0
1166057,131,-42,-42,1
1166068,89,18,-36,0
1166079,107,-8,24,0
1166090,91,-4,152,0
1166101,50,-8,188,0
1166112,-13,74,252,0
1166123,-19,-44,360,0
1166134,-46,-8,374,0
1166145,-160,-23,465,0
1166156,-168,-1,474,0
1166167,-153,34,508,0
1166178,-135,91,511,0
1166189,-102,83,511,0
1166200,-79,55,455,0
1166211,-60,40,422,0
1166222,-53,62,415,0
1166233,-47,60,399,0
1166244,-37,54,368,0
1166255,-21,46,326,0
1166266,-4,46,318,0
1166277,-2,72,332,0
1166288,-7,92,335,0
1166299,-8,91,303,0
1166310,5,58,254,0
1166321,27,29,204,0
1166332,50,12,161,0
1166343,62,12,113,0
1166354,63,25,77,0
1166365,60,39,59,0
1166376,71,36,24,0
1166387,74,38,-18,0
1166398,53,39,-45,0
1166409,13,24,-58,0
1166420,-25,3,-68,1
1166431,-37,-9,-63,0
1166442,-36,-25,-43,0
1166453,9,-35,-10,0
1166464,59,-34,18,0
1166475,85,-21,102,0
1166486,123,-73,225,0
1166497,128,-80,359,0
1166508,73,-36,511,0
1166519,17,32,511,0
1166530,3,144,511,0
1166541,30,129,511,1
1166552,64,78,511,0
1166563,44,53,511,0
1166574,0,46,440,0
1166585,-28,49,427,0
1166596,-32,28,405,0
1166607,-54,-1,355,0
1166618,-74,-20,320,0
1166629,-96,-17,292,0
1166640,-106,0,270,0
1166651,-87,18,245,0
1166662,-58,34,201,0
1166673,-4,56,181,0
1166684,53,69,137,0
1166695,93,62,87,0
1166706,127,10,38,0
1166717,145,-3,-25,0
1166728,136,-27,-58,0
1166739,142,-52,-80,0
1166750,156,-50,-92,0
1166761,146,-11,-54,0
1166772,123,-5,-37,0
1166783,87,-16,-23,0
1166794,58,-37,-6,1
1166805,50,-58,0,0
1166816,113,-143,140,0
1166827,82,-35,250,0
1166838,43,-41,205,0
1166849,-18,67,203,0
1166860,-10,5,320,0
1166871,-56,1,418,0
1166882,-77,-25,501,0
1166893,-124,-26,511,0
1166904,-119,5,511,0
1166915,-111,-335,511,0
1166926,13,114,426,0
1166937,56,-21,371,0
1166948,75,-4,373,0
1166959,75,18,375,0
1166970,63,11,411,0
1166981,33,84,438,0
1166992,-6,80,398,0
1167003,-42,73,332,0
1167014,-61,55,262,0
1167025,-71,51,199,0
1167036,-76,47,169,0
1167047,-74,29,141,0
1167058,-56,6,118,0
1167069,30,-15,92,0
1167080,61,-18,61,0
1167091,85,-14,21,0
1167102,98,-12,-16,0
1167113,106,-6,-54,0
1167124,100,-5,-102,0
1167135,81,3,-119,0
1167146,43,-10,-116,1
1167157,1,-46,-105,0
1167168,-30,-59,-77,0
1167179,-35,-56,-64,0
1167190,11,-50,-57,0
1167201,164,24,-69,0
1167212,158,36,24,0
1167223,87,-171,405,0
1167234,59,-1,375,0
1167245,-2,38,458,0
1167256,6,117,511,0
1167267,-54,133,511,0
1167278,-18,195,511,0
1167289,74,165,511,0
1167300,83,127,511,0
1167311,47,95,502,0
1167322,-20,86,486,0
1167333,-70,85,492,0
1167344,-96,92,497,0
1167355,-75,75,474,0
1167366,-49,48,415,0
1167377,-28,-23,315,0
1167388,-25,-22,288,0
1167399,-11,-12,255,0
1167410,6,6,209,0
1167421,26,-9,149,0
1167432,42,13,132,0
1167443,57,13,89,0
1167454,59,12,37,0
1167465,57,-10,6,0
1167476,53,-52,-37,0
1167487,61,-77,-77,0
1167498,76,-72,-110,0
1167509,78,-63,-118,0
1167520,66,-47,-114,0
1167531,29,12,-109,0
1167542,33,13,-88,0
1167553,47,-17,-41,1
1167564,86,-56,-1,0
1167575,105,-48,26,0
1167586,116,-51,53,0
1167597,105,11,62,0
1167608,55,46,81,0
1167619,77,34,188,0
1167630,98,16,327,0
1167641,113,2,511,0
1167652,124,-1,511,0
1167664,110,84,511,0
1167675,61,52,462,1
1167686,53,17,359,0
1167697,16,-11,338,0
1167708,-25,42,427,0
1167719,-61,78,492,0
1167730,-82,72,499,0
1167741,-95,71,479,0
1167752,-91,82,461,0
1167763,-82,80,432,0
1167774,-71,77,396,0
1167785,-65,67,359,0
1167796,-45,54,318,0
1167807,-22,58,292,0
1167818,-12,77,276,0
1167829,-42,49,204,0
1167840,-50,42,174,0
1167851,-46,50,154,0
1167862,-39,44,128,0
1167873,-42,32,97,0
1167884,-43,9,65,0
1167895,-43,-6,32,0
1167906,-37,-36,0,0
1167917,-26,-34,-40,0
1167928,-17,-12,-71,0
1167939,-15,-29,-92,1
1167950,-12,-60,-87,0
1167961,0,-72,-69,0
1167972,44,-66,-42,0
1167983,119,-67,51,0
1167994,122,-109,136,0
1168005,94,-146,271,0
1168016,84,-101,377,0
1168027,73,-50,498,0
1168038,36,68,511,0
1168049,78,228,511,0
1168060,135,229,511,0
1168071,107,115,511,0
1168082,53,133,490,0
1168093,14,115,412,0
1168104,-17,72,388,0
1168115,-34,31,378,0
1168126,-46,19,382,0
1168137,-40,-23,337,0
1168148,-24,-21,315,0
1168159,-13,-10,288,0
1168170,-4,-3,255,0
1168181,9,-2,223,0
1168192,36,-5,194,0
1168203,69,-3,154,0
1168214,84,33,104,0
1168225,65,51,30,0
1168236,34,37,-34,0
1168247,6,-6,-66,0
1168258,6,-46,-81,0
1168269,32,-41,-98,0
1168280,29,-20,-116,0
1168291,9,16,-126,0
1168302,2,26,-124,0
1168313,14,10,-113,0
1168324,41,-26,-58,0
1168335,62,-51,-4,0
1168346,81,-18,26,0
1168357,116,-69,95,1
1168368,115,-33,152,0
1168379,104,-41,178,0
1168390,115,-43,245,0
1168401,158,-129,511,0
1168412,187,43,511,0
1168423,56,100,511,0
1168434,13,-2,497,0
1168445,-47,12,421,0
1168456,-49,-43,322,0
1168467,-65,-59,277,0
1168478,-33,17,407,0
1168489,-8,65,507,0
1168500,17,81,511,0
1168511,41,74,511,0
1168522,65,50,445,0
1168533,83,49,390,0
1168544,88,40,323,0
1168555,87,19,269,0
1168566,83,17,232,0
1168577,66,21,194,0
1168588,10,47,159,0
1168599,-3,63,145,0
1168610,-17,66,132,0
1168621,-27,67,123,0
1168632,-32,74,112,0
1168643,-26,71,97,0
1168654,-13,46,81,0
1168665,6,31,57,0
1168676,22,29,35,0
1168687,28,20,11,0
1168698,34,18,-11,0
1168709,12,33,-21,1
1168720,-1,13,-18,0
1168731,32,-9,-8,0
1168742,78,-10,0,0
1168753,138,-46,15,0
1168764,127,-71,51,0
1168775,125,-39,83,0
1168786,105,18,112,0
1168797,58,22,187,0
1168808,36,29,311,0
1168819,33,18,455,0
1168830,-68,-54,511,0
1168841,-154,11,511,0
1168852,-147,186,511,0
1168863,-92,212,511,0
1168874,-47,125,511,0
1168885,-34,72,511,0
1168896,-45,63,511,0
1168907,-38,66,480,0
1168918,-6,52,446,0
1168929,18,33,416,0
1168940,45,17,387,0
1168951,48,8,327,0
1168962,38,3,291,0
1168973,43,-4,263,0
1168984,45,2,212,0
1168995,43,6,162,0
1169006,45,10,125,0
1169018,47,24,100,0
1169029,48,-17,84,0
1169040,71,-25,78,0
1169051,36,-2,14,0
1169062,19,-19,-16,0
1169073,19,-24,-55,0
1169084,33,-19,-74,0
1169095,48,3,-74,0
1169106,60,18,-73,1
1169117,64,33,-85,0
1169128,60,78,-98,0
1169139,48,90,-99,0
1169150,58,58,-73,0
1169161,68,47,-31,0
1169172,59,81,37,0
1169183,76,53,101,0
1169194,110,44,174,0
1169205,154,87,389,0
1169216,159,63,511,0
1169227,121,108,511,0
1169238,95,127,511,0
1169249,27,109,511,0
1169260,8,69,423,0
1169271,-22,29,342,0
1169282,-56,29,353,0
1169293,-64,50,402,0
1169304,-83,86,440,0
1169315,-105,116,478,0
1169326,-117,116,492,0
1169337,-116,116,488,0
1169348,-97,125,472,0
1169359,-22,106,383,0
1169370,-38,104,358,0
1169381,-40,113,329,0
1169392,-49,121,306,0
1169403,-65,110,264,0
1169414,-91,99,232,0
1169425,-94,86,222,0
1169436,-77,68,208,0
1169447,-64,63,185,0
1169458,-63,65,148,0
1169469,-61,58,102,0
1169480,-52,59,62,0
1169491,-34,22,12,0
1169502,4,-15,-10,0
1169513,66,-26,-29,0
1169524,85,-15,-27,0
1169535,89,-12,-21,0
1169546,96,-11,-17,1
1169557,106,3,-12,0
1169568,100,-7,1,0
1169579,123,0,19,0
1169590,115,2,52,0
1169601,101,-33,104,0
1169612,83,-58,193,0
1169623,45,-75,289,0
1169634,-56,-82,417,0
1169645,-179,-90,511,0
1169656,-205,53,511,0
1169667,-24,132,511,0
1169678,1,90,511,0
1169689,0,76,482,0
1169700,-26,42,421,0
1169711,-56,5,392,0
1169722,-77,-16,392,0
1169733,-95,-21,400,0
1169744,-89,-29,401,0
1169755,-71,-28,386,0
1169766,-62,-25,343,0
1169777,-53,-12,302,0
1169788,-46,14,267,0
1169799,-33,19,213,0
1169810,-21,21,159,0
1169821,0,30,41,0
1169832,33,2,-3,0
1169843,68,-24,-30,0
1169854,99,-32,-42,0
1169865,127,-31,-65,0
1169876,159,-21,-77,1
1169887,176,-13,-95,0
1169898,170,-18,-77,0
1169909,171,-36,-50,0
1169920,179,-36,-36,0
1169931,148,-39,-24,0
1169942,118,-9,-18,0
1169953,46,46,-44,0
1169964,31,-23,-1,0
1169975,27,-100,161,0
1169986,-25,25,291,0
1169997,-11,6,322,0
1170008,-36,-66,321,0
1170019,-79,-2,376,0
1170030,-137,69,465,0
1170041,-150,65,511,0
1170052,-166,121,511,0
1170063,-173,133,511,0
1170074,-136,90,495,0
1170085,-90,63,437,0
1170096,-49,65,425,0
1170107,-29,57,395,0
1170118,-32,40,370,0
1170129,-34,27,349,0
1170140,-30,27,347,0
1170151,-39,60,355,0
1170162,-54,66,347,0
1170173,-59,90,322,0
1170184,-54,99,278,0
1170195,-50,84,231,0
1170206,-20,52,193,0
1170217,6,34,153,0
1170228,20,29,126,0
1170239,39,24,91,0
1170250,49,37,68,0
1170261,66,37,46,0
1170272,79,26,16,0
1170283,75,19,-8,0
1170294,35,-12,-62,1
1170305,15,-27,-66,0
1170316,4,-19,-69,0
1170327,15,-2,-60,0
1170338,90,55,-57,0
1170349,176,69,-22,0
1170360,138,-32,72,0
1170371,77,-205,156,0
1170382,56,-218,264,0
1170393,36,-114,353,0
1170404,1,-24,511,1
1170415,-54,55,511,0
1170426,-41,136,511,0
1170437,43,214,511,0
1170448,-2,78,494,0
1170459,-66,56,414,0
1170470,-112,39,406,0
1170481,-127,32,401,0
1170492,-122,36,396,0
1170503,-106,48,365,0
1170514,-92,50,322,0
1170525,-59,58,291,0
1170536,-32,57,245,0
1170547,-16,48,205,0
1170558,9,35,183,0
1170569,43,40,157,0
1170580,74,60,133,0
1170591,111,44,105,0
1170602,160,2,38,0
1170613,189,-45,-3,0
1170624,184,12,-54,0
1170635,158,-25,-56,0
1170646,157,-42,-56,0
1170657,166,-24,-45,0
1170668,142,-25,-37,0
1170679,117,-12,-29,0
1170690,104,-14,-19,1
1170701,64,-23,-10,0
1170712,50,-9,15,0
1170723,66,-35,180,0
1170734,54,-58,206,0
1170745,-22,92,253,0
1170756,-71,4,361,0
1170767,-72,-61,405,0
1170778,-76,-47,428,0
1170789,-91,-11,431,0
1170800,-130,55,491,0
1170811,-125,102,511,0
1170822,-96,93,511,0
1170833,-66,63,479,0
1170844,-50,68,460,0
1170855,-31,69,451,0
1170866,-31,63,426,0
1170877,-21,50,406,0
1170888,-10,43,371,0
1170899,1,66,370,0
1170910,-9,93,298,0
1170921,-25,95,265,0
1170932,-38,92,229,0
1170943,-33,78,194,0
1170954,-12,51,160,0
1170965,12,24,133,0
1170976,37,11,117,0
1170987,55,2,103,0
1170998,67,20,89,0
1171009,88,19,57,0
1171021,86,26,7,0
1171032,65,22,-26,0
1171043,42,-3,-47,0
1171054,-2,-26,-75,1
1171065,-9,-49,-69,0
1171076,21,-37,-47,0
1171087,78,12,-23,0
1171098,132,5,20,0
1171109,131,-52,89,0
1171120,81,-121,155,0
1171131,53,-129,207,0
1171142,25,-53,309,0
1171153,11,-4,508,0
1171164,-7,50,511,0
1171175,24,140,511,0
1171186,105,194,511,0
1171197,144,135,511,0
1171208,49,74,427,0
1171219,18,46,401,0
1171230,-7,28,403,0
1171241,-33,22,397,0
1171252,-40,31,372,0
1171263,-54,35,347,0
1171274,-75,24,325,0
1171285,-75,12,292,0
1171296,-72,7,249,0
1171307,-62,8,205,0
1171318,-37,28,166,0
1171329,-8,47,126,0
1171340,28,25,81,0
1171351,69,3,40,0
1171362,108,-31,-32,0
1171373,97,-48,-53,0
1171385,87,-57,-71,0
1171396,83,-48,-91,0
1171407,84,-29,-94,0
1171418,88,-5,-67,0
1171429,93,-10,-52,0
1171440,89,-19,-35,0
1171451,71,-22,-4,1
1171462,50,-57,35,0
1171473,25,-25,19,0
1171484,62,-82,107,0
1171495,130,-210,299,0
1171506,45,-23,329,0
1171517,2,195,398,0
1171528,-5,77,511,0
1171539,-17,85,511,0
1171550,-66,10,511,0
1171561,-23,14,506,0
1171572,1,-6,379,0
1171583,-11,-31,295,0
1171594,0,-30,297,0
1171605,12,12,343,0
1171616,10,55,418,0
1171627,-1,90,459,0
1171638,-9,95,458,0
1171649,-16,99,436,0
1171660,-23,66,355,0
1171671,-30,93,325,0
1171682,-45,65,295,0
1171693,-45,67,264,0
1171704,-54,69,213,0
1171715,-52,46,177,0
1171726,-33,21,156,0
1171737,-6,-6,145,0
1171748,16,-16,141,0
1171759,29,-15,126,0
1171770,30,-14,101,0
1171781,23,-11,67,0
1171792,17,-8,28,0
1171803,10,-19,-9,0
1171814,-26,-63,-69,0
1171825,-33,-83,-85,0
1171836,-39,-63,-89,0
1171847,-46,-49,-73,0
1171858,-28,-39,-57,1
1171869,39,6,-58,0
1171880,197,160,-58,0
1171891,199,120,111,0
1171902,43,-357,409,0
1171913,118,-125,448,0
1171924,-27,49,456,0
1171935,-15,123,511,0
1171946,24,57,511,0
1171957,102,38,511,0
1171968,140,59,510,0
1171979,81,65,457,0
1171990,7,68,439,0
1172001,-58,66,444,0
1172012,-89,67,449,0
1172023,-96,60,425,0
1172034,-85,42,385,0
1172045,-79,24,332,0
1172056,-74,12,300,0
1172067,-70,4,258,0
1172078,-66,-13,222,0
1172089,-51,-23,189,0
1172100,-23,-24,158,0
1172111,21,-10,143,0
1172122,69,15,32,0
1172133,70,9,0,0
1172144,68,-12,-23,0
1172155,77,-19,-41,0
1172166,96,-17,-68,0
1172177,104,-2,-101,0
1172188,101,21,-117,0
1172199,103,20,-119,0
1172210,108,31,-109,0
1172221,100,14,-83,1
1172232,107,-27,-61,0
1172243,150,-130,40,0
1172254,235,-211,183,0
1172265,210,20,214,0
1172276,124,102,337,0
1172287,-48,100,496,0
1172298,-114,76,511,0
1172309,-223,54,511,0
1172320,-224,65,511,0
1172331,-191,47,503,0
1172342,-138,-21,418,0
1172353,-46,-18,397,0
1172364,14,-9,405,0
1172375,47,17,429,0
1172386,34,25,402,0
1172397,22,19,366,0
1172408,26,15,323,0
1172419,38,42,316,0
1172430,20,54,315,0
1172441,23,51,314,0
1172452,19,62,316,0
1172463,13,74,315,0
1172474,4,67,289,0
1172485,-5,48,234,0
1172496,-5,32,192,0
1172507,-8,30,147,0
1172518,-23,33,104,0
1172529,-38,0,78,0
1172540,-46,-33,36,0
1172551,-64,-24,12,0
1172562,-71,-13,-32,1
1172573,-74,-17,-69,0
1172584,-39,-21,-85,0
1172595,-6,9,-83,0
1172606,61,43,-57,0
1172617,40,-53,29,0
1172628,65,-96,97,0
1172639,64,-62,163,0
1172650,75,-16,198,0
1172661,50,-12,277,0
1172672,44,-25,437,0
1172683,31,9,511,0
1172694,-13,75,511,0
1172705,30,132,511,0
1172716,62,110,511,0
1172727,51,80,505,0
1172738,0,50,427,0
1172749,-27,21,398,0
1172760,-43,18,397,0
1172771,-49,15,392,0
1172782,-48,4,379,0
1172793,-43,-10,334,0
1172804,-36,-17,296,0
1172815,-25,-4,263,0
1172826,-17,4,224,0
1172837,-13,16,188,0
1172848,0,0,126,0
1172859,9,-7,73,0
1172870,3,22,16,0
1172881,-19,17,-32,0
1172892,25,-48,-92,0
1172903,42,-43,-106,0
1172914,58,-61,-119,0
1172925,75,-54,-132,0
1172936,85,-38,-127,0
1172947,94,-29,-104,0
1172958,90,-25,-64,0
1172969,79,-1,-26,1
1172980,63,28,0,0
1172991,59,-5,52,0
1173002,116,-175,197,0
1173013,182,-367,511,0
1173024,66,157,372,0
1173035,96,52,439,0
1173046,80,-37,417,0
1173057,-115,63,511,0
1173068,-126,7,511,0
1173079,-68,-17,474,0
1173090,-54,-50,396,0
1173101,21,-48,400,0
1173112,68,-32,444,0
1173123,72,-23,443,0
1173134,77,-12,411,0
1173145,70,-18,370,0
1173156,60,0,347,0
1173167,39,12,312,0
1173178,29,5,284,0
1173189,16,36,270,0
1173200,-13,56,279,0
1173211,-49,80,261,0
1173222,-62,75,231,0
1173233,-65,35,191,0
1173244,-47,0,174,0
1173255,-24,-14,144,0
1173266,-19,0,113,0
1173277,-15,7,82,0
1173288,-14,4,56,0
1173299,-12,-7,13,0
1173310,-13,-19,-21,0
1173321,-16,-27,-44,0
1173332,-14,-48,-52,0
1173343,3,-54,-63,1
1173354,22,-41,-70,0
1173365,81,-56,-73,0
1173376,137,-46,-51,0
1173387,122,-114,52,0
1173398,79,-177,137,0
1173409,79,-64,190,0
1173420,50,51,251,0
1173431,26,77,440,0
1173442,24,71,511,0
1173453,-53,56,511,0
1173464,-33,117,511,0
1173475,36,82,511,0
1173486,41,11,511,0
1173497,-8,21,511,0
1173508,-50,36,508,0
1173519,-82,51,475,0
1173530,-91,56,445,0
1173541,-87,33,410,0
1173552,-75,3,360,0
1173563,-85,-39,314,0
1173574,-95,-63,250,0
1173585,-97,-66,190,0
1173596,-92,-58,139,0
1173607,-71,-20,112,0
1173618,-46,16,103,0
1173629,-12,21,88,0
1173640,19,33,67,0
1173651,59,10,28,0
1173662,94,-18,-10,0
1173673,141,-37,-72,0
1173685,148,-19,-80,0
1173696,147,-9,-88,0
1173707,144,-25,-110,0
1173718,147,-8,-105,0
1173729,141,-34,-63,0
1173740,132,-46,-40,0
1173751,122,-30,-6,1
1173762,136,-5,79,0
1173773,81,15,135,0
1173784,53,8,168,0
1173795,-8,102,228,0
1173806,-81,20,478,0
1173817,-164,58,511,0
1173828,-228,106,511,0
1173839,-192,96,511,0
1173850,-126,63,486,0
1173861,-71,38,421,0
1173872,-35,7,353,0
1173883,-18,31,379,0
1173894,-25,52,410,0
1173905,-40,60,402,0
1173916,-45,63,399,0
1173927,-43,50,371,0
1173938,-35,53,339,0
1173949,-42,73,322,0
1173960,-50,75,279,0
1173971,-60,80,272,0
1173982,-63,75,274,0
1173993,-40,25,256,0
1174004,-2,-20,206,0
1174015,10,-7,158,0
1174026,17,0,93,0
1174037,22,21,63,0
1174048,36,13,28,0
1174059,47,-14,-21,0
1174070,54,-30,-56,0
1174081,49,-38,-103,0
1174092,32,-36,-117,1
1174103,20,-25,-107,0
1174114,87,2,-115,0
1174125,151,80,-76,0
1174136,88,-87,32,0
1174147,8,-239,126,0
1174158,14,-151,169,0
1174169,23,-19,239,0
1174180,27,34,412,0
1174191,50,61,511,0
1174203,-26,57,511,0
1174214,-27,110,511,0
1174225,25,121,511,0
1174236,11,58,511,0
1174247,-50,45,478,0
1174258,-144,24,423,0
1174269,-129,56,469,0
1174280,-105,66,468,0
1174291,-80,54,427,0
1174302,-58,27,376,0
1174314,-34,-6,345,0
1174325,-8,6,298,0
1174336,2,39,213,0
1174347,18,33,186,0
1174358,43,38,155,0
1174369,62,55,129,0
1174380,70,68,79,0
1174391,89,67,23,0
1174402,102,-1,-60,0
1174413,103,-34,-79,0
1174424,89,-36,-90,0
1174435,71,-28,-87,0
1174446,60,-27,-83,0
1174457,59,-36,-64,0
1174468,65,-38,-33,1
1174479,81,-36,-23,0
1174490,82,-31,-20,0
1174501,104,-51,-19,0
1174512,110,-56,32,0
1174523,77,-43,57,0
1174534,31,-17,104,0
1174545,4,5,101,0
1174556,62,-57,277,0
1174567,127,-108,511,0
1174578,156,104,511,0
1174589,16,196,511,0
1174600,-70,105,480,0
1174611,-80,63,457,0
1174622,-65,55,453,0
1174633,-66,43,433,0
1174644,-68,66,473,0
1174655,-78,113,511,0
1174666,-78,147,511,0
1174677,-77,149,511,0
1174688,-72,126,466,0
1174699,-63,88,400,0
1174710,-39,45,326,0
1174721,-27,67,322,0
1174732,-25,86,308,0
1174743,-18,87,281,0
1174754,-3,87,250,0
1174765,10,68,217,0
1174776,22,58,179,0
1174787,33,49,180,0
1174798,50,38,154,0
1174809,62,24,120,0
1174820,64,24,72,0
1174831,63,15,45,0
1174842,74,4,12,1
1174853,68,12,-11,0
1174864,12,9,-61,0
1174875,-16,7,-69,0
1174886,-32,-3,-66,0
1174897,-26,-8,-62,0
1174908,52,20,-64,0
1174919,189,123,-69,0
1174930,206,42,21,0
1174941,91,-239,156,0
1174952,67,-242,225,0
1174963,34,-104,277,0
1174974,-22,-4,404,0
1174985,-59,49,511,0
1174996,-60,114,511,0
1175007,4,156,511,0
1175018,25,59,497,0
1175029,-10,41,440,0
1175040,-40,20,404,0
1175051,-64,54,442,0
1175062,-55,67,470,0
1175073,-42,44,443,0
1175084,-34,23,397,0
1175095,-20,16,334,0
1175106,-7,22,283,0
1175117,-3,27,254,0
1175128,3,7,229,0
1175139,7,-22,186,0
1175150,19,-32,155,0
1175161,28,-7,120,0
1175172,53,63,75,0
1175183,82,50,72,0
1175194,94,37,59,0
1175205,105,-3,43,0
1175216,153,5,-6,0
1175227,146,53,-21,0
1175238,147,-35,-9,1
1175249,175,-11,-15,0
1175260,165,9,-2,0
1175271,136,-24,3,0
1175282,101,-1,2,0
1175293,50,-3,-8,0
1175304,1,0,-11,0
1175315,59,-97,14,0
1175326,200,-161,221,0
1175337,86,186,446,0
1175348,61,20,430,0
1175359,-23,-12,381,0
1175370,-44,-36,346,0
1175381,-61,-87,361,0
1175392,-93,-37,417,0
1175403,-110,44,480,0
1175414,-107,90,497,0
1175425,-100,85,511,0
1175436,-98,110,511,0
1175447,-97,100,511,0
1175458,-92,93,510,0
1175469,-85,79,446,0
1175480,-77,60,377,0
1175491,-32,39,284,0
1175502,-1,39,250,0
1175513,27,48,213,0
1175524,34,83,216,0
1175535,36,109,237,0
1175546,46,132,240,0
1175557,51,125,238,0
1175568,64,113,226,0
1175579,66,87,195,0
1175590,59,63,148,0
1175601,49,49,108,0
1175612,55,13,62,0
1175623,70,-4,17,0
1175634,68,4,-5,1
1175645,39,-16,-31,0
1175656,27,-15,-51,0
1175667,27,-5,-50,0
1175678,35,-6,-39,0
1175689,83,24,-34,0
1175700,145,58,-5,0
1175711,120,-29,81,0
1175722,67,-169,162,0
1175733,29,-152,199,0
1175744,-9,-81,244,0
1175755,-56,-19,374,0
1175766,-99,-5,511,0
1175777,-164,40,511,0
1175788,-70,117,511,0
1175799,52,138,511,0
1175810,31,88,468,0
1175821,-12,69,419,0
1175832,-38,61,400,0
1175843,-63,48,388,0
1175854,-66,44,373,0
1175865,-64,48,336,0
1175876,-68,39,308,0
1175887,-61,31,278,0
1175898,-36,8,233,0
1175909,-10,2,198,0
1175920,9,22,168,0
1175931,36,60,139,0
1175942,81,77,116,0
1175953,163,-37,77,0
1175964,200,-35,19,0
1175975,177,22,-18,0
1175986,154,12,-47,0
1175997,157,-33,-62,0
1176008,171,-27,-54,0
1176019,170,-18,-51,1
1176030,153,-48,-31,0
1176041,131,-53,-1,0
1176052,148,-60,13,0
1176063,166,-53,129,0
1176074,86,18,194,0
1176085,45,24,180,0
1176096,-5,11,202,0
1176107,-112,-20,378,0
1176118,-144,-28,488,0
1176129,-215,-15,511,0
1176140,-198,9,504,0
1176151,-153,48,471,0
1176162,-112,36,436,0
1176173,-75,24,407,0
1176184,-58,17,386,0
1176195,-48,14,377,0
1176206,-56,26,385,0
1176217,-58,43,402,0
1176228,-57,49,399,0
1176239,-40,44,376,0
1176250,-16,44,354,0
1176261,3,82,331,0
1176272,5,82,291,0
1176283,13,79,256,0
1176294,26,65,215,0
1176305,51,36,179,0
1176316,69,12,143,0
1176327,87,5,116,0
1176338,87,14,101,0
1176349,87,30,76,0
1176360,94,7,41,0
1176371,70,10,-3,0
1176383,34,4,-36,0
1176394,3,4,-78,0
1176405,-32,-7,-97,1
1176416,8,14,-83,0
1176427,77,54,-47,0
1176438,95,0,26,0
1176449,58,-120,98,0
1176460,5,-165,146,0
1176471,5,-122,203,0
1176482,-9,-47,340,0
1176493,-19,23,511,0
1176504,-53,57,511,0
1176515,-57,85,511,0
1176526,19,136,511,0
1176537,59,119,511,0
1176548,55,79,500,0
1176559,-26,42,426,0
1176570,-39,7,405,0
1176581,-42,1,398,0
1176592,-23,10,378,0
1176603,-18,6,371,0
1176614,-22,-7,367,0
1176625,-2,-49,326,0
1176636,19,-13,240,0
1176647,7,43,192,0
1176658,25,38,179,0
1176669,39,55,167,0
1176680,84,22,101,0
1176691,106,55,36,0
1176702,115,20,-2,0
1176713,108,-16,-69,0
1176724,107,-19,-72,0
1176736,101,-24,-67,0
1176747,95,-12,-57,0
1176758,91,-24,-48,0
1176769,82,-32,-49,0
1176780,52,-14,-41,0
1176791,1,19,-27,1
1176802,-31,9,9,0
1176813,39,-100,53,0
1176824,167,-210,299,0
1176835,118,71,337,0
1176847,35,-31,360,0
1176858,-78,-36,376,0
1176869,-91,-56,451,0
1176880,-123,-37,504,0
1176891,-131,24,511,0
1176902,-185,39,511,0
1176913,-169,21,466,0
1176924,-121,31,449,0
1176935,-85,42,454,0
1176946,-70,75,457,0
1176957,-60,92,454,0
1176968,-46,80,419,0
1176979,-22,65,372,0
1176990,8,59,337,0
1177001,7,65,314,0
1177012,7,82,301,0
1177023,12,82,264,0
1177034,29,65,222,0
1177045,41,23,174,0
1177056,62,7,149,0
1177067,71,-4,111,0
1177078,71,-3,75,0
1177089,76,11,42,0
1177100,84,9,6,0
1177111,74,-2,-34,0
1177122,38,-1,-64,0
1177133,-7,-14,-89,0
1177144,-51,-36,-98,0
1177155,-31,-27,-80,1
1177166,43,-1,-81,0
1177177,94,36,-49,0
1177188,108,-29,12,0
1177199,87,-85,93,0
1177210,70,-90,184,0
1177221,73,-35,263,0
1177232,36,60,380,0
1177243,6,53,511,1
1177254,-14,69,511,0
1177265,-5,76,511,0
1177276,10,71,511,0
1177287,14,82,511,0
1177298,-31,85,511,0
1177309,-67,85,511,0
1177320,-80,111,511,0
1177331,-88,88,504,0
1177342,-90,69,439,0
1177353,-115,49,385,0
1177364,-131,27,337,0
1177375,-118,0,292,0
1177386,-78,-45,252,0
1177397,-27,-52,158,0
1177408,-10,65,88,0
1177419,16,48,81,0
1177430,93,14,66,0
1177441,145,34,14,0
1177452,182,-18,-53,0
1177463,185,-28,-78,0
1177474,183,-23,-91,0
1177485,162,-20,-95,0
1177496,136,-16,-84,0
1177507,118,-20,-66,0
1177518,113,-36,-50,0
1177529,101,-54,-16,1
1177540,65,-41,20,0
1177551,99,-112,60,0
1177562,129,-64,202,0
1177573,95,-1,277,0
1177584,25,58,254,0
1177595,-32,46,265,0
1177606,-89,-52,435,0
1177617,-99,-33,497,0
1177628,-124,-33,450,0
1177639,-120,-16,423,0
1177650,-111,5,433,0
1177661,-103,-2,406,0
1177672,-78,0,404,0
1177683,-45,3,408,0
1177694,-70,34,403,0
1177705,-68,55,421,0
1177716,-71,79,431,0
1177727,-67,89,427,0
1177738,-66,92,400,0
1177749,-52,100,376,0
1177760,-53,108,286,0
1177771,-66,98,249,0
1177782,-56,67,216,0
1177793,-32,15,200,0
1177804,10,-36,179,0
1177815,39,-41,152,0
1177826,52,-45,117,0
1177837,61,-42,58,0
1177848,60,-10,7,0
1177859,54,-1,-41,0
1177870,42,-19,-90,0
1177881,24,-46,-127,0
1177892,1,-55,-148,0
1177903,2,-30,-151,0
1177914,54,26,-80,1
1177925,144,76,-47,0
1177936,170,42,67,0
1177947,86,-141,198,0
1177958,60,-194,272,0
1177969,74,-50,274,0
1177980,45,73,376,0
1177991,36,65,511,0
1178002,20,42,511,0
1178013,23,22,511,0
1178024,48,-4,511,0
1178035,49,7,511,0
1178046,34,42,511,0
1178057,-7,72,511,0
1178068,-34,80,511,0
1178079,-79,58,474,0
1178090,-94,42,434,0
1178101,-111,41,417,0
1178112,-120,57,401,0
1178123,-138,36,365,0
1178134,-127,-42,337,0
1178145,-73,-91,268,0
1178156,-78,73,166,0
1178167,-39,37,135,0
1178178,-9,67,90,0
1178189,32,46,37,0
1178200,58,41,-8,0
1178211,66,25,-43,0
1178222,70,-9,-84,0
1178233,110,-56,-74,0
1178244,129,-49,-69,0
1178255,134,-22,-71,0
1178266,139,-18,-59,0
1178277,132,-33,-26,0
1178288,130,-62,-6,1
1178299,122,-47,-7,0
1178310,131,-34,10,0
1178321,228,-110,220,0
1178332,235,32,266,0
1178343,121,78,323,0
1178354,77,54,284,0
1178365,-64,-30,235,0
1178376,-130,-22,292,0
1178387,-220,-7,415,0
1178398,-233,34,484,0
1178409,-252,75,511,0
1178420,-194,68,498,0
1178431,-141,76,455,0
1178442,-118,91,470,0
1178453,-114,98,464,0
1178464,-101,93,431,0
1178475,-92,83,390,0
1178486,-74,61,342,0
1178497,-55,54,320,0
1178508,-38,56,310,0
1178519,-24,81,298,0
1178530,-9,102,273,0
1178541,22,78,233,0
1178552,40,58,200,0
1178563,54,42,162,0
1178574,58,19,124,0
1178585,55,1,104,0
1178596,57,-3,69,0
1178607,63,-9,22,0
1178618,63,-19,-20,0
1178629,40,-12,-78,0
1178640,10,-23,-114,0
1178651,-9,-42,-136,0
1178662,-15,-30,-148,1
1178673,3,11,-130,0
1178684,90,46,-111,0
1178695,184,-16,86,0
1178706,91,-296,246,0
1178717,69,-248,327,0
1178728,9,-62,363,0
1178739,-55,53,511,0
1178750,-90,80,511,0
1178761,-59,93,511,0
1178772,-5,111,511,0
1178783,23,105,511,0
1178794,6,79,502,0
1178805,-27,71,447,0
1178816,-68,71,442,0
1178827,-84,93,457,0
1178838,-89,83,437,0
1178849,-80,47,361,0
1178860,-59,49,335,0
1178871,-44,43,308,0
1178882,-20,21,269,0
1178893,7,25,239,0
1178904,33,26,197,0
1178915,60,33,140,0
1178926,73,63,83,0
1178937,55,92,37,0
1178948,88,6,-4,0
1178959,120,-19,-40,0
1178970,119,-22,-62,0
1178981,116,-35,-77,0
1178992,127,-53,-86,0
1179003,146,-39,-79,0
1179014,150,-37,-51,0
1179025,154,-43,-27,0
1179036,143,-48,-14,1
1179047,145,-40,-20,0
1179058,194,-54,170,0
1179069,188,-21,284,0
1179080,77,131,292,0
1179091,-3,84,334,0
1179102,-101,-17,302,0
1179113,-152,-85,351,0
1179124,-173,-85,355,0
1179135,-194,-58,351,0
1179146,-175,30,437,0
1179157,-135,118,498,0
1179168,-112,92,456,0
1179179,-107,88,472,0
1179190,-124,108,496,0
1179201,-138,109,493,0
1179212,-128,88,454,0
1179223,-110,72,394,0
1179234,-75,50,332,0
1179245,-36,41,293,0
1179256,-1,65,292,0
1179267,26,105,294,0
1179278,39,124,288,0
1179289,78,95,234,0
1179301,83,88,184,0
1179312,71,51,154,0
1179323,58,4,123,0
1179334,45,9,98,0
1179345,41,3,56,0
1179356,35,-7,7,0
1179367,20,-14,-48,0
1179378,0,-15,-81,0
1179389,-15,-21,-95,0
1179400,-16,-43,-116,1
1179411,2,-22,-116,0
1179422,94,54,-91,0
1179433,135,48,-25,0
1179444,95,-96,65,0
1179455,53,-88,188,0
1179466,26,-36,295,0
1179477,-17,39,458,0
1179488,-39,66,511,0
1179499,-62,72,511,0
1179510,-15,92,511,0
1179521,38,129,511,0
1179532,56,103,511,0
1179543,32,67,477,0
1179554,2,79,445,0
1179565,-7,93,469,0
1179576,-21,84,466,0
1179587,-28,67,433,0
1179598,-37,57,379,0
1179609,-76,23,317,0
1179620,-55,-24,290,0
1179631,-12,-70,223,0
1179642,-5,46,142,0
1179653,-3,73,100,0
1179664,37,51,78,0
1179675,102,-15,89,0
1179686,145,36,0,0
1179697,140,12,-45,0
1179708,127,1,-73,0
1179719,117,-19,-87,0
1179730,109,-28,-87,0
1179741,96,-15,-83,0
1179752,74,-3,-67,0
1179763,75,-56,-10,0
1179774,90,-56,4,1
1179785,158,-94,98,0
1179796,164,-17,241,0
1179807,85,64,299,0
1179818,63,71,326,0
1179829,12,36,285,0
1179840,-46,-12,274,0
1179851,-64,-78,346,0
1179862,-92,-59,387,0
1179873,-113,-38,376,0
1179884,-92,0,385,0
1179895,-75,17,388,0
1179906,-50,18,390,0
1179917,11,27,387,0
1179928,3,55,404,0
1179939,-20,78,398,0
1179950,-42,77,379,0
1179961,-60,67,352,0
1179972,-58,54,326,0
1179983,-61,46,317,0
1179994,-58,48,305,0
1180005,-59,58,289,0
1180016,-50,57,250,0
1180027,-39,52,206,0
1180038,-27,34,171,0
1180049,-5,14,174,0
1180060,27,-8,170,0
1180071,62,-2,116,0
1180082,62,3,72,0
1180093,70,0,19,0
1180104,63,6,-40,0
1180115,31,-8,-79,0
1180126,1,-45,-94,1
1180137,-33,-53,-98,0
1180148,-37,-40,-105,0
1180159,-11,-20,-94,0
1180170,95,27,-81,0
1180181,183,65,-17,0
1180192,118,-140,146,0
1180203,81,-249,295,0
1180214,73,-167,297,0
1180225,94,153,511,0
1180236,112,129,511,0
1180247,162,110,511,0
1180258,207,75,511,0
1180269,224,27,511,0
1180280,149,30,411,0
1180291,66,74,427,0
1180302,-13,64,413,0
1180313,-67,86,429,0
1180324,-93,94,423,0
1180335,-98,87,419,0
1180346,-81,67,383,0
1180357,-64,64,333,0
1180368,-60,54,284,0
1180379,-93,8,201,0
1180390,-96,-4,163,0
1180401,-93,-24,131,0
1180412,-63,-50,109,0
1180423,-10,-43,82,0
1180434,33,-32,48,0
1180445,62,-24,15,0
1180456,69,-19,-14,0
1180467,71,-15,-47,0
1180478,76,-9,-81,1
1180489,80,13,-107,0
1180500,67,24,-105,0
1180511,46,-2,-94,0
1180522,34,-11,-61,0
1180533,28,-29,11,0
1180544,113,-116,129,0
1180555,172,-279,384,0
1180566,106,253,289,0
1180577,-20,57,321,0
1180588,-6,108,334,0
1180599,-73,60,378,0
1180610,-136,10,396,0
1180621,-159,2,423,0
1180632,-209,34,511,0
1180643,-146,70,504,0
1180654,-80,53,443,0
1180665,-14,32,391,0
1180676,56,16,372,0
1180687,127,30,374,0
1180698,115,42,383,0
1180709,88,58,373,0
1180720,55,63,343,0
1180731,28,52,311,0
1180742,15,39,275,0
1180753,3,35,258,0
1180764,-6,30,242,0
1180775,-27,45,226,0
1180786,-40,52,212,0
1180797,-51,75,196,0
1180808,-48,83,196,0
1180819,-39,60,192,0
1180830,-29,31,183,0
1180841,0,-10,139,0
1180852,14,-15,102,1
1180863,32,-20,58,0
1180874,37,-25,11,0
1180885,25,-33,-33,0
1180896,18,-38,-70,0
1180907,16,-32,-83,0
1180918,33,-28,-73,0
1180929,113,14,-70,0
1180940,142,16,1,0
1180951,85,-110,125,0
1180962,54,-172,274,0
1180973,83,-68,254,0
1180984,31,50,314,0
1180995,-11,104,511,0
1181006,-16,138,511,0
1181017,27,120,511,0
1181028,55,105,511,0
1181039,33,111,511,0
1181050,-16,85,434,0
1181061,-50,74,378,0
1181072,-63,79,366,0
1181083,-57,67,365,0
1181094,-50,57,351,0
1181105,-49,62,323,0
1181116,-44,55,294,0
1181127,-56,43,260,0
1181138,-76,15,247,0
1181149,-73,-19,198,0
1181160,-70,-29,99,0
1181171,-47,-33,75,0
1181182,-13,-40,57,0
1181193,20,-55,32,0
1181204,51,-59,-2,0
1181215,85,-34,-19,0
1181226,102,-20,-67,0
1181237,103,-7,-97,0
1181248,100,2,-89,0
1181259,90,12,-89,0
1181270,86,14,-75,0
1181281,87,23,-55,1
1181292,102,-33,19,0
1181303,120,76,49,0
1181314,84,74,108,0
1181325,107,-17,257,0
1181336,119,-57,481,0
1181347,170,27,511,0
1181358,104,163,511,0
1181369,1,117,511,0
1181380,-47,-27,488,0
1181391,-36,-42,442,0
1181402,9,-52,388,0
1181413,42,-58,323,0
1181424,81,-14,347,0
1181435,119,17,374,0
1181446,139,49,404,0
1181457,154,64,416,0
1181468,97,87,379,0
1181479,60,89,343,0
1181490,29,89,314,0
1181501,11,84,288,0
1181512,-2,82,260,0
1181523,-9,76,237,0
1181534,-13,73,210,0
1181545,-5,72,192,0
1181556,8,72,168,0
1181567,20,77,143,0
1181578,29,80,117,0
1181589,38,85,78,0
1181600,45,86,49,0
1181611,40,77,18,0
1181622,52,60,-57,0
1181633,36,57,-70,0
1181644,23,46,-64,0
1181655,36,36,-60,0
1181666,55,45,-45,0
1181677,65,48,-43,0
1181688,81,92,-27,1
1181699,66,90,32,0
1181710,21,52,124,0
1181721,-6,51,226,0
1181732,-41,42,304,0
1181743,-112,31,355,0
1181754,-181,-2,412,0
1181765,-290,-61,511,0
1181776,-200,128,511,0
1181787,-98,206,511,0
1181798,-51,152,511,0
1181809,-23,88,489,0
1181820,-19,49,432,1
1181831,-54,50,420,0
1181842,-85,50,423,0
1181853,-111,22,394,0
1181864,-137,21,385,0
1181875,-158,3,348,0
1181886,-164,-8,309,0
1181897,-148,-13,284,0
1181908,-123,-14,261,0
1181919,-89,-18,225,0
1181930,-34,-17,181,0
1181941,-3,-36,158,0
1181952,17,-39,154,0
1181963,29,-37,146,0
1181974,52,-58,109,0
1181985,66,-59,65,0
1181996,75,-56,28,0
1182007,75,-56,-6,0
1182018,68,-35,-41,0
1182029,59,6,-68,0
1182040,54,27,-92,1
1182051,44,35,-103,0
1182062,23,30,-96,0
1182073,3,-3,-75,0
1182084,123,-60,50,0
1182095,188,-63,162,0
1182106,95,118,86,0
1182117,95,66,139,0
1182128,114,74,271,0
1182139,-20,101,376,0
1182150,-58,161,511,0
1182161,-154,99,511,0
1182172,-241,106,511,0
1182183,-279,96,490,0
1182194,-233,42,437,0
1182205,-175,15,402,0
1182216,-135,24,403,0
1182227,-92,43,413,0
1182238,-63,38,397,0
1182249,-49,35,373,0
1182260,-31,19,331,0
1182271,-13,2,291,0
1182282,8,-8,270,0
1182293,40,-4,269,0
1182304,62,1,280,0
1182315,68,45,294,0
1182326,45,85,309,0
1182337,26,88,343,0
1182348,3,69,340,0
1182359,-39,85,315,0
1182370,-73,62,293,0
1182381,-92,56,222,0
1182392,-76,5,101,0
1182403,-45,-17,38,1
1182414,-27,-4,16,0
1182425,-15,-6,-1,0
1182436,0,10,-17,0
1182447,5,19,-36,0
1182458,12,11,-48,0
1182469,83,54,-54,0
1182480,122,39,-14,0
1182491,112,-54,53,0
1182502,73,-120,108,0
1182513,15,-132,147,0
1182524,11,-97,179,1
1182535,2,-42,260,0
1182546,-51,8,511,0
1182557,-60,78,511,0
1182568,-34,133,511,0
1182579,-5,102,511,0
1182590,8,63,488,0
1182601,-1,52,455,0
1182612,-30,48,435,0
1182623,-45,25,401,0
1182634,-41,9,383,0
1182645,-33,6,360,0
1182656,-2,6,341,0
1182667,18,6,313,0
1182678,26,1,282,0
1182689,23,-10,252,0
1182700,17,-2,216,0
1182711,31,-7,195,0
1182722,42,14,171,0
1182733,48,56,134,0
1182744,64,76,67,0
1182755,86,100,7,0
1182766,106,29,-15,0
1182777,153,-23,-47,0
1182788,142,-9,-59,0
1182799,128,-41,-49,0
1182810,130,-58,-31,0
1182821,134,-51,-31,1
1182832,118,-51,-12,0
1182843,102,-25,-6,0
1182854,151,-91,90,0
1182865,172,-57,188,0
1182876,123,4,170,0
1182887,54,-4,169,0
1182898,-26,-13,225,0
1182909,-78,-64,275,0
1182920,-93,-84,397,0
1182931,-158,-44,498,0
1182942,-151,25,510,0
1182953,-123,78,506,0
1182964,-91,82,480,0
1182975,-67,55,458,0
1182986,-57,53,453,0
1182997,-33,67,474,0
1183008,-72,76,434,0
1183019,-68,65,388,0
1183030,-65,52,348,0
1183041,-34,37,320,0
1183052,-11,60,310,0
1183063,2,89,305,0
1183074,13,104,286,0
1183085,40,95,241,0
1183096,45,99,230,0
1183107,50,76,211,0
1183118,57,40,181,0
1183129,57,26,143,0
1183140,41,37,105,0
1183151,36,44,70,0
1183162,54,9,-36,1
1183173,25,-2,-53,0
1183184,-5,-38,-63,0
1183195,-32,-37,-66,0
1183206,-54,-25,-64,0
1183217,-30,-28,-50,0
1183228,49,-2,-23,0
1183239,117,-10,28,0
1183250,122,-62,98,0
1183261,105,-108,146,0
1183272,122,-98,179,0
1183283,102,-33,255,0
1183294,65,-17,446,0
1183305,52,10,511,0
1183316,126,141,511,0
1183327,177,97,511,0
1183338,155,41,485,0
1183349,115,52,445,0
1183360,77,22,412,0
1183371,41,5,392,0
1183382,14,6,384,0
1183393,-4,31,381,0
1183404,-27,21,357,0
1183416,-55,-3,328,0
1183427,-79,-17,296,0
1183438,-95,-14,259,0
1183449,-102,-4,213,0
1183460,-49,-2,123,0
1183471,-15,25,75,0
1183482,20,15,33,0
1183493,49,-3,-11,0
1183504,64,-16,-52,0
1183515,63,-42,-84,0
1183526,77,-50,-81,0
1183537,91,-44,-96,0
1183548,95,-17,-110,0
1183559,95,-1,-103,0
1183570,105,-10,-76,1
1183581,121,-26,-34,0
1183592,108,-41,17,0
1183603,95,-66,45,0
1183614,277,-290,409,0
1183625,190,184,256,0
1183636,24,98,231,0
1183647,27,8,213,0
1183658,-27,48,301,0
1183669,-106,-23,468,0
1183680,-117,43,489,0
1183691,-129,-65,414,0
1183702,-98,-30,357,0
1183713,-32,-34,403,0
1183724,8,-5,478,0
1183735,34,20,497,0
1183746,54,27,479,0
1183757,48,37,447,0
1183768,-9,51,413,0
1183779,-33,49,388,0
1183790,-56,46,357,0
1183801,-51,38,338,0
1183812,-57,45,319,0
1183823,-69,59,300,0
1183834,-72,63,271,0
1183845,-72,69,243,0
1183856,-67,58,204,0
1183867,-52,20,180,0
1183878,-18,-9,176,0
1183889,0,-17,175,0
1183900,4,-7,147,0
1183911,9,-10,92,0
1183922,6,-17,-23,1
1183933,1,-26,-73,0
1183944,-4,-41,-101,0
1183955,-8,-50,-114,0
1183966,-13,-42,-109,0
1183977,2,-29,-90,0
1183988,53,-10,-70,0
1183999,204,36,-69,0
1184011,244,-3,49,0
1184022,99,-245,222,0
1184033,89,-238,312,0
1184044,99,17,247,1
1184055,38,123,451,0
1184066,44,11,511,0
1184077,59,49,511,0
1184088,120,27,511,0
1184099,123,37,511,0
1184110,72,21,446,0
1184121,4,10,423,0
1184133,-53,11,440,0
1184144,-80,27,459,0
1184155,-81,45,439,0
1184166,-68,47,394,0
1184177,-59,25,333,0
1184188,-53,18,294,0
1184200,-64,-10,202,0
1184211,-65,-17,161,0
1184222,-57,-21,128,0
1184233,-34,-6,99,0
1184244,-20,18,72,0
1184255,-11,26,40,0
1184266,10,-9,0,0
1184277,51,-35,-29,0
1184288,88,-60,-58,0
1184299,118,-69,-92,0
1184310,138,-42,-134,1
1184321,140,4,-152,0
1184332,137,22,-129,0
1184343,122,-12,-63,0
1184354,111,-23,-28,0
1184365,147,-57,11,0
1184376,230,-150,174,0
1184387,254,13,221,0
1184398,101,127,254,0
1184409,112,183,297,0
1184420,32,107,331,0
1184431,-56,74,461,0
1184442,-113,31,511,0
1184453,-201,53,511,0
1184464,-198,79,511,0
1184475,-148,46,469,0
1184486,-66,14,404,0
1184497,49,37,425,0
1184508,49,50,451,0
1184519,4,58,440,0
1184530,-48,59,409,0
1184541,-80,65,383,0
1184552,-104,74,345,0
1184563,-100,75,309,0
1184574,-101,81,280,0
1184585,-92,75,262,0
1184596,-75,73,274,0
1184607,-61,86,284,0
1184618,-60,78,257,0
1184630,-56,66,224,0
1184641,-1,8,165,0
1184652,17,4,125,0
1184663,18,2,83,1
1184674,28,-14,37,0
1184685,46,-11,-13,0
1184696,55,0,-60,0
1184707,45,0,-93,0
1184718,43,-23,-113,0
1184730,32,-52,-114,0
1184741,51,-63,-113,0
1184752,114,-31,-100,0
1184763,115,-77,-21,0
1184774,18,-201,168,0
1184785,21,-93,208,0
1184796,36,39,313,0
1184807,71,88,511,0
1184818,55,77,511,0
1184829,55,153,511,0
1184840,155,150,511,0
1184851,170,58,511,0
1184862,104,36,507,0
1184873,24,34,439,0
1184884,-28,26,418,0
1184895,-56,38,432,0
1184906,-64,44,423,0
1184917,-60,39,396,0
1184928,-47,-29,329,0
1184939,-39,-27,275,0
1184951,-25,-14,231,0
1184962,-12,-10,222,0
1184973,15,-15,166,0
1184984,35,7,87,0
1184995,54,6,43,0
1185006,79,4,-1,0
1185017,93,-22,-49,0
1185028,111,-45,-65,0
1185039,129,-40,-105,0
1185050,125,-27,-132,0
1185061,109,-22,-159,1
1185072,51,-7,-125,0
1185083,46,-17,-77,0
1185094,48,-7,-38,0
1185105,35,15,-27,0
1185116,20,29,-7,0
1185127,69,-55,96,0
1185138,146,-170,267,0
1185149,98,97,252,0
1185160,38,90,359,0
1185171,66,75,416,0
1185182,-24,77,501,0
1185193,-36,26,511,0
1185204,-144,47,511,0
1185215,-143,64,511,0
1185226,-82,17,419,0
1185237,-45,42,429,0
1185248,-23,52,446,0
1185259,-18,100,479,0
1185270,-50,96,449,0
1185281,-58,93,431,0
1185292,-58,100,396,0
1185303,-49,84,352,0
1185314,-38,80,335,0
1185325,-40,69,327,0
1185336,-28,47,304,0
1185347,-28,62,300,0
1185358,-34,71,284,0
1185369,-27,45,229,0
1185380,3,-9,115,0
1185391,6,-11,67,0
1185402,4,-20,16,0
1185413,2,-36,-29,0
1185425,1,-42,-72,0
1185436,-1,-37,-100,0
1185447,3,-54,-111,0
1185458,-1,-62,-109,0
1185469,-4,-59,-106,1
1185480,4,-21,-84,0
1185491,62,-5,-63,0
1185502,168,55,-32,0
1185513,151,-48,97,0
1185524,114,-89,258,0
1185535,83,53,296,0
1185546,90,88,511,0
1185557,80,64,511,0
1185568,32,90,511,0
1185579,67,116,511,0
1185590,86,89,511,0
1185601,57,85,511,0
1185612,-5,101,497,0
1185623,-43,80,488,0
1185634,-71,63,478,0
1185645,-81,62,441,0
1185656,-74,58,404,0
1185667,-67,34,357,0
1185678,-59,-37,288,0
1185689,-59,-42,246,0
1185700,-50,-51,215,0
1185711,-35,-38,181,0
1185722,-10,-18,150,0
1185733,27,10,84,0
1185744,45,58,20,0
1185755,51,32,-33,0
1185766,70,-27,-69,0
1185777,89,-45,-108,0
1185788,101,-36,-123,0
1185799,98,-26,-130,0
1185810,96,-25,-136,0
1185821,96,-31,-125,1
1185832,123,-11,-67,0
1185843,125,12,-43,0
1185854,103,16,-11,0
1185865,87,5,1,0
1185876,141,-49,139,0
1185887,206,-146,324,0
1185898,72,131,358,0
1185909,21,97,365,0
1185920,24,-16,321,0
1185931,-135,-7,355,0
1185942,-198,6,410,0
1185953,-246,40,443,0
1185964,-220,32,453,0
1185975,-212,50,436,0
1185986,-138,94,483,0
1185997,-100,104,500,0
1186008,-102,129,511,0
1186019,-115,116,480,0
1186030,-110,96,430,0
1186041,-100,76,367,0
1186052,-85,64,319,0
1186063,-64,44,292,0
1186074,-44,33,280,0
1186085,-24,56,278,0
1186096,-11,51,277,0
1186107,26,77,272,0
1186118,34,78,249,0
1186129,46,45,210,0
1186140,64,31,135,0
1186151,67,10,84,0
1186162,68,-3,37,0
1186173,63,-19,-11,0
1186184,55,-38,-49,0
1186195,31,-31,-101,0
1186206,3,-36,-129,0
1186217,-17,-25,-138,0
1186228,-29,-12,-130,1
1186239,-13,-1,-113,0
1186250,84,62,-89,0
1186261,92,40,8,0
1186272,3,-176,137,0
1186283,-2,-241,235,0
1186294,-3,8,371,0
1186305,13,66,511,0
1186316,-11,82,511,0
1186327,4,98,511,0
1186338,51,114,511,0
1186349,74,66,511,0
1186360,23,47,443,0
1186371,-30,26,381,0
1186382,-72,54,418,0
1186393,-89,74,439,0
1186404,-97,59,418,0
1186415,-102,52,390,0
1186426,-98,46,347,0
1186437,-97,55,325,0
1186448,-85,19,283,0
1186459,-54,7,234,0
1186470,-7,-2,186,0
1186481,17,49,106,0
1186492,1,77,52,0
1186503,41,11,30,0
1186514,80,17,-23,0
1186525,100,-1,-47,0
1186536,112,-27,-58,0
1186547,129,-43,-74,0
1186558,153,-49,-78,0
1186569,164,-48,-75,0
1186580,171,-36,-52,0
1186591,190,-26,-22,0
1186602,149,-24,-8,0
1186613,104,39,-26,1
1186624,156,-60,70,0
1186635,195,-22,243,0
1186646,93,121,278,0
1186657,66,59,481,0
1186668,-19,2,422,0
1186679,-124,-57,383,0
1186690,-138,-59,378,0
1186701,-142,-60,423,0
1186712,-121,8,469,0
1186723,-123,78,511,0
1186734,-106,68,480,0
1186745,-82,45,445,0
1186756,-75,82,506,0
1186767,-94,73,479,0
1186778,-111,53,423,0
1186789,-116,33,361,0
1186800,-98,40,328,0
1186811,-83,58,319,0
1186822,-76,92,311,0
1186833,-71,119,284,0
1186844,-55,127,254,0
1186855,-27,116,218,0
1186866,98,112,206,0
1186877,31,79,181,0
1186888,60,48,161,0
1186899,74,43,144,0
1186910,86,19,75,0
1186921,94,13,26,0
1186932,90,18,-13,0
1186943,83,26,-49,0
1186954,72,22,-76,0
1186965,67,1,-88,0
1186976,60,-10,-96,1
1186987,50,-30,-96,0
1186998,111,-36,-124,0
1187009,186,70,-118,0
1187020,161,-4,4,0
1187031,61,-198,187,0
1187042,-36,-225,276,0
1187053,-79,-82,331,0
1187064,-97,118,511,0
1187075,-92,136,511,1
1187086,-13,158,511,0
1187097,46,100,511,0
1187108,7,62,487,0
1187119,-56,35,462,0
1187130,-114,31,453,0
1187141,-138,48,479,0
1187152,-124,71,496,0
1187163,-102,77,477,0
1187174,-71,76,412,0
1187185,-37,79,343,0
1187196,-13,83,289,0
1187207,-10,67,255,0
1187218,-1,46,164,0
1187229,13,73,125,0
1187240,15,91,95,0
1187251,16,73,53,0
1187262,31,-2,45,0
1187273,100,-50,38,0
1187284,138,12,-9,0
1187295,160,13,-14,0
1187306,182,-3,-17,0
1187317,192,23,-31,0
1187328,191,46,-25,0
1187339,190,11,-15,1
1187350,182,-1,-15,0
1187361,153,-29,-23,0
1187372,40,-28,-27,0
1187383,61,-83,5,0
1187394,162,-115,194,0
1187405,127,-4,341,0
1187416,57,166,402,0
1187427,50,-45,417,0
1187438,-46,-18,339,0
1187449,-117,-27,350,0
1187460,-65,-58,338,0
1187471,-54,-33,398,0
1187482,-90,45,453,0
1187493,-126,62,448,0
1187504,-110,42,428,0
1187515,-90,47,451,0
1187526,-89,83,492,0
1187537,-98,91,481,0
1187548,-107,87,439,0
1187559,-102,86,394,0
1187570,-88,73,339,0
1187581,-67,59,298,0
1187593,-30,64,268,0
1187604,-2,78,257,0
1187615,4,107,271,0
1187626,15,111,257,0
1187637,26,98,239,0
1187648,45,68,223,0
1187659,63,52,206,0
1187670,58,56,132,0
1187681,55,41,93,0
1187692,57,11,45,0
1187703,56,-1,-5,1
1187714,41,1,-48,0
1187725,14,-1,-78,0
1187736,-9,-18,-91,0
1187747,-32,-17,-91,0
1187758,-47,-2,-76,0
1187769,-5,1,-75,0
1187780,112,86,-77,0
1187791,163,87,-13,0
1187802,90,-127,163,0
1187813,8,-263,299,0
1187824,-64,43,394,0
1187835,-106,111,511,0
1187846,-71,124,511,0
1187857,13,107,511,0
1187868,56,97,511,0
1187879,69,94,511,0
1187890,46,44,432,0
1187901,14,40,398,0
1187912,0,64,443,0
1187923,-25,61,447,0
1187934,-49,50,440,0
1187945,-55,42,411,0
1187956,-44,46,370,0
1187967,-15,33,263,0
1187979,-6,19,225,0
1187990,-12,8,194,0
1188001,-7,3,164,0
1188012,7,19,152,0
1188023,33,36,129,0
1188034,59,68,115,0
1188045,94,42,81,0
1188056,134,27,27,0
1188067,150,20,1,0
1188078,140,2,-27,0
1188089,138,-18,-40,1
1188100,143,-27,-41,0
1188111,145,-23,-31,0
1188122,106,-36,-35,0
1188133,106,-33,-32,0
1188144,172,-99,77,0
1188155,246,-75,186,0
1188166,191,-20,244,0
1188177,94,73,186,0
1188189,58,-37,254,0
1188200,-51,-30,305,0
1188211,-104,-43,414,0
1188222,-201,-38,510,0
1188233,-251,-2,505,0
1188244,-256,41,468,0
1188255,-152,21,387,0
1188266,-113,29,389,0
1188277,-96,48,424,0
1188288,-91,70,452,0
1188299,-87,88,450,0
1188310,-72,84,410,0
1188321,-47,74,351,0
1188332,-15,42,289,0
1188343,9,41,276,0
1188354,25,64,294,0
1188365,38,86,286,0
1188376,45,109,264,0
1188387,50,76,236,0
1188398,57,52,204,0
1188409,57,40,172,0
1188420,44,37,130,0
1188431,35,37,81,0
1188442,54,17,24,0
1188453,64,1,-31,0
1188464,60,-4,-64,0
1188475,42,-28,-83,0
1188486,4,-40,-110,1
1188497,-40,-34,-104,0
1188508,-18,-9,-78,0
1188519,52,43,-45,0
1188530,88,25,42,0
1188541,64,-59,139,0
1188552,45,-107,221,0
1188563,5,-20,353,0
1188574,-64,24,509,0
1188585,-85,82,511,0
1188596,-40,114,511,0
1188607,30,102,511,1
1188618,56,104,511,0
1188629,51,102,511,0
1188640,25,91,457,0
1188651,12,88,471,0
1188662,6,61,442,0
1188673,-1,25,410,0
1188684,-7,2,389,0
1188695,-19,-2,361,0
1188706,-24,-2,330,0
1188717,-24,-12,289,0
1188728,-10,-9,227,0
1188739,16,12,197,0
1188750,57,47,148,0
1188761,85,78,102,0
1188772,94,62,58,0
1188783,144,6,16,0
1188794,164,18,-33,0
1188805,140,-4,-67,0
1188816,129,-30,-87,0
1188827,132,-43,-83,0
1188838,126,-41,-67,0
1188849,110,-37,-59,0
1188860,84,-40,-53,1
1188871,67,-33,-51,0
1188882,77,-52,-6,0
1188893,159,-82,155,0
1188904,145,-37,235,0
1188915,81,75,231,0
1188926,50,26,317,0
1188937,-34,-28,311,0
1188948,-98,-61,372,0
1188959,-157,-56,448,0
1188970,-182,-20,478,1
1188981,-198,31,493,0
1188992,-189,66,503,0
1189003,-158,44,459,0
1189014,-117,47,448,0
1189025,-90,62,470,0
1189036,-74,87,445,0
1189047,-58,78,402,0
1189058,-36,62,350,0
1189069,-13,49,332,0
1189080,-4,63,337,0
1189091,0,91,351,0
1189102,7,100,326,0
1189113,9,92,279,0
1189124,20,55,227,0
1189135,31,27,189,0
1189146,45,3,161,0
1189157,50,14,135,0
1189168,57,17,102,0
1189179,62,31,68,0
1189190,49,16,-45,0
1189201,10,-1,-81,1
1189212,-18,-15,-102,0
1189223,-28,-17,-105,0
1189234,-24,-23,-94,0
1189245,-1,-15,-62,0
1189256,106,34,-31,0
1189267,157,19,50,0
1189278,129,-104,137,0
1189289,117,-140,175,0
1189300,101,-128,212,0
1189311,65,-43,304,1
1189322,30,34,459,0
1189333,18,49,511,0
1189344,29,106,511,0
1189355,51,136,511,0
1189366,55,106,511,0
1189377,20,93,472,0
1189388,-5,66,427,0
1189399,-29,37,392,0
1189410,-38,25,374,0
1189421,-56,12,361,0
1189432,-76,9,366,0
1189443,-77,-13,356,0
1189454,-61,-39,325,0
1189465,-26,-55,278,0
1189476,-15,38,196,0
1189487,-10,88,129,0
1189498,96,31,36,0
1189509,118,9,-21,0
1189520,120,-29,-43,0
1189531,121,-46,-65,0
1189542,121,-43,-82,0
1189553,119,-34,-108,0
1189564,120,-27,-103,0
1189575,123,-9,-79,0
1189586,128,-37,-52,1
1189597,129,-68,-20,0
1189608,126,-57,-11,0
1189619,163,-85,86,0
1189630,198,-45,218,0
1189641,99,23,263,0
1189652,-29,18,256,0
1189663,-105,-40,293,0
1189674,-153,-45,406,0
1189685,-219,-11,464,0
1189696,-228,11,499,0
1189707,-197,51,500,0
1189718,-142,60,477,0
1189729,-74,44,427,0
1189740,-15,49,432,0
1189751,0,56,416,0
1189762,1,65,409,0
1189773,4,77,410,0
1189784,9,79,393,0
1189795,9,73,364,0
1189806,16,67,300,0
1189817,11,76,290,0
1189828,8,86,254,0
1189839,2,82,214,0
1189850,0,41,185,0
1189861,17,-4,168,0
1189872,42,-26,155,0
1189883,47,-25,127,0
1189894,42,-20,94,0
1189905,38,-1,60,0
1189916,33,-4,7,1
1189927,18,-20,-41,0
1189938,5,-31,-72,0
1189950,-5,-45,-106,0
1189961,-10,-37,-108,0
1189972,31,-9,-99,0
1189983,119,58,-72,0
1189994,108,7,61,0
1190005,45,-153,194,0
1190016,15,-149,271,0
1190027,32,-22,309,0
1190038,31,45,407,0
1190049,46,33,511,0
1190060,27,27,511,0
1190071,26,44,511,0
1190082,65,68,511,0
1190093,66,47,511,0
1190104,-5,42,440,0
1190115,-47,46,411,0
1190126,-76,65,427,0
1190137,-94,73,423,0
1190148,-117,50,392,0
1190159,-134,41,385,0
1190170,-129,9,357,0
1190181,-98,-32,347,0
1190192,-46,-76,296,0
1190203,-43,79,198,0
1190214,0,16,155,0
1190225,61,10,107,0
1190236,100,47,34,0
1190247,124,30,-19,0
1190258,110,-13,-105,0
1190269,96,-44,-122,0
1190280,109,-53,-120,0
1190291,118,-47,-116,0
1190302,111,-37,-103,0
1190313,113,-40,-86,0
1190324,104,-31,-60,0
1190335,91,-44,-8,1
1190346,79,-32,-7,0
1190357,125,-80,69,0
1190368,212,-173,277,0
1190379,156,49,318,0
1190390,115,119,276,0
1190401,13,45,313,0
1190412,-159,-5,474,0
1190423,-258,31,511,0
1190434,-277,41,511,0
1190445,-250,71,511,0
1190456,-179,45,457,0
1190467,-92,18,385,0
1190478,-47,43,406,0
1190490,-33,74,439,0
1190501,-47,92,453,0
1190512,-44,69,422,0
1190523,-30,60,376,0
1190534,-10,55,350,0
1190545,-6,53,311,0
1190556,-25,79,269,0
1190567,-33,89,246,0
1190578,-25,65,232,0
1190589,3,31,217,0
1190600,19,-1,175,0
1190611,35,-13,144,0
1190622,46,-8,111,0
1190633,51,1,68,0
1190644,64,-7,31,0
1190655,77,-26,-6,0
1190666,63,-27,-50,1
1190677,33,-30,-92,0
1190688,11,-44,-121,0
1190699,-18,-45,-156,0
1190710,-18,-10,-122,0
1190721,60,11,-104,0
1190732,159,105,-51,0
1190743,97,-51,88,0
1190754,16,-247,254,0
1190765,3,-167,332,0
1190776,-30,18,416,0
1190787,-36,107,511,0
1190798,-58,127,511,0
1190809,11,141,511,0
1190820,94,123,511,0
1190831,98,58,511,0
1190842,43,45,422,0
1190853,-14,75,423,0
1190864,-90,70,466,0
1190875,-104,63,439,0
1190886,-98,61,398,0
1190897,-103,52,356,0
1190908,-105,46,318,0
1190919,-89,33,278,0
1190930,-74,31,236,0
1190941,-49,21,202,0
1190952,-20,21,162,0
1190963,-1,47,121,0
1190974,10,77,76,0
1190985,42,26,49,0
1190996,87,6,14,0
1191007,114,5,-34,0
1191018,153,-37,-69,0
1191029,176,-58,-77,0
1191040,180,-40,-68,0
1191051,181,-16,-60,0
1191062,178,-41,-26,0
1191073,184,-49,-1,1
1191084,238,-106,79,0
1191095,229,-24,186,0
1191106,166,66,233,0
1191117,31,67,191,0
1191128,-40,35,222,0
1191139,-133,-19,263,0
1191150,-158,-106,364,0
1191161,-187,-94,423,0
1191172,-221,19,452,0
1191183,-173,75,472,0
1191194,-121,62,452,0
1191205,-74,50,445,0
1191216,-70,54,441,0
1191227,-79,48,431,0
1191238,-97,64,419,0
1191249,-95,73,405,0
1191260,-74,73,384,0
1191271,-57,76,352,0
1191282,-34,84,324,0
1191293,-20,102,313,0
1191304,-7,102,294,0
1191315,12,109,281,0
1191326,52,53,204,0
1191337,61,35,178,0
1191348,63,25,151,0
1191359,67,21,130,0
1191370,67,17,112,0
1191381,56,37,90,0
1191392,50,17,62,0
1191403,51,-3,14,0
1191414,44,-1,-32,0
1191425,20,-1,-72,1
1191436,-3,-10,-106,0
1191448,16,-20,-129,0
1191459,88,50,-139,0
1191470,48,-149,0,0
1191481,9,-175,65,0
1191492,15,-78,122,0
1191503,69,-55,256,0
1191514,131,-2,431,0
1191525,118,25,511,0
1191537,77,75,511,0
1191548,117,150,511,0
1191559,129,113,511,0
1191570,101,34,511,0
1191581,25,25,470,0
1191592,-28,31,438,0
1191603,-58,75,499,0
1191614,-52,44,474,0
1191625,-39,33,429,0
1191636,-28,10,352,0
1191647,-29,1,311,0
1191658,-44,-13,272,0
1191669,-44,-15,213,0
1191680,-55,-6,137,0
1191691,-53,7,86,0
1191702,-27,32,66,0
1191713,11,48,34,0
1191724,44,54,28,0
1191735,52,14,22,0
1191746,72,-35,5,0
1191757,148,-33,-95,0
1191769,144,4,-120,0
1191780,149,-50,-113,0
1191791,163,-25,-86,0
1191802,158,-3,-62,0
1191813,116,-9,-42,0
1191824,125,-37,-18,1
1191835,196,-113,167,0
1191846,172,38,301,0
1191857,71,103,347,0
1191868,-24,104,413,0
1191879,-73,52,382,0
1191890,-141,-40,392,0
1191901,-174,-70,338,0
1191912,-141,-20,320,0
1191923,-125,33,319,0
1191934,-96,34,333,0
1191945,-54,26,353,0
1191956,-23,34,393,0
1191967,-7,54,430,0
1191978,-2,80,450,0
1191989,-11,89,434,0
1192000,-13,80,386,0
1192011,-18,44,320,0
1192022,-26,43,288,0
1192033,-33,57,286,0
1192044,-40,83,283,0
1192055,-25,90,251,0
1192066,-14,69,220,0
1192077,0,28,192,0
1192088,17,16,170,0
1192099,25,15,137,0
1192110,30,8,104,0
1192121,33,-2,64,0
1192132,29,-19,8,0
1192143,20,-45,-41,0
1192154,3,-56,-69,0
1192165,-11,-57,-78,0
1192176,-23,-60,-85,1
1192187,-18,-61,-89,0
1192198,-2,-36,-85,0
1192209,54,-13,-80,0
1192220,165,5,75,0
1192231,75,-203,262,0
1192243,56,-215,310,0
1192254,45,-37,300,0
1192265,10,101,456,0
1192276,56,102,511,0
1192287,106,98,511,0
1192298,170,112,511,0
1192309,231,77,511,0
1192320,229,94,511,0
1192331,154,80,450,0
1192342,71,56,396,0
1192353,8,63,388,0
1192364,-60,78,409,0
1192375,-70,77,403,0
1192386,-73,73,382,0
1192397,-66,59,352,0
1192408,-58,39,319,0
1192419,-66,24,286,0
1192430,-79,-2,241,0
1192441,-88,-23,197,0
1192452,-75,-39,138,0
1192463,-47,-49,83,0
1192474,-2,-51,42,0
1192485,36,-35,11,0
1192496,65,-26,-18,0
1192507,65,-24,-42,0
1192518,62,-9,-66,0
1192529,64,-17,-80,1
1192540,61,-20,-97,0
1192551,55,-24,-87,0
1192562,52,-22,-55,0
1192573,41,-13,-7,0
1192584,28,8,22,0
1192595,50,-8,27,0
1192606,108,-79,142,0
1192617,166,-179,278,0
1192628,146,183,269,0
1192639,144,38,365,1
1192650,115,95,400,0
1192661,35,75,410,0
1192672,-92,33,493,0
1192683,-68,35,508,0
1192694,-62,44,462,0
1192705,-40,39,432,0
1192716,7,56,434,0
1192727,32,68,447,0
1192738,37,77,447,0
1192749,20,93,450,0
1192760,0,88,416,0
1192771,-28,80,385,0
1192782,-42,72,348,0
1192793,-49,72,319,0
1192804,-64,64,292,0
1192815,-80,69,281,0
1192826,-78,73,261,0
1192837,-70,71,229,0
1192848,-77,44,195,0
1192859,-69,15,171,0
1192870,-42,6,146,0
1192881,-28,6,107,0
1192892,-27,-4,63,0
1192903,-27,-24,21,0
1192914,-16,-32,-18,1
1192925,-1,-21,-51,0
1192936,3,-13,-72,0
1192947,8,-23,-80,0
1192958,8,-36,-81,0
1192969,13,-31,-84,0
1192980,137,-12,-57,0
1192991,135,-87,47,0
1193002,62,-197,181,0
1193013,40,-127,238,0
1193024,44,14,252,0
1193035,60,62,429,0
1193046,89,97,511,0
1193057,77,109,511,0
1193068,99,156,511,0
1193079,112,131,511,0
1193090,99,108,511,0
1193101,37,87,511,0
1193112,-20,69,479,0
1193123,-55,59,456,0
1193134,-56,70,442,0
1193145,-48,62,405,0
1193156,-29,43,356,0
1193167,-33,35,280,0
1193178,-62,10,239,0
1193189,-90,-19,216,0
1193200,-97,-37,190,0
1193211,-80,-49,140,0
1193222,-60,-13,88,0
1193233,-30,13,56,0
1193244,-3,33,34,0
1193255,24,30,14,0
1193266,47,13,-22,0
1193277,61,2,-43,0
1193288,78,1,-72,1
1193299,84,-10,-83,0
1193310,90,-7,-82,0
1193321,92,-20,-55,0
1193332,106,-32,-38,0
1193343,116,-18,-25,0
1193354,147,-79,64,0
1193365,250,-181,191,0
1193376,172,65,237,0
1193387,68,20,254,0
1193398,52,50,224,1
1193409,-57,-6,288,0
1193420,-109,9,390,0
1193431,-174,8,479,0
1193442,-224,38,511,0
1193453,-156,53,441,0
1193464,-87,48,425,0
1193475,-42,15,384,0
1193486,4,22,374,0
1193497,23,22,360,0
1193508,23,28,352,0
1193519,17,16,340,0
1193530,6,6,314,0
1193541,6,2,296,0
1193552,6,10,301,0
1193563,8,23,299,0
1193574,-2,33,286,0
1193585,-19,42,268,0
1193596,-31,24,231,0
1193608,-24,19,187,0
1193619,-13,15,139,0
1193630,-1,7,103,0
1193641,9,6,80,0
1193652,19,5,57,0
1193663,19,-3,23,0
1193674,26,-13,0,1
1193685,48,-12,-23,0
1193696,66,-6,-48,0
1193707,72,4,-69,0
1193718,65,13,-82,0
1193729,41,3,-78,0
1193740,68,-31,-77,0
1193751,176,-128,3,0
1193762,40,-229,203,0
1193773,18,-247,350,0
1193784,-48,-128,375,0
1193795,-101,-4,486,0
1193806,-145,135,511,0
1193817,-106,188,511,0
1193828,9,116,511,0
1193839,108,29,511,0
1193850,90,-17,453,0
1193861,54,-22,416,0
1193872,21,-39,389,0
1193884,-10,38,411,0
1193895,11,49,411,0
1193906,22,56,393,0
1193917,43,51,374,0
1193928,60,39,331,0
1193939,47,45,302,0
1193950,34,20,271,0
1193961,11,7,242,0
1193972,-8,-12,186,0
1193984,-1,-31,137,0
1193995,6,-39,97,0
1194006,24,-30,75,0
1194017,49,-18,69,0
1194028,71,-44,10,0
1194039,76,-20,-36,0
1194050,75,17,-70,1
1194061,72,45,-96,0
1194072,63,60,-112,0
1194083,34,62,-102,0
1194094,6,49,-81,0
1194105,-2,21,-62,0
1194116,9,-15,-34,0
1194127,43,-16,8,0
1194138,40,22,63,0
1194149,53,1,130,0
1194160,111,39,173,0
1194171,109,43,262,0
1194182,96,5,496,0
1194193,128,-97,511,0
1194204,191,-29,511,0
1194215,185,48,511,0
1194226,122,86,511,0
1194237,91,118,436,0
1194248,67,65,315,0
1194259,17,67,319,0
1194270,-42,45,370,0
1194281,-30,70,427,0
1194292,-34,76,450,0
1194303,-10,88,461,0
1194314,36,95,462,0
1194325,67,83,431,0
1194336,92,73,385,0
1194347,121,71,321,0
1194358,123,71,306,0
1194369,105,82,280,0
1194380,61,114,264,0
1194391,6,116,212,0
1194402,-37,109,166,0
1194413,-62,127,152,0
1194424,-74,124,138,0
1194435,-72,111,119,0
1194446,-68,95,105,0
1194457,-58,63,90,0
1194468,-37,22,72,1
1194479,-18,1,42,0
1194490,3,11,3,0
1194501,32,19,-46,0
1194512,45,27,-70,0
1194523,55,42,-79,0
1194534,60,56,-71,0
1194545,45,79,-40,0
1194556,54,90,6,0
1194567,47,69,94,0
1194578,5,36,213,0
1194589,-48,-24,346,0
1194600,-119,-28,413,0
1194611,-217,3,471,0
1194622,-307,38,511,0
1194633,-254,47,511,0
1194644,-122,45,511,0
1194655,-41,22,498,0
1194666,-30,-25,401,0
1194677,-29,-26,406,0
1194688,-40,-16,424,0
1194699,-61,-50,372,0
1194710,-87,-51,362,0
1194721,-111,-59,370,0
1194732,-118,-51,353,0
1194743,-118,-34,321,0
1194754,-112,-28,272,0
1194765,-100,-24,240,0
1194776,-85,-18,233,0
1194787,-59,-14,205,0
1194798,-34,25,144,0
1194809,6,2,97,0
1194820,24,-24,38,0
1194831,41,-56,5,0
1194842,56,-59,-33,0
1194853,62,-48,-63,0
1194864,75,-46,-92,1
1194875,88,-20,-112,0
1194886,82,1,-116,0
1194897,61,7,-120,0
1194908,47,-4,-102,0
1194919,76,-99,-33,0
1194930,136,-73,-15,0
1194941,129,-57,98,0
1194952,168,-21,152,0
1194963,145,11,268,0
1194974,70,114,398,0
1194985,-23,134,511,0
1194996,-109,154,511,0
1195007,-219,88,511,0
1195018,-275,57,505,0
1195029,-232,20,422,0
1195040,-179,-7,378,0
1195051,-127,19,401,0
1195062,-97,47,411,0
1195073,-79,75,430,0
1195084,-78,55,390,0
1195095,-90,36,342,0
1195106,-82,9,301,0
1195117,-46,-10,292,0
1195128,-19,-17,320,0
1195140,10,6,334,0
1195151,48,29,316,0
1195162,28,103,274,0
1195173,25,75,252,0
1195184,40,46,216,0
1195195,29,47,185,0
1195206,12,39,130,0
1195217,12,22,81,0
1195228,19,40,60,0
1195239,34,24,43,1
1195250,38,7,21,0
1195261,13,-18,-52,0
1195272,-13,-39,-70,0
1195283,-29,-44,-78,0
1195294,26,-28,-77,0
1195305,79,-16,-54,0
1195316,71,-83,29,0
1195327,33,-174,120,0
1195338,21,-131,187,0
1195349,-10,-77,260,0
1195360,-25,-21,336,0
1195371,-54,32,439,0
1195382,-90,55,511,0
1195393,-74,107,511,0
1195404,-17,97,511,0
1195415,-9,32,464,0
1195426,-37,57,465,0
1195437,-53,53,455,0
1195448,-57,40,442,0
1195459,-50,33,415,0
1195470,-21,42,404,0
1195481,12,37,381,0
1195492,28,31,332,0
1195503,21,33,274,0
1195514,14,26,237,0
1195525,3,28,220,0
1195536,-3,25,191,0
1195547,-9,41,162,0
1195558,-27,56,148,0
1195569,23,30,57,0
1195580,49,8,20,0
1195591,72,16,-11,0
1195602,86,22,-26,0
1195613,94,-3,-28,0
1195624,117,-19,-34,1
1195635,129,-18,-29,0
1195646,126,-24,-31,0
1195657,120,-19,-31,0
1195668,116,-33,-6,0
1195679,109,-16,-19,0
1195690,203,-78,99,0
1195701,243,-96,310,0
1195712,157,47,327,0
1195724,79,-19,263,0
1195735,-12,-34,297,0
1195746,-75,-45,368,0
1195757,-155,-50,456,0
1195768,-211,-3,468,0
1195779,-214,43,462,0
1195790,-178,45,465,0
1195801,-111,41,451,0
1195812,-54,53,449,0
1195824,-26,64,447,0
1195835,-25,66,435,0
1195846,-41,49,355,0
1195857,-41,35,316,0
1195868,-36,36,297,0
1195879,-34,55,294,0
1195890,-44,83,298,0
1195901,-33,88,281,0
1195912,-8,81,257,0
1195923,18,66,221,0
1195934,40,60,199,0
1195945,60,52,185,0
1195956,75,53,154,0
1195967,78,50,119,0
1195978,89,18,75,0
1195989,100,19,25,0
1196000,60,24,-59,1
1196011,22,4,-99,0
1196022,-18,-20,-105,0
1196033,-56,-28,-78,0
1196044,-44,-29,-70,0
1196056,71,49,-75,0
1196067,148,93,-35,0
1196078,88,-86,114,0
1196089,22,-279,251,0
1196100,54,-190,298,0
1196111,28,-10,403,0
1196122,-17,63,511,0
1196133,-21,121,511,0
1196144,70,113,511,0
1196155,72,86,511,0
1196166,42,57,454,0
1196177,-3,9,373,0
1196188,-31,36,444,0
1196199,-47,18,435,0
1196210,-55,6,396,0
1196221,-47,11,360,0
1196232,-29,16,330,0
1196243,-29,19,314,0
1196254,-23,-1,292,0
1196265,-3,-34,256,0
1196276,17,4,182,0
1196287,8,84,145,0
1196298,52,-2,121,0
1196309,107,-14,82,0
1196320,110,37,16,0
1196331,88,29,-10,0
1196342,85,-5,-27,0
1196353,100,-37,-38,0
1196364,101,-20,-41,0
1196375,103,2,-32,0
1196386,97,-48,-31,1
1196397,85,-15,-37,0
1196408,73,-8,-25,0
1196419,58,-31,-22,0
1196430,104,-62,22,0
1196441,162,-87,239,0
1196452,62,81,270,0
1196463,10,24,317,0
1196474,-55,-22,341,0
1196485,-100,-51,400,0
1196496,-149,-34,435,0
1196507,-147,-14,434,0
1196518,-133,8,419,0
1196529,-125,24,387,0
1196540,-84,25,400,0
1196551,-46,34,415,0
1196562,-24,59,449,0
1196573,-18,92,462,0
1196584,-18,105,458,0
1196595,-14,106,425,0
1196606,-12,76,372,0
1196617,-21,78,358,0
1196628,-30,85,335,0
1196639,-19,95,313,0
1196650,-7,78,284,0
1196661,-10,61,249,0
1196672,-6,28,227,0
1196683,19,15,197,0
1196694,31,22,143,0
1196705,39,28,88,0
1196716,45,16,29,0
1196727,36,-7,-18,0
1196738,10,-26,-59,1
1196749,-20,-47,-79,0
1196760,-56,-58,-114,0
1196771,-54,-22,-89,0
1196782,-34,6,-63,0
1196793,-1,13,-15,0
1196804,114,22,-13,0
1196815,237,122,18,0
1196826,170,-32,152,0
1196837,121,-218,270,0
1196848,116,-119,288,0
1196859,72,30,351,0
1196870,34,73,494,0
1196881,53,71,511,0
1196892,69,14,511,0
1196903,67,37,511,0
1196914,38,62,511,0
1196925,9,89,508,0
1196936,-19,99,511,0
1196947,-57,100,508,0
1196958,-90,96,482,0
1196969,-120,89,437,0
1196980,-145,79,391,0
1196991,-159,60,337,0
1197003,-168,40,280,0
1197014,-164,-3,244,0
1197025,-109,-90,215,0
1197036,-40,-106,159,0
1197047,-38,39,91,0
1197058,69,15,95,0
1197069,113,-13,61,0
1197080,152,-59,20,0
1197091,187,-67,-15,0
1197102,184,-16,-66,0
1197113,177,-50,-86,0
1197124,174,-30,-92,1
1197135,139,19,-106,0
1197146,106,-16,-91,0
1197157,64,25,-74,0
1197168,14,22,-57,0
1197179,-14,17,-30,0
1197190,-39,-61,-1,0
1197201,52,-264,201,0
1197212,68,142,369,0
1197223,120,8,374,0
1197234,22,35,330,0
1197245,-121,11,392,0
1197256,-172,67,493,0
1197267,-182,81,511,0
1197278,-141,88,511,0
1197289,-161,35,424,0
1197300,-93,38,357,0
1197311,-19,16,335,0
1197322,29,38,378,0
1197333,49,68,398,0
1197344,52,75,406,0
1197355,49,62,400,0
1197366,12,14,328,0
1197377,-3,-7,287,0
1197388,-24,-14,256,0
1197399,-43,10,245,0
1197410,-45,29,215,0
1197421,-42,48,203,0
1197432,-28,45,190,0
1197443,-1,38,183,0
1197454,23,10,164,0
1197466,45,-19,146,0
1197477,65,-29,125,0
1197488,85,-33,85,0
1197499,95,-62,-20,0
1197510,64,-57,-73,0
1197521,21,-34,-104,0
1197532,-2,-8,-85,0
1197543,-27,18,-63,0
1197554,-14,21,-55,0
1197565,25,7,-36,0
1197576,60,-1,25,1
1197587,55,-107,125,0
1197598,50,-140,198,0
1197609,35,-79,221,0
1197620,-3,21,319,0
1197631,-47,34,491,0
1197642,-80,28,511,0
1197653,-129,103,511,0
1197664,-106,115,511,0
1197675,-107,124,511,0
1197686,-116,111,511,1
1197697,-102,95,486,0
1197708,-84,56,423,0
1197719,-71,50,396,0
1197730,-46,29,354,0
1197741,-43,22,332,0
1197752,-64,6,327,0
1197763,-72,-29,306,0
1197774,-63,-53,271,0
1197785,-50,-43,211,0
1197796,-33,-27,161,0
1197807,20,4,62,0
1197818,42,14,16,0
1197829,46,19,-19,0
1197840,37,13,-51,0
1197851,23,-4,-68,0
1197862,8,-36,-64,0
1197873,10,-60,-66,0
1197884,23,-51,-57,0
1197895,21,-36,-34,0
1197906,23,-29,-19,1
1197917,24,-35,-11,0
1197928,41,-46,4,0
1197939,139,-137,115,0
1197950,220,-263,361,0
1197961,142,127,333,0
1197972,106,139,327,0
1197983,50,61,286,0
1197994,-25,-42,329,0
1198005,-67,34,414,0
1198016,-89,-1,424,0
1198027,-78,2,388,0
1198038,-59,17,365,0
1198049,-30,42,389,0
1198060,7,50,438,0
1198071,26,61,463,0
1198082,12,80,466,0
1198093,-28,73,442,0
1198104,-71,74,411,0
1198115,-118,59,331,0
1198126,-110,35,294,0
1198137,-92,26,284,0
1198148,-66,29,291,0
1198159,-40,47,297,0
1198170,-12,46,271,0
1198182,-1,60,244,0
1198193,1,41,222,0
1198204,18,-1,212,0
1198215,28,-20,188,0
1198226,28,-28,148,0
1198237,40,-41,93,0
1198248,43,-53,31,0
1198259,21,-88,-77,0
1198270,-3,-73,-104,0
1198281,-26,-52,-109,1
1198292,-24,-41,-101,0
1198303,13,-33,-75,0
1198314,64,-20,-24,0
1198325,99,-53,58,0
1198336,116,-65,147,0
1198347,85,-68,217,0
1198358,111,-3,266,0
1198369,100,58,362,0
1198380,76,71,511,0
1198391,24,61,511,0
1198402,9,89,511,0
1198413,51,65,511,0
1198424,52,81,511,0
1198435,37,66,487,0
1198446,12,38,431,0
1198457,-6,42,416,0
1198468,-7,40,403,0
1198479,-7,25,370,0
1198490,-23,-1,340,0
1198502,-30,-32,313,0
1198513,-32,-38,274,0
1198524,-36,-26,231,0
1198535,-34,-19,184,0
1198546,-25,-7,125,0
1198557,-1,40,11,0
1198568,24,9,-34,0
1198579,41,-4,-68,0
1198590,51,-9,-84,0
1198601,54,-13,-89,0
1198612,53,-26,-95,0
1198623,53,-41,-110,0
1198634,57,-53,-102,0
1198645,76,-64,-76,0
1198656,96,-65,-38,0
1198667,97,-35,-10,0
1198678,86,-20,5,1
1198690,183,-163,272,0
1198701,148,73,250,0
1198712,70,159,239,0
1198723,30,129,291,0
1198734,-24,74,390,0
1198745,-87,50,511,0
1198756,-145,25,511,0
1198767,-145,32,511,0
1198778,-112,18,507,0
1198789,-74,-4,408,0
1198800,-34,-12,376,0
1198811,8,4,400,0
1198822,28,25,429,0
1198833,20,42,426,0
1198844,-9,65,399,0
1198855,-22,74,377,0
1198866,-27,60,339,0
1198877,-22,61,325,0
1198888,-30,60,303,0
1198899,-47,61,292,0
1198910,-56,67,279,0
1198921,-57,45,232,0
1198932,-49,6,194,0
1198943,-28,-18,179,0
1198954,-5,-34,144,0
1198965,-3,-20,100,0
1198976,1,-12,54,0
1198987,14,-18,7,0
1198998,24,-34,-78,1
1199009,17,-53,-113,0
1199020,5,-67,-128,0
1199031,-5,-62,-125,0
1199042,-5,-40,-122,0
1199053,30,-45,-109,0
1199064,122,-14,-92,0
1199075,126,-37,20,0
1199086,40,-198,165,0
1199097,36,-190,255,0
1199108,50,-37,314,0
1199119,59,84,511,0
1199130,37,118,511,0
1199141,49,205,511,0
1199152,158,44,511,0
1199163,81,93,504,0
1199174,13,78,444,0
1199185,-44,32,394,0
1199196,-56,29,404,0
1199207,-53,39,397,0
1199218,-37,25,367,0
1199229,-24,8,317,0
1199240,-26,-14,280,0
1199251,-34,-20,255,0
1199262,-32,-28,232,0
1199273,-26,-19,209,0
1199284,4,-6,177,0
1199295,33,24,141,0
1199306,61,35,23,0
1199317,60,14,-20,0
1199328,57,-12,-54,0
1199339,46,-27,-80,0
1199350,49,-50,-93,0
1199361,55,-47,-94,0
1199372,60,-31,-97,0
1199383,51,-15,-98,1
1199394,43,-11,-84,0
1199405,30,-19,-55,0
1199416,38,-14,-45,0
1199427,55,4,-26,0
1199438,85,-86,63,0
1199449,99,-101,115,0
1199460,49,37,307,0
1199471,4,70,443,0
1199482,-67,70,511,0
1199493,-196,95,511,0
1199504,-271,99,511,0
1199515,-216,119,511,0
1199526,-146,55,462,0
1199537,-95,0,382,0
1199548,-44,4,355,0
1199559,-14,30,377,0
1199570,-3,47,406,0
1199581,12,72,418,0
1199592,20,73,398,0
1199603,35,79,386,0
1199614,20,84,338,0
1199625,11,76,308,0
1199636,-16,77,275,0
1199647,-44,61,258,0
1199658,-59,32,239,0
1199669,-39,39,235,0
1199680,-20,36,207,0
1199691,3,24,154,0
1199702,27,19,91,0
1199713,39,21,38,0
1199724,36,-17,-21,0
1199735,29,-48,-78,0
1199746,14,-44,-124,0
1199757,1,-37,-144,1
1199768,1,1,-141,0
1199779,18,31,-104,0
1199790,107,38,-82,0
1199801,210,113,-48,0
1199812,131,-78,84,0
1199823,52,-291,210,0
1199834,51,-206,256,0
1199845,14,-32,310,0
1199856,-27,60,510,0
1199867,-53,99,511,0
1199878,-7,123,511,0
1199889,39,82,511,0
1199900,28,58,510,0
1199911,0,64,456,0
1199922,-67,73,441,0
1199933,-75,75,459,0
1199944,-85,64,450,0
1199955,-88,45,414,0
1199966,-84,40,380,0
1199977,-86,40,351,0
1199988,-75,35,333,0
1199999,-74,22,296,0
1200010,-48,-17,254,0
1200021,-9,-66,213,0
1200032,-8,68,110,0
1200043,-27,62,70,0
1200054,4,29,36,0
1200065,32,34,-4,0
1200076,84,-5,-27,0
1200087,113,-30,-47,0
1200098,145,-49,-72,0
1200110,177,-48,-85,0
1200121,188,-33,-93,0
1200132,192,-29,-70,0
1200143,198,-31,-21,1
1200154,212,-35,-6,0
1200165,221,-59,31,0
1200176,223,-5,139,0
1200187,194,44,259,0
1200198,99,87,236,0
1200209,57,66,283,0
1200220,-142,-88,352,0
1200231,-182,-45,434,0
1200242,-203,-33,437,0
1200253,-186,-12,455,0
1200264,-159,82,511,0
1200275,-132,71,499,0
1200286,-113,39,404,0
1200297,-125,44,417,0
1200308,-144,69,442,0
1200319,-155,91,439,0
1200330,-172,82,416,0
1200341,-171,83,369,0
1200352,-154,85,339,0
1200363,-117,73,315,0
1200374,-29,90,276,0
1200385,-2,117,264,0
1200396,60,110,261,0
1200407,55,102,241,0
1200418,83,72,196,0
1200429,101,43,163,0
1200440,112,25,135,0
1200451,109,6,83,0
1200462,97,-7,47,0
1200473,98,-25,12,0
1200484,96,-24,-21,0
1200495,93,-3,-55,1
1200506,74,8,-79,0
1200517,43,5,-90,0
1200528,26,-22,-102,0
1200539,112,62,-104,0
1200550,139,45,-26,0
1200561,27,-140,93,0
1200572,-52,-221,164,0
1200583,-63,-72,223,0
1200594,-52,11,390,0
1200605,-29,52,511,0
1200616,-55,91,511,0
1200627,-7,148,511,0
1200638,91,201,511,0
1200649,96,89,511,0
1200660,35,60,433,0
1200671,-16,45,390,0
1200682,-97,53,418,0
1200693,-97,62,429,0
1200704,-86,52,406,0
1200715,-73,64,377,0
1200726,-66,63,332,0
1200737,-62,54,302,0
1200748,-57,40,268,0
1200759,-24,10,224,0
1200770,1,1,175,0
1200781,16,0,133,0
1200792,45,14,100,0
1200803,65,47,42,0
1200814,91,46,6,0
1200825,121,34,1,0
1200836,169,-38,-50,1
1200847,163,4,-81,0
1200858,147,-16,-70,0
1200869,156,-16,-53,0
1200880,161,2,-26,0
1200891,154,-7,-1,0
1200902,147,-24,41,0
1200913,145,5,69,0
1200924,132,34,156,0
1200935,103,-4,271,0
1200946,27,59,303,0
1200957,-30,39,355,0
1200968,-69,-7,394,0
1200979,-88,-89,419,0
1200990,-58,-83,382,0
1201001,-43,-35,386,0
1201012,-41,36,435,0
1201023,-49,49,441,0
1201034,-64,30,416,0
1201045,-84,41,440,0
1201056,-101,54,459,0
1201067,-133,66,474,0
1201078,-155,55,452,0
1201089,-154,53,399,0
1201100,-129,44,340,0
1201111,-87,40,292,0
1201122,-28,46,272,0
1201133,18,66,260,0
1201144,69,79,269,0
1201155,80,80,270,0
1201166,109,69,236,0
1201177,140,66,189,0
1201188,136,58,157,0
1201199,117,55,124,0
1201210,97,39,70,0
1201221,81,36,21,1
1201232,52,47,-19,0
1201243,20,44,-61,0
1201254,-10,20,-96,0
1201265,-28,0,-120,0
1201276,-43,-10,-120,0
1201287,-39,-12,-92,0
1201299,191,157,-116,0
1201310,187,14,7,0
1201321,90,-370,201,0
1201332,13,-373,260,0
1201343,-61,-164,325,0
1201354,-110,34,506,0
1201365,-59,149,511,0
1201376,48,186,511,0
1201387,112,198,511,0
1201398,121,135,511,0
1201409,65,41,451,0
1201420,-8,-7,342,0
1201431,-68,16,392,0
1201442,-86,42,479,0
1201453,-78,36,457,0
1201464,-47,42,431,0
1201475,-11,41,388,0
1201486,9,45,348,0
1201497,22,26,293,0
1201508,29,11,232,0
1201519,32,17,183,0
1201530,26,24,143,0
1201541,13,15,105,0
1201552,8,11,76,0
1201563,25,9,48,0
1201574,37,16,28,0
1201585,58,11,25,0
1201596,92,-44,11,0
1201607,96,-13,-12,1
1201618,99,-21,-11,0
1201629,121,-26,0,0
1201640,140,0,-1,0
1201651,140,-4,-11,0
1201662,149,-11,-15,0
1201673,173,-9,60,0
1201684,110,41,130,0
1201695,73,9,156,0
1201706,-6,20,219,0
1201717,-72,2,304,0
1201728,-84,9,370,0
1201739,-61,-51,417,0
1201750,-37,-38,397,0
1201761,-64,19,383,0
1201772,-78,59,415,0
1201783,-76,61,439,0
1201794,-61,49,449,0
1201805,-57,24,423,0
1201816,-54,33,400,0
1201827,-54,47,385,0
1201838,-50,63,381,0
1201849,-30,65,406,0
1201860,5,82,393,0
1201871,23,89,367,0
1201882,36,85,329,0
1201893,51,73,297,0
1201904,73,77,227,0
1201915,84,56,196,0
1201926,86,18,177,0
1201937,84,14,141,0
1201947,81,26,95,0
1201957,77,10,45,0
1201968,55,7,-4,0
1201979,24,8,-40,1
1201990,-21,12,-70,0
1202001,-67,16,-74,0
1202012,-90,6,-75,0
1202023,-76,19,-61,0
1202033,8,30,-21,0
1202043,67,-6,53,0
1202053,96,-81,120,0
1202063,75,-196,194,0
1202074,83,-213,283,0
1202084,96,-91,379,0
1202094,84,7,511,0
1202105,86,93,511,0
1202116,108,106,511,1
1202127,109,103,511,0
1202137,102,99,511,0
1202147,70,68,438,0
1202157,30,48,402,0
1202167,-10,6,363,0
1202177,-44,-29,352,0
1202187,-45,-32,372,0
1202197,-53,-15,379,0
1202208,-48,-24,349,0
1202219,-32,-6,324,0
1202230,-22,0,279,0
1202240,-16,29,249,0
1202250,2,60,214,0
1202260,16,69,177,0
1202271,14,27,155,0
1202281,26,-38,114,0
1202291,26,1,70,0
1202301,25,35,56,0
1202312,21,38,15,0
1202323,41,-19,-13,0
1202333,55,-36,-47,0
1202343,67,-67,-58,1
1202354,77,-56,-52,0
1202364,74,-47,-35,0
1202375,68,-41,-30,0
1202385,82,-36,-5,0
1202395,124,-13,73,0
1202406,155,47,162,0
1202417,156,-4,182,0
1202427,98,25,269,0
1202437,48,11,358,0
1202447,19,-11,405,0
1202457,21,-11,477,0
1202467,5,-2,477,0
1202477,-20,-4,453,0
1202487,-56,14,423,0
1202497,-67,38,394,0
1202508,-49,33,386,0
1202519,-32,48,383,0
1202530,-26,47,380,0
1202540,-42,54,380,0
1202550,-62,62,374,0
1202560,-76,50,338,0
1202570,-79,44,308,0
1202580,-67,38,287,0
1202590,-29,23,278,0
1202601,16,6,247,0
1202612,49,58,234,0
1202623,67,62,223,0
1202633,73,52,210,0
1202643,73,52,210,0
1202653,91,22,222,0
1202663,94,16,207,0
1202674,40,29,108,0
1202684,40,29,108,0
1202694,34,-9,54,0
1202705,-5,3,-24,0
1202716,-51,0,-42,0
1202726,-100,-21,-43,0
1202736,-111,-21,-37,1
1202747,-72,1,-13,0
1202757,-34,18,54,0
1202767,-19,2,122,0
1202778,-7,-24,162,0
1202788,11,-24,192,0
1202799,51,-10,256,0
1202810,62,19,369,0
1202821,51,32,511,0
1202832,34,67,511,0
1202842,44,110,511,0
1202853,76,128,511,0
1202863,116,123,511,0
1202874,113,74,463,0
1202884,92,59,433,0
1202895,60,13,387,0
1202906,35,-5,364,0
1202917,13,7,363,0
1202928,-7,6,347,0
1202938,-50,2,355,0
1202949,-62,-26,336,0
1202959,-60,-10,281,0
1202969,-53,0,206,0
1202979,-53,43,156,0
1202989,-27,48,131,0
1202999,12,105,108,0
1203010,59,59,95,0
1203022,118,45,22,0
1203033,121,15,-28,0
1203043,121,-33,-48,0
1203053,138,-42,-68,0
1203063,148,-41,-88,0
1203074,144,-43,-80,0
1203084,129,-31,-70,0
1203094,101,-22,-56,0
1203105,71,-41,-22,1
1203116,74,-89,9,0
1203127,177,-137,180,0
1203137,187,-70,303,0
1203149,117,100,295,0
1203161,30,79,264,0
1203172,-82,9,259,0
1203183,-143,-32,382,0
1203194,-189,-8,489,0
1203205,-206,2,510,0
1203216,-193,55,500,0
1203227,-167,70,491,0
1203238,-108,58,468,0
1203249,-3,60,458,0
1203260,7,62,434,0
1203271,12,60,426,0
1203282,10,59,399,0
1203293,16,43,368,0
1203304,31,35,343,0
1203315,30,47,313,0
1203326,27,54,273,0
1203337,6,62,247,0
1203348,1,74,246,0
1203359,18,48,220,0
1203370,40,12,188,0
1203381,66,-3,167,0
1203392,77,0,128,0
1203403,81,15,25,0
1203414,66,4,-32,0
1203425,28,12,-77,0
1203436,-19,3,-95,1
1203447,-61,-22,-101,0
1203458,-83,-36,-102,0
1203469,-89,-31,-81,0
1203480,-14,-4,-65,0
1203491,102,61,-40,0
1203502,133,16,73,0
1203513,95,-112,192,0
1203524,83,-146,254,0
1203535,68,-76,318,0
1203546,55,37,469,0
1203557,70,86,511,0
1203568,105,57,511,0
1203579,116,53,511,0
1203590,109,60,505,0
1203601,61,67,428,0
1203612,16,74,413,0
1203623,-17,48,399,0
1203634,-59,39,388,0
1203645,-93,28,384,0
1203656,-104,25,384,0
1203667,-105,1,367,0
1203678,-90,-33,345,0
1203689,-71,-41,313,0
1203700,-71,47,217,0
1203711,-41,37,171,0
1203722,47,32,65,0
1203733,59,15,-12,0
1203744,65,-10,-50,0
1203755,83,-34,-66,0
1203766,96,-44,-84,0
1203777,104,-44,-92,0
1203788,102,-43,-76,0
1203799,122,-30,-73,0
1203810,126,-8,-49,1
1203821,118,-8,-20,0
1203832,111,-13,17,0
1203843,95,-34,50,0
1203854,135,-89,131,0
1203865,195,-109,333,0
1203876,43,61,240,0
1203887,57,62,234,0
1203898,-49,-57,219,0
1203909,-81,-74,320,0
1203920,-139,-29,382,0
1203931,-169,-15,404,0
1203942,-170,49,440,0
1203953,-160,67,473,0
1203964,-137,45,466,0
1203975,-117,84,501,0
1203986,-116,74,495,0
1203997,-121,63,472,0
1204008,-117,69,440,0
1204019,-116,68,398,0
1204030,-77,46,308,0
1204041,-38,25,276,0
1204052,-3,24,278,0
1204063,15,54,310,0
1204074,32,95,316,0
1204085,39,93,291,0
1204096,34,77,262,0
1204107,29,40,229,0
1204118,45,9,200,0
1204129,57,0,172,0
1204140,56,-9,124,0
1204151,59,-23,73,0
1204162,64,-27,26,0
1204173,62,-24,-28,0
1204184,0,-23,-105,1
1204196,-31,-32,-115,0
1204207,-44,-36,-120,0
1204218,-28,-11,-104,0
1204229,57,17,-86,0
1204240,178,96,-48,0
1204251,162,9,74,0
1204262,84,-161,186,0
1204273,64,-163,233,0
1204284,31,-54,289,0
1204295,-23,49,441,0
1204306,-52,75,511,0
1204317,-47,100,511,0
1204328,25,37,511,0
1204339,26,58,503,0
1204350,-8,88,469,0
1204361,-35,93,464,0
1204372,-57,73,449,0
1204383,-76,46,419,0
1204394,-92,39,395,0
1204405,-75,37,374,0
1204416,-90,44,355,0
1204427,-100,37,318,0
1204438,-93,8,277,0
1204449,-88,-24,253,0
1204460,-57,-36,198,0
1204471,-39,62,137,0
1204482,54,27,58,0
1204493,99,12,12,0
1204504,127,-7,-25,0
1204515,153,-33,-52,0
1204526,168,-37,-87,0
1204537,180,-29,-104,0
1204548,182,-26,-115,0
1204559,174,-15,-104,0
1204570,164,-17,-75,0
1204581,135,-18,-32,0
1204592,99,8,-2,0
1204603,103,-34,15,1
1204614,205,-111,230,0
1204625,199,-39,290,0
1204636,38,52,297,0
1204647,-96,-19,314,0
1204658,-169,-13,408,0
1204669,-248,-31,465,0
1204680,-286,-26,511,0
1204691,-256,40,511,0
1204702,-210,60,482,0
1204713,-142,9,405,0
1204724,-80,21,379,0
1204735,-45,39,395,0
1204746,-33,51,409,0
1204757,-25,59,424,0
1204768,-24,70,425,0
1204779,-23,69,388,0
1204790,-12,51,308,0
1204801,-21,57,282,0
1204812,-28,57,254,0
1204823,-31,65,240,0
1204834,-15,43,211,0
1204845,19,48,184,0
1204856,52,50,154,0
1204867,79,41,116,0
1204878,107,28,73,0
1204889,120,24,35,0
1204900,115,17,-1,0
1204911,103,8,-30,0
1204922,72,0,-61,0
1204933,39,-23,-90,0
1204944,23,-30,-114,0
1204955,106,36,-121,1
1204966,116,38,-75,0
1204977,51,-129,54,0
1204988,-2,-232,148,0
1204999,9,-134,184,0
1205010,-17,-36,271,0
1205021,-55,30,449,0
1205032,-65,92,511,0
1205043,-85,137,511,0
1205054,-57,124,511,0
1205065,-23,117,511,0
1205076,-13,79,511,0
1205087,-37,38,464,0
1205098,-69,66,456,0
1205109,-63,64,462,0
1205120,-54,51,447,0
1205131,-34,36,400,0
1205142,-5,39,355,0
1205153,11,37,313,0
1205164,9,12,264,0
1205175,4,-7,217,0
1205186,-6,-9,183,0
1205197,-13,-8,154,0
1205208,-15,9,124,0
1205219,-3,48,85,0
1205230,29,65,31,0
1205241,70,78,-3,0
1205252,152,-27,-22,0
1205263,130,16,-53,1
1205274,117,-14,-64,0
1205285,147,-54,-51,0
1205296,160,-35,-42,0
1205307,149,-32,-31,0
1205318,149,-34,-30,0
1205329,128,-47,-15,0
1205340,170,-96,-19,0
1205351,285,-144,206,0
1205362,265,-46,364,0
1205373,117,161,290,0
1205384,42,52,283,0
1205395,-66,-2,263,0
1205406,-184,-101,433,0
1205417,-202,-53,442,0
1205428,-196,3,422,0
1205439,-183,32,422,0
1205450,-129,39,432,0
1205461,-99,57,438,0
1205472,-83,68,469,0
1205483,-93,87,486,0
1205494,-115,94,485,0
1205505,-118,91,451,0
1205516,-122,66,369,0
1205527,-112,34,297,0
1205538,-79,26,259,0
1205549,-50,8,235,0
1205560,11,97,245,0
1205571,43,107,226,0
1205582,56,94,228,0
1205593,69,52,227,0
1205604,94,18,210,0
1205615,103,20,165,0
1205626,92,10,101,0
1205637,89,8,56,0
1205648,87,0,0,0
1205659,72,-1,-58,0
1205670,26,3,-97,0
1205681,-37,-6,-107,0
1205692,-81,-34,-100,0
1205703,-75,-32,-74,0
1205714,64,11,40,0
1205725,72,-31,111,0
1205736,75,-45,162,1
1205747,110,-45,203,0
1205758,109,-42,279,0
1205769,89,21,416,0
1205780,79,53,511,0
1205791,69,89,511,0
1205802,101,87,511,0
1205813,144,78,511,0
1205824,150,72,511,0
1205835,109,55,442,0
1205846,72,63,450,0
1205857,42,27,425,0
1205868,-19,21,399,0
1205879,-42,27,385,0
1205890,-78,28,373,0
1205901,-108,2,337,0
1205912,-114,-42,304,0
1205923,-95,-63,252,0
1205934,-99,2,167,0
1205945,-96,19,93,0
1205956,-24,-7,48,0
1205967,43,-4,6,0
1205978,72,-21,-34,0
1205989,80,-34,-58,0
1206000,80,-40,-71,0
1206011,81,-32,-84,0
1206022,82,-25,-92,0
1206033,70,-11,-75,0
1206044,69,1,-47,0
1206055,65,-2,-26,0
1206066,56,-3,-7,0
1206077,30,-23,36,0
1206088,57,-69,45,0
1206099,150,-175,241,1
1206110,232,-142,418,0
1206121,130,242,414,0
1206133,115,34,361,0
1206144,66,57,317,0
1206155,-7,10,344,0
1206166,-84,-6,468,0
1206177,-79,-7,424,0
1206188,-52,-34,349,0
1206199,-16,-38,322,0
1206210,25,-19,320,0
1206221,55,14,389,0
1206232,62,51,446,0
1206243,46,77,465,0
1206254,9,90,457,0
1206265,-33,103,440,0
1206276,-81,94,426,0
1206287,-106,92,403,0
1206298,-127,74,361,0
1206309,-128,59,309,0
1206320,-75,38,228,0
1206331,-47,19,206,0
1206342,-11,6,188,0
1206353,11,13,175,0
1206364,34,11,138,0
1206375,52,1,82,0
1206386,67,-22,23,0
1206397,78,-40,-40,0
1206408,86,-54,-89,0
1206419,75,-62,-111,0
1206430,54,-65,-122,0
1206441,36,-61,-110,0
1206452,22,-54,-87,0
1206463,35,-36,-65,0
1206474,135,15,-40,1
1206485,152,47,43,0
1206496,38,-181,205,0
1206507,11,-223,318,0
1206518,-18,-60,311,0
1206529,-29,121,394,0
1206540,-13,105,511,0
1206551,-8,60,511,0
1206562,29,66,511,1
1206573,105,54,511,0
1206584,135,63,511,0
1206595,102,63,511,0
1206606,40,26,511,0
1206617,-16,17,504,0
1206628,-48,46,500,0
1206639,-59,37,434,0
1206650,-41,25,375,0
1206661,-36,19,312,0
1206672,-58,-4,255,0
1206683,-66,-33,207,0
1206694,-73,-34,149,0
1206705,-70,-11,100,0
1206716,-60,10,67,0
1206727,-43,15,39,0
1206738,-11,0,-16,0
1206749,26,3,-8,0
1206760,50,-12,-31,0
1206771,57,-30,-58,0
1206782,68,-46,-71,0
1206793,95,-50,-61,0
1206804,116,-56,-58,0
1206815,133,-35,-63,1
1206826,143,-1,-66,0
1206837,142,16,-36,0
1206848,123,13,8,0
1206859,109,-12,1,0
1206870,169,-39,54,0
1206881,181,-146,258,0
1206892,84,188,188,0
1206903,43,37,258,0
1206914,17,100,239,0
1206925,-5,40,392,0
1206936,-83,97,511,0
1206947,-160,99,511,0
1206958,-123,112,511,0
1206969,-76,102,491,0
1206980,-56,85,455,0
1206991,-50,72,445,0
1207002,-50,98,455,0
1207013,-56,114,476,0
1207024,-69,117,462,0
1207035,-77,109,414,0
1207046,-76,92,359,0
1207057,-61,69,311,0
1207068,-47,52,282,0
1207079,-41,56,264,0
1207090,-37,64,253,0
1207101,-23,72,226,0
1207112,-23,69,212,0
1207123,-5,34,186,0
1207134,12,3,163,0
1207145,27,-8,130,0
1207156,21,2,78,0
1207167,11,-13,25,0
1207178,14,-31,-16,0
1207189,13,-38,-55,0
1207200,9,-39,-78,0
1207211,-8,-28,-88,0
1207222,-24,-19,-84,0
1207233,-31,-31,-68,0
1207244,-20,-16,-45,1
1207255,192,45,-27,0
1207266,171,-66,108,0
1207277,62,-239,247,0
1207288,62,-184,272,0
1207299,39,20,265,0
1207311,30,140,492,0
1207322,41,131,511,0
1207333,88,173,511,0
1207344,151,140,511,0
1207355,171,55,511,0
1207366,139,45,469,0
1207377,73,47,431,0
1207388,-38,49,425,0
1207399,-59,57,419,0
1207410,-62,55,393,0
1207421,-64,49,362,0
1207432,-80,35,329,0
1207443,-101,14,307,0
1207454,-104,-6,277,0
1207465,-107,5,256,0
1207476,-95,-20,212,0
1207487,-57,-58,172,0
1207498,-30,-5,115,0
1207509,-18,15,73,0
1207520,17,-36,25,0
1207531,48,-56,-24,0
1207542,62,-41,-117,0
1207553,77,-58,-130,0
1207564,93,-52,-140,0
1207575,102,-24,-136,0
1207586,96,9,-129,0
1207597,73,26,-113,0
1207608,55,27,-82,0
1207619,39,30,-44,0
1207630,45,17,-17,1
1207641,49,-32,53,0
1207652,64,-100,110,0
1207663,96,-13,145,0
1207674,137,-45,146,0
1207685,119,6,174,0
1207696,265,-142,511,0
1207707,228,160,511,0
1207718,67,96,511,0
1207729,-62,4,483,0
1207740,-9,12,387,0
1207751,0,-47,323,0
1207762,-36,-12,342,0
1207773,-32,24,410,0
1207784,20,66,500,0
1207795,69,93,511,0
1207806,96,127,511,0
1207817,99,131,492,0
1207828,103,92,413,0
1207839,103,71,372,0
1207850,91,79,348,0
1207861,28,84,278,0
1207872,-1,73,248,0
1207883,-26,89,226,0
1207894,-36,85,206,0
1207905,-41,66,179,0
1207916,-39,53,160,0
1207927,-32,47,142,0
1207938,-28,43,130,0
1207949,-9,27,110,0
1207960,13,17,72,0
1207971,26,7,42,0
1207982,33,9,10,0
1207993,30,19,-10,0
1208004,14,30,-26,0
1208015,9,42,-39,0
1208026,2,30,-32,1
1208037,5,18,-26,0
1208048,17,10,-15,0
1208059,45,7,-3,0
1208070,58,5,6,0
1208081,83,4,20,0
1208092,107,29,47,0
1208104,137,55,84,0
1208115,146,55,146,0
1208126,76,33,294,0
1208137,-49,-180,511,0
1208148,-230,71,511,0
1208159,-179,203,511,0
1208170,-10,154,511,0
1208181,42,56,511,0
1208192,36,67,511,0
1208203,-3,49,504,0
1208214,-28,39,511,0
1208225,-49,37,511,0
1208236,-64,45,511,0
1208247,-66,45,484,0
1208258,-64,34,436,0
1208269,-55,16,384,0
1208280,-47,3,340,0
1208291,-42,-10,307,0
1208302,-39,-24,260,0
1208313,-25,-46,228,0
1208324,-6,-34,179,0
1208335,-1,-19,157,0
1208346,6,-26,123,0
1208357,18,-30,90,0
1208368,34,-35,68,0
1208379,45,-37,51,0
1208390,56,-34,34,0
1208401,58,-40,4,0
1208412,61,-35,-19,0
1208423,60,-24,-36,0
1208434,53,-7,-46,1
1208445,55,-1,-60,0
1208456,58,15,-68,0
1208467,41,25,-69,0
1208478,72,-21,-55,0
1208489,93,37,-55,0
1208500,103,39,1,0
1208511,123,30,31,0
1208522,126,110,67,0
1208533,118,48,154,0
1208544,158,60,257,0
1208555,120,112,351,0
1208566,103,96,490,0
1208577,83,128,511,0
1208588,6,142,511,0
1208599,-88,138,511,0
1208610,-197,-477,381,0
1208621,-182,114,457,0
1208632,-185,128,441,0
1208643,-216,18,440,0
1208654,-220,44,471,0
1208665,-203,46,453,0
1208676,-167,38,440,0
1208687,-128,42,403,0
1208698,-119,42,339,0
1208709,-56,25,355,0
1208720,-42,29,338,0
1208731,-47,59,349,0
1208742,-59,69,342,0
1208753,-74,68,321,0
1208764,-56,54,266,0
1208775,-33,49,232,0
1208786,-21,40,183,0
1208797,3,36,126,0
1208808,36,23,73,0
1208819,66,2,23,0
1208830,92,-6,-13,0
1208841,97,3,-53,1
1208852,81,12,-79,0
1208863,68,5,-103,0
1208874,60,9,-103,0
1208885,55,31,-89,0
1208896,47,25,-64,0
1208907,49,-7,-26,0
1208918,64,-62,37,0
1208929,62,-90,118,0
1208940,58,-126,215,0
1208951,45,-61,323,0
1208962,-50,-48,505,0
1208973,-154,-36,511,0
1208984,-140,124,511,0
1208995,-64,134,511,0
1209006,-45,51,511,0
1209017,-69,32,500,0
1209028,-108,33,429,0
1209039,-134,22,425,0
1209050,-100,26,408,0
1209061,-82,42,391,0
1209072,-4,8,295,0
1209083,10,-1,255,0
1209094,6,20,213,0
1209105,4,13,185,0
1209116,20,-14,165,0
1209127,35,0,160,0
1209138,52,32,152,0
1209149,65,48,130,0
1209160,78,42,87,0
1209171,91,31,48,0
1209182,107,23,6,0
1209193,123,12,-21,0
1209204,129,-1,-34,0
1209215,145,-5,-35,0
1209226,152,-26,-26,0
1209237,141,-37,10,0
1209248,110,-46,19,1
1209259,107,-33,-5,0
1209270,102,-4,12,0
1209281,102,4,46,0
1209292,125,-40,51,0
1209303,226,-8,292,0
1209314,255,24,351,0
1209325,134,249,347,0
1209336,65,-11,238,0
1209347,-37,-90,189,0
1209358,-58,-82,281,0
1209369,-123,-69,324,0
1209380,-150,-22,383,0
1209391,-133,20,469,0
1209402,-76,42,511,0
1209413,-41,35,511,0
1209424,-40,39,511,0
1209435,-61,57,511,0
1209446,-89,43,511,0
1209457,-115,19,477,0
1209468,-145,-2,395,0
1209479,-140,-16,331,0
1209490,-125,-13,286,0
1209501,-81,5,265,0
1209512,-48,38,253,0
1209523,-16,76,255,0
1209534,30,119,274,0
1209545,35,112,252,0
1209556,41,77,224,0
1209567,50,34,199,0
1209578,50,-15,177,0
1209589,55,-42,145,0
1209600,47,-10,110,0
1209611,47,2,64,0
1209622,61,-18,15,0
1209633,69,-10,-34,0
1209644,64,3,-71,0
1209655,34,7,-94,0
1209666,5,-5,-98,0
1209677,-38,-1,-105,1
1209688,-12,38,-93,0
1209699,97,86,-74,0
1209710,131,66,9,0
1209721,38,-72,156,0
1209732,-11,-185,272,0
1209743,12,-119,351,0
1209754,-38,-3,465,0
1209765,-114,40,511,0
1209776,-107,117,511,0
1209787,15,73,511,0
1209798,98,24,511,0
1209809,119,19,441,0
1209820,84,45,410,0
1209832,12,43,474,0
1209843,-28,27,487,0
1209854,-60,37,474,0
1209865,-75,39,444,0
1209876,-74,48,407,0
1209887,-66,47,351,0
1209898,-61,27,289,0
1209909,-48,9,245,0
1209920,-42,-15,208,0
1209932,-36,-37,176,0
1209943,-23,-35,156,0
1209954,4,-34,139,0
1209965,39,9,133,0
1209976,102,-23,97,0
1209987,143,36,28,0
1209998,152,45,-7,0
1210009,156,14,-29,0
1210020,160,-4,-47,0
1210031,153,-1,-52,0
1210042,127,6,-43,0
1210053,93,-8,-39,0
1210064,56,-21,-49,0
1210075,16,-12,-43,0
1210086,9,-29,-29,0
1210097,76,-127,44,1
1210108,189,-212,258,0
1210119,153,-30,247,0
1210130,64,48,321,0
1210141,9,28,346,0
1210152,-55,-59,421,0
1210163,-88,-58,477,0
1210174,-135,-75,457,0
1210185,-149,-45,385,0
1210196,-125,-59,349,0
1210207,-124,-59,365,0
1210218,-108,-34,400,0
1210229,-84,-3,428,0
1210240,-73,20,444,0
1210251,-69,52,463,0
1210262,-66,58,439,0
1210273,-240,502,511,0
1210284,-68,4,301,0
1210295,-39,41,287,0
1210306,-20,49,297,0
1210317,4,70,283,0
1210328,21,87,268,0
1210339,34,75,233,0
1210350,38,66,208,0
1210361,31,48,188,0
1210372,22,11,168,0
1210383,29,0,160,0
1210394,19,3,148,0
1210405,10,9,122,0
1210416,17,15,78,0
1210427,30,30,17,0
1210438,-9,10,-71,0
1210449,-17,-7,-90,0
1210460,-21,-22,-95,0
1210471,-27,-29,-81,0
1210482,-12,-29,-62,1
1210493,70,4,-32,0
1210504,126,22,36,0
1210515,91,-102,142,0
1210526,81,-110,197,0
1210537,93,-49,222,0
1210548,90,18,265,0
1210559,78,82,367,0
1210570,88,79,511,0
1210581,90,54,511,0
1210592,142,51,511,0
1210603,139,52,511,0
1210614,105,99,511,0
1210625,57,80,511,0
1210636,16,52,485,0
1210647,-24,37,468,0
1210658,-53,45,455,0
1210669,-71,65,469,0
1210680,-101,62,437,0
1210691,-113,44,381,0
1210702,-101,-15,354,0
1210713,-79,-58,297,0
1210724,-100,26,196,0
1210735,-88,-3,114,0
1210746,-17,-7,2,0
1210757,21,-10,-32,0
1210768,58,-13,-38,0
1210779,77,-14,-46,0
1210790,78,-23,-65,0
1210801,84,-33,-70,0
1210812,88,-37,-69,0
1210823,97,-37,-65,0
1210834,100,-28,-68,0
1210845,104,-8,-71,0
1210856,87,2,-59,0
1210867,70,-21,-41,0
1210878,62,-29,15,1
1210889,59,-29,39,0
1210900,225,-202,431,0
1210911,82,295,346,0
1210922,41,42,378,0
1210933,55,28,306,0
1210944,26,35,310,0
1210955,-42,-23,373,0
1210966,-104,-17,419,0
1210977,-119,-51,431,0
1210988,-119,-51,431,0
1211064,-119,-51,431,0
1211140,-119,-51,431,0
1211216,-119,-51,431,0
1211292,-119,-51,431,0
1211368,-119,-51,431,1
1211444,-119,-51,431,0
1211521,-119,-51,431,0
1211597,109,-32,-113,1
1211608,99,-36,-111,0
1211619,78,-45,-96,0
1211630,82,-30,-77,0
1211641,83,-10,-47,0
1211652,83,-10,-47,0
1211728,83,-10,-47,0
1211804,83,-10,-47,1
1211880,83,-10,-47,0
1211956,83,-10,-47,0
1212032,83,-10,-47,0
1212108,83,-10,-47,1
1212184,83,-10,-47,0
1212260,83,-10,-47,0
1212336,83,-10,-47,0
1212412,64,-46,-35,1
1212423,87,-51,-12,0
1212434,87,-51,-12,0
1212510,87,-51,-12,0
1212587,87,-51,-12,0
1212664,87,-51,-12,0
1212740,87,-51,-12,0
1212816,87,-51,-12,1
1212892,87,-51,-12,0
1212968,87,-51,-12,1
1213044,87,-51,-12,0
1213120,79,5,-120,0
1213131,82,-12,-128,0
1213142,92,-17,-135,0
1213153,90,-11,-112,0
1213164,81,-17,-95,0
1213175,73,-20,-84,0
1213186,73,-20,-61,0
1213197,70,-33,-50,1
1213208,70,-33,-50,0
1213284,-271,-20,511,0
1213295,-271,-20,511,1
1213372,-271,-20,511,0
1213448,-271,-20,511,0
1213524,-271,-20,511,0
1213601,-271,-20,511,1
1213677,-271,-20,511,0
1213754,-70,59,444,0
1213765,-62,65,428,0
1213776,-83,53,351,0
1213787,-83,53,351,0
1213864,-83,53,351,0
1213941,171,-35,-46,1
1213952,179,-47,-26,0
1213963,178,-27,-21,0
1213974,133,-3,-9,0
1213985,95,-26,-12,0
1213996,184,-113,123,0
1214007,227,-111,358,0
1214018,1,0,0,0
1214029,1,0,0,0
1214105,1,0,0,0
1214181,1,0,0,0
1214257,1,0,0,0
1214333,1,0,0,1
1214409,1,0,0,0
1214485,1,0,0,0
1214561,1,0,0,0
1214637,1,0,0,0
1214713,155,0,-11,1
1214724,137,-20,3,0
1214735,127,-18,2,0
1214746,96,-24,1,0
1214757,87,-46,-16,0
1214768,87,-46,-16,0
1214844,87,-46,-16,0
1214921,87,-46,-16,0
1214997,87,-46,-16,0
1215073,87,-46,-16,0
1215150,87,-46,-16,1
1215226,87,-46,-16,0
1215303,87,-46,-16,0
1215379,-39,5,167,0
1215390,11,52,147,0
1215401,49,88,113,0
1215412,89,73,71,0
1215423,125,5,41,0
1215434,125,5,41,0
1215510,125,5,41,1
1215586,-117,-84,377,0
1215597,-172,-80,450,0
1215608,-193,-40,475,0
1215619,-193,-40,475,0
1215695,-193,-40,475,0
1215771,-193,-40,475,0
1215848,-193,-40,475,0
1215924,-193,-40,475,1
1216001,-193,-40,475,0
1216077,-193,-40,475,0
1216153,5,47,73,0
1216164,5,47,73,0
1216240,163,-33,-62,1
1216251,163,-33,-62,0
1216327,163,-33,-62,0
1216403,163,-33,-62,0
1216479,163,-33,-62,0
1216555,163,-33,-62,0
1216631,163,-33,-62,0
1216707,163,-33,-62,1
1216783,163,-33,-62,0
1216859,163,-33,-62,0
1216935,163,-33,-62,0
1217011,163,-33,-62,1
1217087,163,-33,-62,0
1217163,163,-33,-62,0
1217239,163,-33,-62,0
1217315,163,-33,-62,0
1217391,163,-33,-62,0
1217467,163,-33,-62,1
1217543,163,-33,-62,0
1217620,163,-33,-62,0
1217696,163,-33,-62,0
1217772,163,-33,-62,0
1217848,163,-33,-62,1
1217924,163,-33,-62,0
1218000,163,-33,-62,0
1218077,163,-33,-62,0
1218154,-21,-39,-158,0
1218165,-19,-2,-137,0
1218176,14,18,-107,0
1218187,145,43,-85,0
1218198,227,103,-4,0
1218209,96,-168,167,1
1218220,87,-297,302,0
1218231,87,-297,302,0
1218307,87,-297,302,0
1218383,87,-297,302,0
1218459,87,-297,302,0
1218535,87,-297,302,1
1218611,87,-297,302,0
1218687,87,-297,302,0
1218764,87,-297,302,0
1218840,87,-297,302,0
1218916,87,-297,302,0
1218992,87,-297,302,1
1219068,87,-297,302,0
1219144,87,-297,302,0
1219221,87,-297,302,0
1219297,82,2,-58,1
1219308,54,8,-53,0
1219319,33,-20,-31,0
1219330,33,-20,-31,0
1219407,33,-20,-31,0
1219483,33,-20,-31,0
1219559,33,-20,-31,0
1219635,33,-20,-31,0
1219712,33,-20,-31,1
1219788,33,-20,-31,0
1219864,33,-20,-31,0
1219940,33,-20,-31,0
1220016,33,-20,-31,0
1220092,33,-20,-31,1
1220168,33,-20,-31,0
1220245,33,-20,-31,0
1220322,33,-20,-31,0
1220398,33,-20,-31,0
1220474,33,-20,-31,1
1220550,33,-20,-31,0
1220626,33,-20,-31,0
1220702,33,-20,-31,0
1220778,33,-20,-31,0
1220854,33,-20,-31,1
1220931,33,-20,-31,0
1221007,33,-20,-31,0
1221083,33,-20,-31,0
1221159,33,-20,-31,0
1221236,33,-20,-31,1
1221312,33,-20,-31,0
1221388,33,-20,-31,0
1221464,33,-20,-31,0
1221540,33,-20,-31,0
1221616,23,-25,14,0
1221627,23,-25,14,1
1221704,23,-25,14,0
1221780,23,-25,14,0
1221856,-96,35,360,0
1221867,-98,19,320,0
1221878,-98,19,320,0
1221955,83,41,301,0
1221966,83,41,301,0
1222043,83,41,301,1
1222119,67,-168,221,0
1222130,44,-105,286,0
1222141,-11,-34,387,0
1222152,-37,-22,511,0
1222163,14,81,511,0
1222174,93,127,511,0
1222185,133,111,511,0
1222196,119,73,511,0
1222207,119,73,511,0
1222283,-1,-8,304,0
1222294,5,-20,255,0
1222305,4,-18,205,0
1222316,3,16,168,0
1222327,-25,45,116,0
1222338,-1,-1,-1,0
1222349,-1,-1,-1,0
1222425,139,-12,-19,1
1222436,139,-12,-19,0
1222513,139,-12,-19,0
1222589,139,-12,-19,0
1222665,139,-12,-19,0
1222741,139,-12,-19,0
1222817,139,-12,-19,1
1222893,139,-12,-19,0
1222969,139,-12,-19,0
1223045,139,-12,-19,0
1223121,139,-12,-19,0
1223197,139,-12,-19,1
1223273,139,-12,-19,0
1223349,139,-12,-19,0
1223425,139,-12,-19,0
1223501,139,-12,-19,0
1223577,139,-12,-19,1
1223653,139,-12,-19,0
1223729,139,-12,-19,0
1223805,139,-12,-19,0
1223881,139,-12,-19,0
1223957,61,-19,-36,0
1223968,61,-19,-36,1
1224044,61,-19,-36,0
1224120,61,-19,-36,0
1224196,61,-19,-36,0
1224272,61,-19,-36,0
1224348,61,-19,-36,1
1224424,61,-19,-36,0
1224500,61,-19,-36,0
1224576,61,-19,-36,0
1224652,61,-19,-36,0
1224728,61,-19,-36,1
1224804,61,-19,-36,0
1224881,61,-19,-36,0
1224957,61,-19,-36,0
1225033,61,-19,-36,0
1225109,61,-19,-36,1
1225185,61,-19,-36,0
1225261,61,-19,-36,0
1225337,61,-19,-36,0
1225413,61,-19,-36,0
1225489,122,-19,-89,0
1225500,113,-17,-51,1
1225511,122,-59,-12,0
1225522,122,-59,-12,0
1225598,-161,0,493,0
1225609,-126,-1,439,0
1225620,-70,3,410,0
1225631,-20,-4,400,0
1225642,-20,-4,400,0
1225719,-20,-4,400,0
1225795,-20,-4,400,0
1225871,-20,-4,400,0
1225947,-20,-4,400,1
1226023,-20,-4,400,0
1226099,-20,-4,400,0
1226175,19,-73,-64,0
1226186,16,-73,-77,0
1226197,25,-58,-69,0
1226208,53,-43,-68,0
1226219,71,-26,-61,0
1226230,75,-9,-65,0
1226241,78,-16,-54,1
1226252,91,-38,-21,0
1226263,102,-58,0,0
1226274,185,-50,66,0
1226285,185,-50,66,0
1226361,-237,49,462,0
1226372,-237,49,462,0
1226448,-39,34,347,0
1226459,-33,16,304,0
1226470,-33,16,304,0
1226546,-33,16,304,0
1226622,-33,16,304,1
1226698,-33,16,304,0
1226774,-33,16,304,0
1226850,-33,16,304,0
1226927,-33,16,304,0
1227003,100,-1,-1,1
1227014,114,-44,-38,0
1227025,116,-40,10,0
1227036,86,18,39,0
1227047,39,25,43,0
1227058,20,-21,91,0
1227069,28,-50,212,0
1227080,64,-98,308,0
1227091,154,-118,511,0
1227102,153,76,511,0
1227113,18,137,511,0
1227124,-59,87,511,0
1227135,-95,26,472,0
1227146,-60,28,447,0
1227157,-63,-4,405,0
1227168,-63,-4,405,0
1227244,-63,-4,405,0
1227320,117,12,60,0
1227331,117,12,60,0
1227407,117,12,60,1
1227483,117,12,60,0
1227559,117,12,60,0
1227635,117,12,60,0
1227711,117,12,60,0
1227787,117,12,60,1
1227863,117,12,60,0
1227939,117,12,60,0
1228015,117,12,60,0
1228091,117,12,60,0
1228167,117,12,60,0
1228243,117,12,60,1
1228319,117,12,60,0
1228396,117,12,60,1
1228472,117,12,60,0
1228548,117,12,60,0
1228624,117,12,60,0
1228700,117,12,60,0
1228776,117,12,60,0
1228852,26,5,233,0
1228863,22,6,228,0
1228874,23,6,230,0
1228885,24,6,231,0
1228896,22,7,234,0
1228907,22,7,236,0
1228918,20,7,235,0
1228929,21,7,236,0
1228940,21,7,235,0
1228951,21,7,231,0
1228962,20,6,232,0
1228973,18,7,233,0
1228984,18,9,235,0
1228995,17,10,234,0
1229006,16,10,255,0
1229017,17,10,231,0
1229028,18,8,229,0
1229039,17,-249,-1,0
1229050,17,-249,-1,0
1229126,16,12,233,0
1229137,16,12,233,0
1229213,25,13,231,0
1229224,24,12,231,0
1229235,23,12,233,0
1229246,22,11,232,0
1229257,22,11,232,0
1229333,22,11,232,0
1229409,22,11,232,0
1229485,5376,-4864,0,0
1229496,24,14,232,0
1229507,0,0,0,0
1229518,20,13,232,0
1229529,20,14,233,0
1229540,20,15,234,0
1229551,22,15,231,0
1229562,0,0,0,0
1229573,18,13,229,0
1229584,16,14,229,0
1229595,18,11,230,0
1229606,18,9,231,0
1229617,19,12,232,0
1229628,20,13,230,0
1229640,22,14,231,0
1229651,22,15,232,0
1229662,24,17,231,0
1229673,25,15,232,0
1229684,25,13,232,0
1229695,25,13,233,0
1229706,0,0,0,0
1229717,24,12,229,0
1229728,23,12,229,0
1229739,22,13,228,0
1229750,23,11,230,0
1229761,23,13,231,0
1229772,21,14,232,0
1229783,789,14,230,0
1229794,789,14,230,0
1229870,26,12,233,0
1229881,26,13,233,0
1229892,25,12,232,0
1229903,24,12,230,0
1229914,25,15,231,0
1229925,24,13,230,0
1229936,25,14,230,0
1229947,26,15,231,0
1229958,26,14,230,0
1229969,28,14,230,0
1229980,28,12,230,0
1229991,29,10,231,0
1230002,27,11,235,0
1230013,30,9,231,0
1230025,28,8,230,0
1230036,25,10,230,0
1230047,24,10,228,0
1230058,24,9,232,0
1230069,27,7,231,0
