timestamp,accX,accY,accZ,step
83203,38,3,229,0
83214,39,4,228,0
83225,38,1,226,0
83236,38,4,228,0
83247,39,5,230,0
83258,40,3,227,0
83269,40,5,233,0
83279,41,6,234,0
83290,41,5,231,0
83300,42,12,234,0
83311,39,5,227,0
83322,39,6,230,0
83333,38,7,232,0
83344,37,5,232,0
83354,38,4,228,0
83365,37,4,229,0
83376,38,3,230,0
83387,38,7,230,0
83398,37,7,229,0
83409,38,6,230,0
83420,35,5,230,0
83431,34,5,230,0
83442,35,6,230,0
83453,35,5,230,0
83464,36,4,230,0
83475,36,5,229,0
83486,37,4,230,0
83497,39,4,232,0
83508,39,4,232,0
83519,40,5,230,0
83530,43,5,231,0
83541,45,5,230,0
83552,48,4,230,0
83563,49,4,230,0
83574,53,3,229,0
83585,56,2,227,0
83596,55,4,227,0
83607,54,5,228,0
83618,54,4,228,0
83629,52,3,230,0
83640,48,2,232,0
83651,45,3,234,0
83662,45,4,231,0
83673,46,6,230,0
83684,45,7,230,0
83695,43,6,232,0
83706,40,9,230,0
83717,40,8,231,0
83728,35,6,231,0
83739,33,3,232,0
83750,36,2,231,0
83761,38,5,231,0
83772,38,7,228,0
83783,39,6,228,0
83794,40,4,227,0
83805,41,3,227,0
83816,41,1,227,0
83827,42,0,225,0
83838,44,1,226,0
83849,45,2,226,0
83860,47,2,228,0
83871,48,1,227,0
83882,51,-1,231,0
83893,53,0,227,0
83904,48,1,229,0
83915,45,0,230,0
83926,42,0,230,0
83937,39,1,231,0
83948,35,0,231,0
83959,33,1,232,0
83970,34,3,232,0
83981,34,6,230,0
83992,36,7,229,0
84003,35,8,228,0
84014,34,8,228,0
84025,35,5,229,0
84036,36,8,228,0
84047,36,7,228,0
84058,37,9,227,0
84069,37,13,229,0
84080,36,9,230,0
84091,36,8,233,0
84102,35,8,233,0
84113,34,8,232,0
84124,33,12,232,0
84135,30,11,231,0
84146,28,10,230,0
84157,26,10,232,0
84168,26,10,231,0
84179,28,9,231,0
84190,29,11,230,0
84201,32,11,229,0
84212,33,12,230,0
84223,37,10,231,0
84234,37,5,231,0
84245,38,7,231,0
84256,38,6,231,0
84267,37,4,231,0
84278,37,3,230,0
84289,37,4,230,0
84300,37,5,228,0
84311,36,8,227,0
84322,36,7,227,0
84333,39,7,226,0
84344,38,7,226,0
84355,40,7,226,0
84366,39,10,225,0
84377,38,11,228,0
84388,38,11,230,0
84399,32,7,230,0
84410,30,7,231,0
84421,29,6,232,0
84432,27,6,230,0
84443,26,7,232,0
84454,24,7,229,0
84465,24,9,232,0
84476,25,9,233,0
84487,24,9,232,0
84498,22,5,231,0
84509,23,6,232,0
84521,25,7,233,0
84532,28,8,230,0
84543,28,9,231,0
84554,29,8,232,0
84565,31,8,232,0
84576,33,8,231,0
84587,33,7,232,0
84598,35,6,230,0
84609,34,6,230,0
84620,33,5,231,0
84631,32,6,230,0
84642,32,4,230,0
84653,30,5,229,0
84664,29,6,232,0
84675,29,5,233,0
84686,32,6,232,0
84697,34,6,232,0
84708,34,6,230,0
84719,35,5,229,0
84730,34,5,229,0
84741,34,6,228,0
84752,34,6,228,0
84763,32,6,228,0
84774,31,6,230,0
84785,30,5,230,0
84796,27,4,230,0
84807,29,2,231,0
84819,31,1,231,0
84830,31,3,230,0
84841,32,3,230,0
84852,33,6,230,0
84863,35,7,232,0
84874,34,10,228,0
84885,34,8,229,0
84896,35,5,228,0
84907,36,5,228,0
84918,36,5,229,0
84929,36,6,231,0
84940,34,5,230,0
84951,35,4,229,0
84962,36,4,227,0
84973,35,3,230,0
84984,36,3,230,0
84995,35,3,231,0
85006,36,4,231,0
85017,38,4,229,0
85028,38,5,229,0
85039,36,6,228,0
85050,36,6,231,0
85061,36,6,230,0
85072,37,6,230,0
85083,36,7,230,0
85094,34,4,231,0
85105,34,1,229,0
85116,32,0,230,0
85127,33,1,229,0
85138,32,3,229,0
85149,33,4,229,0
85160,32,4,230,0
85171,31,4,227,0
85182,31,5,227,0
85193,32,4,225,0
85204,32,2,232,0
85215,30,0,238,0
85226,31,0,235,0
85237,29,1,234,0
85248,28,0,236,0
85259,28,2,233,0
85270,29,4,231,0
85282,32,4,231,0
85293,34,3,232,0
85304,36,2,234,0
85315,36,3,230,0
85326,42,3,230,0
85337,45,7,229,0
85348,43,7,231,0
85359,43,4,233,0
85370,42,3,232,0
85381,40,5,230,0
85392,39,4,227,0
85403,36,5,225,0
85414,35,7,225,0
85425,33,9,225,0
85436,33,13,227,0
85447,32,12,227,0
85458,34,10,229,0
85469,36,8,230,0
85480,38,9,229,0
85491,37,10,229,0
85502,36,10,227,0
85513,36,11,230,0
85525,36,9,230,0
85536,35,9,232,0
85547,37,7,232,0
85558,35,5,230,0
85569,37,5,230,0
85580,39,7,230,0
85591,38,8,228,0
85602,39,8,230,0
85613,39,7,229,0
85624,40,10,229,0
85635,39,9,228,0
85646,37,7,226,0
85657,36,7,225,0
85669,34,5,227,0
85680,33,1,230,0
85691,35,4,231,0
85702,34,6,232,0
85713,37,7,232,0
85724,37,9,232,0
85735,39,6,233,0
85746,39,9,233,0
85757,41,8,231,0
85768,42,6,231,0
85779,42,8,232,0
85790,40,8,234,0
85801,39,6,231,0
85812,39,5,228,0
85823,39,6,225,0
85834,37,6,225,0
85845,38,10,226,0
85856,36,11,228,0
85867,36,9,227,0
85878,39,9,230,0
85889,41,10,232,0
85900,43,10,233,0
85911,45,9,231,0
85922,43,8,231,0
85933,42,10,228,0
85944,40,12,229,0
85955,35,12,230,0
85966,34,12,230,0
85977,34,12,228,0
85988,35,11,227,0
85999,36,10,226,0
86010,38,11,226,0
86021,40,9,226,0
86032,39,8,229,0
86043,40,6,228,0
86054,40,10,228,0
86065,42,10,230,0
86076,42,12,233,0
86087,43,12,233,0
86098,42,12,231,0
86109,42,12,231,0
86120,41,12,231,0
86131,40,9,227,0
86142,42,9,227,0
86153,40,8,227,0
86164,38,8,229,0
86175,36,11,229,0
86186,36,10,228,0
86197,36,10,229,0
86208,37,11,231,0
86219,38,14,232,0
86230,41,13,230,0
86241,40,11,229,0
86252,40,10,228,0
86263,39,10,229,0
86274,36,9,229,0
86285,37,6,230,0
86296,37,8,229,0
86307,38,6,230,0
86318,41,6,230,0
86329,43,9,232,0
86340,46,10,233,0
86351,46,9,231,0
86362,47,9,229,0
86373,45,11,228,0
86384,43,9,227,0
86395,41,7,227,0
86406,39,5,228,0
86417,36,4,229,0
86428,33,6,230,0
86439,30,6,231,0
86450,30,8,233,0
86461,30,9,234,0
86472,30,8,233,0
86483,29,7,232,0
86494,30,8,233,0
86505,31,6,231,0
86516,32,7,229,0
86527,32,8,231,0
86538,30,6,230,0
86549,29,6,229,0
86560,29,7,228,0
86571,29,10,227,0
86582,27,9,227,0
86593,26,12,228,0
86605,22,14,232,0
86616,21,14,230,0
86627,23,13,231,0
86638,23,11,230,0
86649,24,10,229,0
86660,26,10,229,0
86671,27,10,228,0
86682,29,9,227,0
86693,29,11,228,0
86704,30,12,227,0
86715,31,14,231,0
86726,34,13,231,0
86737,37,14,233,0
86748,43,14,228,0
86759,45,12,228,0
86770,46,14,229,0
86781,46,16,232,0
86792,44,17,232,0
86803,40,18,232,0
86815,39,18,231,0
86826,36,17,230,0
86837,34,18,230,0
86848,34,20,230,0
86859,35,21,230,0
86870,35,22,229,0
86881,37,24,230,0
86892,38,28,230,0
86903,44,26,234,0
86914,47,27,233,0
86925,51,22,232,0
86936,55,22,228,0
86947,55,21,227,0
86958,54,21,228,0
86969,49,24,227,0
86980,43,25,225,0
86991,38,22,225,0
87002,32,22,224,0
87013,29,23,226,0
87024,25,23,229,0
87035,24,23,231,0
87046,23,23,233,0
87057,26,20,233,0
87068,29,20,231,0
87079,33,19,230,0
87090,34,20,229,0
87101,36,20,230,0
87112,37,20,230,0
87123,36,20,229,0
87134,35,18,229,0
87145,32,20,228,0
87156,30,19,229,0
87167,28,16,229,0
87178,26,18,227,0
87189,24,18,227,0
87200,25,18,228,0
87211,25,20,232,0
87222,24,18,231,0
87233,23,19,230,0
87244,21,20,227,0
87255,17,20,228,0
87266,15,21,227,0
87277,14,24,228,0
87288,11,24,229,0
87299,10,23,230,0
87310,12,25,230,0
87321,14,26,231,0
87332,17,23,230,0
87343,21,22,229,0
87354,23,24,227,0
87365,25,24,226,0
87376,28,24,228,0
87387,28,25,227,0
87398,28,27,224,0
87409,28,26,222,0
87420,27,25,220,0
87431,26,26,221,0
87442,23,26,222,0
87453,24,27,224,0
87464,24,25,228,0
87475,27,25,227,0
87486,26,30,227,0
87497,28,29,222,0
87508,30,30,224,0
87519,31,30,222,0
87530,31,32,223,0
87541,33,31,223,0
87552,35,28,221,0
87563,38,30,217,0
87574,37,29,214,0
87585,39,29,216,0
87596,40,33,219,0
87607,34,34,219,0
87618,30,36,222,0
87629,28,37,229,0
87640,30,37,234,0
87651,28,41,239,0
87662,27,45,249,0
87673,26,48,258,0
87684,25,47,263,0
87695,24,43,263,0
87706,16,42,266,0
87717,11,44,275,0
87728,3,44,278,0
87739,2,45,279,0
87750,4,46,278,0
87761,6,48,277,0
87772,12,51,277,0
87783,19,58,281,0
87794,20,65,276,0
87805,12,69,259,0
87816,2,72,244,0
87828,-18,69,235,0
87839,-36,61,219,0
87850,-44,53,202,0
87861,-46,42,177,0
87872,-30,40,164,1
87883,-1,41,151,0
87894,26,24,130,0
87905,49,14,112,0
87916,114,9,86,0
87927,180,-40,98,0
87938,142,-76,177,0
87949,71,-48,159,0
87960,27,-10,163,0
87971,0,5,167,0
87982,1,-4,186,0
87993,18,-10,222,0
88004,37,16,268,0
88015,66,46,313,0
88026,97,49,384,1
88037,88,34,406,0
88048,77,24,408,0
88059,66,17,406,0
88070,67,7,406,0
88081,68,16,392,0
88092,66,28,385,0
88103,72,34,388,0
88114,82,35,383,0
88125,93,24,368,0
88136,97,4,344,0
88147,99,-4,311,0
88158,88,-24,289,0
88169,71,-56,257,0
88180,12,-39,193,0
88191,-9,-14,183,0
88202,-25,9,185,0
88213,-32,20,178,0
88224,-27,35,169,0
88235,-16,48,144,0
88246,-5,47,121,0
88257,15,34,100,0
88268,46,14,84,0
88279,79,-6,58,0
88290,105,-12,25,1
88301,113,-3,-23,0
88312,100,-6,-25,0
88323,76,-5,-26,0
88334,49,-7,15,0
88346,82,-33,65,0
88357,140,-66,123,0
88368,164,-40,117,0
88379,160,-2,200,0
88390,125,23,236,0
88401,110,-14,251,0
88412,96,-16,337,0
88423,74,-18,352,0
88434,59,-31,365,0
88445,39,-46,345,0
88456,-1,-42,355,0
88467,-39,-39,373,0
88478,-48,-39,384,0
88489,-25,-21,397,0
88500,23,-2,390,0
88511,26,13,369,0
88522,-36,-160,511,0
88533,68,78,350,0
88544,53,14,356,0
88555,53,42,340,0
88566,51,28,313,0
88577,37,25,265,0
88588,40,10,223,0
88599,38,0,179,0
88610,46,-13,155,0
88621,56,-12,142,0
88632,53,-9,115,0
88643,41,-2,77,0
88654,5,-1,25,0
88665,-7,-4,27,0
88676,-19,-7,35,0
88687,-13,-7,32,0
88698,14,0,21,0
88709,64,9,8,0
88720,144,46,-5,0
88731,177,3,34,1
88742,161,-78,101,0
88753,170,-31,88,0
88764,146,15,113,0
88775,131,-2,209,0
88786,120,2,313,0
88797,119,-24,389,0
88808,74,-24,459,0
88819,13,51,511,0
88830,35,79,511,0
88841,58,88,511,0
88852,55,64,492,0
88863,40,66,452,0
88874,28,73,437,0
88885,29,66,414,0
88896,31,43,386,0
88907,32,10,362,0
88918,30,-21,360,0
88929,31,-57,341,0
88940,42,-51,301,0
88951,31,-20,254,0
88962,23,-8,229,0
88973,32,-3,193,0
88984,46,13,100,0
88995,53,19,58,0
89006,60,23,7,0
89017,57,13,-37,0
89028,58,-14,-68,0
89039,66,-27,-78,0
89050,58,-2,-71,0
89061,44,5,-63,0
89072,55,-2,-60,0
89083,82,-2,-40,0
89094,112,-8,-16,0
89105,134,-18,8,0
89116,152,-7,53,0
89127,150,21,101,0
89138,161,0,178,0
89149,115,71,271,0
89160,115,58,342,1
89171,72,19,337,0
89182,1,-7,358,0
89193,-57,-29,382,0
89204,-104,-36,433,0
89215,-105,-27,454,0
89226,-105,-19,466,0
89237,-80,17,484,0
89248,-59,46,482,0
89259,-46,46,459,0
89270,-27,35,407,0
89281,-11,25,366,0
89292,7,22,345,0
89303,28,30,339,0
89314,44,71,362,0
89325,43,68,349,0
89336,39,61,306,0
89347,32,47,248,0
89359,25,32,203,0
89370,14,24,168,0
89381,-1,13,132,0
89392,-8,-6,94,0
89403,-11,-17,66,0
89414,-9,-30,57,0
89425,-13,-12,60,0
89436,-10,16,48,0
89447,-8,50,42,0
89458,7,51,-3,0
89469,12,22,-30,0
89480,8,2,-49,1
89491,9,-8,-54,0
89502,35,12,-56,0
89513,83,47,-43,0
89524,128,65,-7,0
89535,166,61,28,0
89546,315,109,26,0
89557,345,89,116,0
89568,239,-332,282,0
89579,161,-226,316,0
89590,113,-142,349,0
89601,129,-60,505,0
89612,125,27,511,0
89623,96,107,511,0
89634,90,86,511,1
89645,49,86,490,0
89656,0,85,461,0
89667,-47,84,449,0
89678,-66,66,439,0
89689,-68,53,454,0
89700,-54,48,449,0
89711,-21,64,430,0
89722,-19,83,382,0
89733,-1,94,340,0
89744,9,79,281,0
89755,21,78,209,0
89766,41,71,156,0
89777,54,62,128,0
89788,66,23,80,0
89799,81,15,56,0
89810,85,10,29,0
89821,74,8,19,0
89832,65,12,1,0
89843,63,3,-6,0
89854,68,15,-29,0
89865,74,25,-36,0
89876,91,29,-34,0
89887,110,28,-9,1
89898,125,19,11,0
89909,119,6,12,0
89920,110,-1,14,0
89931,88,3,27,0
89942,180,34,60,0
89953,109,28,439,0
89964,157,75,470,0
89975,159,11,322,0
89986,78,50,293,0
89997,75,-11,335,0
90008,59,-34,348,1
90019,30,-2,386,0
90030,-23,14,396,0
90041,-10,39,394,0
90052,30,43,393,0
90063,61,43,386,0
90074,59,29,378,0
90085,51,26,367,0
90096,36,24,362,0
90107,28,17,354,0
90118,28,7,311,0
90129,40,16,296,0
90140,29,36,275,0
90151,23,47,265,0
90162,30,54,260,0
90173,32,58,246,0
90184,29,47,227,0
90195,20,49,217,0
90206,7,48,200,0
90217,2,48,193,0
90228,2,49,183,0
90239,7,39,176,0
90250,3,22,162,0
90261,0,12,129,0
90272,0,4,67,0
90283,3,2,48,0
90294,3,0,40,0
90305,3,6,35,1
90316,0,12,34,0
90327,1,6,28,0
90338,65,16,8,0
90349,151,87,-12,0
90360,202,46,55,0
90371,142,-7,190,0
90382,109,-72,235,0
90393,73,-41,254,0
90404,26,-10,265,0
90415,-37,24,332,0
90426,-42,34,426,0
90437,-17,84,511,0
90448,6,95,511,0
90459,34,98,511,0
90470,61,96,482,0
90481,79,68,454,0
90492,84,37,424,0
90503,82,18,397,0
90514,78,11,377,0
90525,70,6,353,0
90536,65,-8,326,0
90547,47,-12,305,0
90558,25,-26,284,0
90569,24,-32,258,0
90581,43,-4,234,0
90592,35,43,193,0
90603,58,62,158,0
90614,66,51,110,0
90625,76,37,62,0
90636,89,14,14,0
90647,100,-1,-10,0
90658,96,-14,-42,0
90669,86,-11,-60,0
90680,74,1,-58,1
90691,71,13,-46,0
90702,73,19,-14,0
90713,90,7,-6,0
90724,119,-6,19,0
90735,184,-13,60,0
90746,131,27,144,0
90757,117,15,285,0
90768,154,56,285,0
90779,92,23,285,0
90790,75,4,324,0
90801,43,-23,340,0
90812,-19,-31,389,0
90823,-41,-17,424,1
90834,-44,-25,416,0
90845,-40,-33,390,0
90856,-37,-17,398,0
90867,-22,-2,411,0
90878,-34,17,439,0
90889,-43,16,434,0
90900,-50,18,392,0
90911,-35,30,307,0
90922,-13,38,282,0
90933,4,62,295,0
90944,15,73,304,0
90955,16,65,289,0
90966,33,58,269,0
90977,47,47,231,0
90988,57,19,196,0
90999,62,0,177,0
91010,57,-12,158,0
91021,43,-9,125,0
91032,27,-11,84,0
91043,16,-10,46,0
91054,11,-17,18,0
91065,4,-12,10,0
91076,-22,10,25,0
91087,-17,18,26,1
91098,17,30,18,0
91109,96,96,3,0
91120,178,86,62,0
91131,159,-34,153,0
91142,186,-34,169,0
91153,157,-74,200,0
91164,129,-45,244,0
91175,94,-7,324,0
91186,55,0,440,0
91197,13,-18,506,0
91208,-4,32,511,1
91219,15,76,511,0
91230,50,92,511,0
91241,32,46,412,0
91252,20,27,382,0
91263,10,24,369,0
91274,1,22,370,0
91285,-2,14,359,0
91296,-9,7,341,0
91307,-24,-1,311,0
91318,-25,-2,285,0
91329,-15,-11,248,0
91340,-3,8,227,0
91351,9,6,185,0
91362,38,24,141,0
91373,59,37,97,0
91384,74,35,62,0
91395,94,27,28,0
91406,117,-4,-22,0
91417,118,-15,-49,0
91428,113,-5,-57,0
91439,104,1,-68,0
91450,99,16,-66,1
91461,107,26,-26,0
91472,122,17,26,0
91483,139,21,66,0
91495,235,59,165,0
91506,244,-7,354,0
91517,80,36,266,0
91528,172,19,398,0
91539,74,29,307,0
91550,43,-64,265,0
91561,-22,-70,300,0
91572,-33,-38,367,0
91583,-36,-10,405,0
91594,-24,12,433,1
91605,-9,24,446,0
91616,-10,28,442,0
91627,-14,33,448,0
91638,-20,30,438,0
91649,-31,14,401,0
91660,-38,6,374,0
91671,-27,11,327,0
91682,-5,27,299,0
91693,-6,49,284,0
91704,2,45,262,0
91715,23,58,240,0
91726,38,56,222,0
91737,60,43,198,0
91748,72,17,165,0
91759,76,3,138,0
91770,65,1,121,0
91781,47,4,91,0
91792,30,12,66,0
91803,37,11,53,0
91814,48,6,43,1
91825,39,23,23,0
91836,19,33,7,0
91847,1,26,-1,0
91858,-6,12,-3,0
91869,26,12,-9,0
91880,171,78,5,0
91891,147,-60,116,0
91902,136,-102,200,0
91913,103,-123,253,0
91924,83,-60,276,0
91935,47,-13,329,0
91946,17,8,448,0
91957,-14,3,511,0
91968,-23,43,511,1
91979,-4,90,511,0
91990,3,87,511,0
92001,2,54,476,0
92012,0,30,438,0
92023,-13,18,428,0
92034,-17,3,415,0
92045,-27,0,371,0
92056,-30,-10,340,0
92067,-32,-23,326,0
92078,-23,-15,310,0
92089,-16,-1,287,0
92100,3,19,251,0
92111,27,38,219,0
92122,37,40,176,0
92133,39,24,140,0
92144,51,25,100,0
92155,51,30,61,0
92166,46,27,21,0
92177,50,12,-15,0
92188,54,5,-35,0
92199,66,-5,-63,0
92210,74,-15,-60,0
92221,76,-8,-50,0
92232,96,-21,-24,0
92243,142,-9,-3,1
92254,169,-1,40,0
92265,198,5,107,0
92276,186,9,187,0
92287,176,2,241,0
92298,158,24,264,0
92309,163,7,335,0
92320,164,11,380,0
92331,106,19,419,0
92342,79,6,403,0
92353,15,-43,352,0
92364,-62,-67,308,0
92375,-61,-63,314,0
92386,-54,-26,361,0
92397,-47,11,398,0
92408,-51,33,418,0
92419,-41,50,419,0
92430,-39,48,400,0
92441,-41,33,364,0
92452,-35,33,347,0
92463,-26,33,329,0
92474,-16,33,319,0
92485,-10,33,303,0
92496,-15,29,282,0
92507,-5,27,257,0
92518,4,21,223,0
92530,15,2,165,0
92540,21,1,136,0
92551,27,3,111,0
92562,29,12,78,0
92573,31,7,50,0
92584,28,1,23,0
92595,5,-2,-6,0
92606,-19,-3,-30,0
92617,-21,5,-33,1
92628,35,31,-27,0
92639,92,63,3,0
92650,152,32,77,0
92661,169,-15,140,0
92672,185,-7,181,0
92683,168,-34,200,0
92694,123,3,283,0
92705,80,-5,381,0
92716,57,-5,469,0
92727,39,13,511,0
92738,31,39,511,1
92749,34,67,511,0
92760,43,70,511,0
92771,38,41,452,0
92782,28,26,404,0
92793,16,21,377,0
92804,4,16,356,0
92815,-6,13,332,0
92826,-11,-2,307,0
92837,-26,-16,290,0
92848,-35,-19,264,0
92859,-24,-15,244,0
92870,1,-22,213,0
92881,18,17,164,0
92892,34,7,145,0
92903,63,14,120,0
92914,80,15,75,0
92925,99,1,28,0
92936,111,-10,14,0
92947,113,-11,0,0
92958,101,-10,-21,0
92969,93,6,-36,0
92980,92,25,-54,1
92991,105,22,-49,0
93002,116,13,-15,0
93013,176,13,112,0
93024,227,8,259,0
93035,112,40,213,0
93046,97,59,313,0
93057,96,54,312,0
93068,66,-5,293,0
93079,56,-36,287,0
93090,24,-61,288,0
93101,-34,-63,328,0
93112,-40,-43,384,1
93123,-51,-39,396,0
93134,-45,-22,405,0
93145,-41,-4,424,0
93156,-47,14,439,0
93167,-53,23,438,0
93178,-62,33,375,0
93189,-53,33,327,0
93200,-36,31,299,0
93211,-18,42,280,0
93222,-10,56,270,0
93233,-18,67,258,0
93244,-8,65,237,0
93255,4,65,209,0
93266,18,58,191,0
93277,35,38,175,0
93288,43,15,154,0
93299,43,10,143,0
93310,36,11,134,0
93321,28,17,127,0
93332,34,10,98,0
93343,39,9,72,0
93354,32,-5,44,0
93365,22,-11,21,1
93376,17,-12,1,0
93387,40,4,-10,0
93398,80,12,-8,0
93409,119,30,0,0
93420,162,47,9,0
93431,207,49,39,0
93442,196,-72,124,0
93453,152,-213,232,0
93464,128,-129,291,0
93475,92,-47,362,0
93486,81,17,457,0
93497,53,73,511,1
93508,46,84,511,0
93519,45,63,511,0
93530,37,43,460,0
93541,21,34,441,0
93552,-7,30,434,0
93563,-41,33,425,0
93574,-50,42,416,0
93585,-51,44,407,0
93596,-31,45,383,0
93607,-7,56,349,0
93618,5,55,303,0
93629,12,43,247,0
93641,25,51,174,0
93652,30,55,151,0
93663,28,57,130,0
93674,20,61,120,0
93685,1,67,118,0
93696,-11,50,136,0
93707,0,58,130,0
93718,3,57,92,0
93729,11,68,38,0
93740,9,55,2,0
93751,25,55,8,0
93762,51,54,16,0
93773,86,47,40,0
93784,129,58,68,0
93795,156,90,95,1
93806,143,70,174,0
93817,135,36,188,0
93828,145,40,181,0
93839,138,40,169,0
93850,138,32,157,0
93861,133,60,170,0
93872,116,75,190,0
93883,106,92,218,0
93894,118,106,273,0
93905,149,123,374,0
93916,148,141,479,0
93927,140,159,474,0
93939,112,83,374,0
93949,84,38,282,0
93960,65,26,250,0
93971,52,47,293,0
93982,41,58,319,0
93993,25,65,326,0
94004,9,64,323,0
94015,-7,60,314,0
94026,-15,48,309,0
94037,-11,32,298,0
94048,-3,30,278,0
94059,2,35,261,0
94070,7,40,238,0
94081,15,56,211,0
94092,21,69,187,0
94103,33,74,166,0
94114,49,81,163,0
94125,61,79,167,0
94136,79,67,163,0
94147,84,57,136,0
94158,83,44,109,1
94169,76,27,96,0
94180,78,8,92,0
94191,97,15,87,0
94202,115,11,83,0
94213,129,5,67,0
94224,123,2,40,0
94235,123,-32,28,0
94246,129,-39,15,0
94257,110,-11,2,0
94268,87,-90,157,0
94279,96,-17,322,0
94290,68,-17,355,0
94301,5,6,379,0
94312,-50,-4,430,0
94323,-89,58,498,0
94334,-102,86,498,0
94345,-113,83,488,0
94356,-107,64,467,0
94367,-92,60,455,0
94378,-76,58,449,0
94389,-60,60,431,0
94400,-41,52,397,0
94411,-20,39,359,0
94422,4,33,325,0
94433,24,37,291,0
94444,46,31,232,0
94455,68,43,179,0
94466,59,45,120,0
94477,60,36,109,0
94488,65,28,114,0
94499,69,28,120,0
94510,75,14,126,0
94521,79,2,133,0
94532,80,-9,138,0
94543,77,-10,125,0
94554,65,1,94,0
94565,59,14,43,1
94576,56,22,-14,0
94587,44,-12,-7,0
94598,41,5,-5,0
94609,61,15,14,0
94620,160,-26,195,0
94631,164,29,276,0
94642,132,85,330,0
94653,121,45,351,0
94664,124,10,340,0
94675,83,-29,306,0
94686,43,-62,294,1
94698,22,-55,289,0
94709,-4,-43,295,0
94720,-39,-51,303,0
94731,-36,-43,326,0
94742,-18,-18,366,0
94753,-12,10,399,0
94764,-21,35,424,0
94775,-36,61,382,0
94786,-21,61,348,0
94797,5,45,313,0
94808,32,35,289,0
94819,58,31,271,0
94830,69,32,269,0
94841,71,35,281,0
94852,58,37,289,0
94864,35,20,276,0
94875,20,-11,238,0
94886,1,-32,206,0
94897,-17,-30,163,0
94908,-24,-19,107,0
94919,-13,-8,18,0
94930,-2,-18,-10,0
94941,-5,-38,-15,1
94952,-8,-52,-8,0
94963,-10,-36,5,0
94974,13,-6,20,0
94985,57,26,58,0
94996,91,42,127,0
95007,94,35,216,0
95018,105,19,272,0
95029,111,20,296,0
95040,102,21,307,0
95051,87,24,334,1
95062,74,29,394,0
95073,74,72,498,0
95084,91,80,511,0
95095,102,94,511,0
95106,99,88,493,0
95117,91,57,432,0
95128,75,30,378,0
95139,57,9,344,0
95150,41,-5,316,0
95161,26,-27,286,0
95172,4,-50,259,0
95183,-19,-69,254,0
95194,-34,-76,253,0
95205,-37,-64,247,0
95216,-31,-43,232,0
95227,-7,-6,225,0
95238,21,28,182,0
95249,67,26,94,0
95260,97,22,51,0
95271,107,11,8,0
95282,104,0,-24,1
95293,96,-2,-51,0
95305,86,-1,-60,0
95316,82,0,-64,0
95327,75,-4,-65,0
95338,70,-11,-26,0
95349,96,-19,2,0
95360,146,-23,57,0
95371,169,-56,144,0
95382,128,36,181,0
95393,88,110,333,0
95404,17,45,344,1
95415,11,15,385,0
95426,39,-22,374,0
95437,41,-52,344,0
95448,48,-65,320,0
95459,39,-64,325,0
95470,32,-63,344,0
95481,22,-44,366,0
95492,24,-17,382,0
95503,15,12,382,0
95514,2,38,382,0
95525,-10,53,383,0
95536,-22,59,381,0
95547,-39,68,374,0
95558,-29,41,309,0
95569,-20,12,258,0
95580,-4,-11,218,0
95591,15,-21,207,0
95602,40,-15,179,0
95613,55,-4,137,0
95624,58,-8,93,0
95635,60,-9,53,0
95646,55,-16,16,0
95657,33,-26,-10,0
95668,10,-27,-18,0
95679,-6,-8,-15,0
95690,6,4,-8,1
95701,50,16,1,0
95712,125,26,20,0
95723,177,-86,167,0
95734,141,-105,202,0
95745,122,-26,197,0
95756,101,17,258,0
95767,97,43,372,0
95778,89,56,487,0
95789,78,92,511,0
95800,51,100,511,0
95811,65,126,511,1
95822,82,85,511,0
95833,80,38,419,0
95844,70,19,378,0
95855,66,-12,379,0
95866,77,-19,383,0
95877,79,1,348,0
95888,51,-16,335,0
95899,42,-39,296,0
95910,37,-33,253,0
95921,35,-28,201,0
95932,30,-24,156,0
95943,33,-19,112,0
95954,34,-3,79,0
95965,35,-4,39,0
95976,11,2,11,0
95987,-10,-11,-20,0
95998,-12,-6,-59,0
96009,-2,-12,-72,0
96020,33,-26,-69,0
96031,67,-17,-64,0
96042,93,-10,-38,0
96053,113,37,25,0
96064,99,56,97,1
96075,99,59,171,0
96086,100,32,184,0
96097,86,29,209,0
96108,78,21,305,0
96119,75,26,371,0
96130,60,5,392,0
96141,34,4,448,0
96152,19,32,463,0
96163,25,29,403,0
96174,23,-19,334,0
96185,27,-31,326,0
96196,6,-22,362,0
96207,-11,-3,414,0
96218,-68,46,464,0
96229,-88,56,456,0
96240,-93,54,416,0
96251,-79,45,363,0
96262,-66,38,313,0
96273,-47,27,282,0
96284,-30,25,253,0
96295,-12,25,219,0
96306,0,23,175,0
96317,17,13,118,0
96328,30,1,84,0
96340,40,-17,74,0
96351,38,-2,82,0
96362,40,1,36,0
96373,37,-17,13,0
96384,25,-27,4,0
96395,25,-38,-9,0
96406,42,-53,-15,1
96417,77,-66,-18,0
96428,117,-72,-12,0
96439,139,-60,19,0
96450,155,-31,65,0
96461,146,-2,132,0
96472,131,-4,202,0
96483,118,5,277,0
96494,97,6,356,0
96505,94,27,449,0
96516,91,72,511,0
96527,96,94,511,1
96538,91,73,511,0
96549,73,64,511,0
96560,47,52,461,0
96571,25,40,432,0
96582,7,34,409,0
96593,-6,33,397,0
96604,-22,19,391,0
96615,-31,4,380,0
96626,-34,-9,342,0
96637,-35,-21,311,0
96648,-24,-39,285,0
96659,-7,-44,243,0
96670,7,-39,198,0
96681,24,-35,168,0
96692,73,2,89,0
96703,79,27,23,0
96714,84,17,-17,0
96725,90,1,-70,0
96736,64,-2,-109,0
96747,41,17,-118,0
96758,24,33,-111,0
96769,6,33,-107,0
96780,4,9,-96,0
96791,14,-1,-58,0
96802,40,2,-8,1
96813,66,3,42,0
96824,76,21,99,0
96835,74,29,153,0
96846,148,-12,327,0
96857,259,7,401,0
96868,209,73,445,0
96879,179,73,511,0
96890,132,6,489,0
96901,110,-36,425,0
96912,123,-48,352,0
96923,91,-94,308,1
96934,51,-101,319,0
96945,31,-78,360,0
96956,23,-40,409,0
96967,10,0,440,0
96978,5,34,454,0
96989,-14,52,454,0
97000,-31,61,446,0
97011,-46,60,393,0
97022,-39,50,347,0
97033,-32,30,292,0
97044,-25,4,246,0
97055,-1,-11,201,0
97066,15,-21,158,0
97077,25,-16,131,0
97088,20,-22,91,0
97099,13,-26,64,0
97110,11,-11,43,0
97121,12,2,27,0
97132,6,19,18,0
97143,-4,29,9,0
97154,-8,35,4,1
97165,1,30,3,0
97176,22,-9,-13,0
97187,42,-19,-23,0
97198,70,-24,-23,0
97209,108,-12,-10,0
97220,157,26,17,0
97231,144,14,83,0
97242,108,-94,194,0
97253,90,-66,264,0
97264,81,-37,302,1
97275,87,-2,410,0
97286,95,30,511,0
97297,94,31,511,0
97308,104,46,511,0
97319,108,56,511,0
97330,98,39,498,0
97341,44,5,439,0
97352,26,-2,434,0
97363,14,6,432,0
97374,10,22,425,0
97385,7,35,415,0
97396,3,26,404,0
97407,6,2,378,0
97418,16,-16,362,0
97429,22,-28,319,0
97440,10,-15,262,0
97451,-1,-1,209,0
97462,-10,4,185,0
97473,-4,1,146,0
97484,-4,18,112,0
97495,-9,25,93,0
97506,-25,28,30,0
97517,-26,1,-1,0
97528,-5,-14,-26,0
97539,9,-8,-43,0
97550,14,-12,-51,0
97561,23,-11,-49,0
97572,28,-9,-30,1
97583,40,-5,-12,0
97594,129,7,76,0
97605,198,-53,204,0
97616,220,49,215,0
97627,178,-16,394,0
97638,162,90,383,0
97649,118,25,363,0
97660,71,-30,324,0
97671,44,-15,373,0
97682,-21,-3,403,0
97693,-6,8,392,0
97704,21,-25,326,0
97715,69,-33,294,0
97726,107,-17,310,0
97737,117,-9,324,0
97748,95,2,335,0
97759,72,5,329,0
97770,64,2,312,0
97781,60,-5,276,0
97792,50,0,247,0
97803,39,3,212,0
97814,24,13,191,0
97825,-10,23,147,0
97836,-22,30,139,0
97847,-27,35,131,0
97858,-11,34,131,0
97869,10,37,133,0
97880,28,42,140,0
97891,36,47,146,0
97902,42,51,161,0
97913,45,49,172,0
97924,47,46,186,0
97935,46,40,185,0
97946,31,33,183,0
97957,5,21,175,0
97968,-19,11,171,1
97979,-43,0,168,0
97990,-76,-15,170,0
98001,-90,-12,182,0
98012,-93,-14,193,0
98023,-48,0,189,0
98034,3,52,218,0
98045,24,-49,272,0
98056,88,-55,296,0
98067,79,-11,332,0
98078,77,-39,386,0
98089,122,-10,351,0
98100,174,-1,294,0
98111,191,-13,278,0
98122,189,-16,284,1
98133,174,1,289,0
98144,147,8,315,0
98155,81,4,341,0
98166,49,21,342,0
98177,9,43,349,0
98188,-31,46,338,0
98199,-52,33,307,0
98210,-50,18,283,0
98221,-40,14,263,0
98232,-24,13,244,0
98243,-2,18,215,0
98254,15,24,193,0
98265,23,22,180,0
98276,31,19,159,0
98287,43,16,148,0
98298,50,11,144,0
98309,54,4,140,0
98320,52,-4,144,0
98331,49,-12,150,0
98342,51,-9,152,0
98353,50,-9,154,0
98364,46,-8,151,0
98375,43,-10,153,0
98386,40,-10,160,0
98397,36,-16,179,0
98408,38,-15,190,0
98419,37,-10,197,0
98430,32,-8,211,0
98441,18,2,222,0
98452,2,2,229,0
98463,-19,7,235,0
98474,-42,7,245,0
98485,-46,20,245,0
98496,-39,21,242,0
98507,-31,17,248,1
98518,-15,13,246,0
98529,-12,6,255,0
98540,-1,-3,265,0
98551,0,-6,265,0
98562,-7,-12,260,0
98573,0,-16,253,0
98584,101,52,344,0
98595,66,91,351,0
98606,65,30,324,0
98617,95,6,321,0
98628,88,6,266,0
98639,145,55,389,0
98650,127,22,325,0
98661,120,2,260,1
98672,95,3,233,0
98683,72,7,207,0
98694,58,15,181,0
98705,52,9,164,0
98716,52,13,153,0
98727,54,17,145,0
98738,57,18,150,0
98749,74,28,166,0
98760,88,38,174,0
98771,103,45,182,0
98782,115,40,186,0
98793,125,33,190,0
98804,123,29,192,0
98815,112,29,192,0
98826,101,35,196,0
98837,86,38,204,0
98848,73,42,210,0
98859,65,50,212,0
98870,58,58,218,0
98881,48,53,226,0
98892,42,51,223,0
98903,39,51,223,0
98914,37,53,223,0
98925,36,51,223,0
98936,40,43,219,0
98947,44,42,217,0
98958,49,40,216,0
98969,55,42,217,0
98980,59,46,214,0
98991,62,45,213,0
99002,63,47,217,0
99013,63,47,220,0
99024,62,43,225,0
99035,64,43,229,0
99046,64,48,224,0
99057,62,50,221,0
99068,60,48,220,0
99079,60,42,221,0
99090,61,40,222,0
99101,60,39,225,0
99112,60,37,225,0
99123,60,32,225,0
99134,56,29,225,0
99145,53,28,222,0
99156,50,31,222,0
99167,43,28,221,0
99178,38,25,221,0
99189,32,27,221,0
99200,29,36,219,0
99211,25,43,220,0
99222,27,39,221,0
99233,30,38,221,0
99244,33,42,221,0
99255,35,45,223,1
99266,33,46,229,0
99277,27,43,230,0
99288,17,39,229,0
99299,1,42,223,0
99310,1,50,221,0
99321,3,52,222,0
99332,15,58,215,0
99343,42,75,211,0
99354,59,80,230,0
99365,62,67,251,0
99376,53,57,253,0
99387,37,54,255,0
99398,26,49,254,1
99409,24,49,254,0
99420,31,50,251,0
99431,42,52,249,0
99442,52,46,249,0
99453,64,41,248,0
99464,71,44,233,0
99475,66,47,233,0
99486,61,47,231,0
99497,58,43,223,0
99508,60,39,218,0
99519,61,41,215,0
99530,62,38,216,0
99541,63,26,220,0
99552,67,17,220,0
99563,74,11,219,0
99574,83,2,217,0
99585,92,-9,213,0
99596,99,-16,209,0
99607,108,-19,203,0
99618,114,-22,202,0
99629,110,-23,206,0
99640,103,-20,218,0
99651,92,-20,231,0
99662,77,-13,245,0
99673,66,-7,252,0
99684,59,-4,251,0
99695,46,-1,254,0
99706,40,1,261,0
99717,32,2,262,0
99728,25,5,258,0
99739,24,-9,252,0
99750,31,-2,239,0
99761,37,1,222,0
99772,38,1,209,0
99783,46,14,217,0
99794,45,18,219,0
99805,41,19,221,0
99816,42,17,227,0
99827,41,15,229,0
99838,41,9,234,0
99849,42,2,235,0
99860,44,0,236,0
99871,45,-4,226,0
99882,42,-5,221,0
99893,39,-5,221,0
99905,34,-1,223,0
99915,28,-2,224,0
99926,24,0,224,0
99937,20,3,225,0
99948,14,9,226,0
99959,12,11,226,0
99970,12,13,225,0
99981,11,14,226,0
99992,10,12,225,0
100003,9,9,223,0
100014,9,8,224,0
100025,10,4,223,0
100036,11,3,225,0
100047,12,0,225,0
100058,14,-5,230,0
100069,15,-6,231,0
100080,16,-5,228,0
100091,19,-8,225,0
100102,23,-4,227,0
100113,26,1,225,0
100124,25,3,224,0
100135,24,5,224,0
100146,20,9,227,0
100157,14,14,231,0
100168,7,12,233,0
100179,1,9,234,0
100190,-1,7,236,0
100201,0,2,238,0
100212,3,1,229,0
100223,4,0,224,0
100234,6,-2,225,0
100245,10,-2,226,0
100256,11,-1,224,0
100267,12,0,224,0
100278,18,-4,228,0
100289,22,-3,226,0
100300,23,-4,222,0
100311,24,-7,219,0
100322,26,-10,219,0
100333,28,-11,219,0
100344,28,-13,222,0
100355,28,-12,224,0
100366,27,-14,235,0
100377,32,-13,240,0
100388,33,-1,236,0
100399,32,1,235,0
100410,28,5,243,0
100421,21,6,250,0
100432,18,3,256,0
100443,19,-10,260,0
100454,24,-24,261,0
100465,22,-23,255,0
100476,29,-17,247,0
100487,39,-9,248,0
100498,52,1,245,0
100509,51,6,246,0
100520,57,7,250,1
100531,57,6,246,0
100542,48,3,246,0
100553,41,-5,247,0
100564,34,-8,238,0
100575,32,-4,229,0
100586,33,-6,226,0
100597,48,-13,219,0
100608,57,-10,217,0
100619,60,-11,219,0
100630,58,-10,217,0
100641,54,-5,213,0
100652,52,-5,210,0
100663,52,-4,213,0
100674,58,-6,212,1
100685,64,-3,217,0
100696,65,-3,223,0
100707,65,-1,222,0
100718,63,-1,221,0
100729,66,-1,216,0
100740,68,0,202,0
100751,65,0,202,0
100762,63,3,196,0
100773,63,2,202,0
100784,63,5,208,0
100795,64,14,220,0
100806,64,23,228,0
100817,61,25,230,0
100828,57,26,230,0
100839,52,26,237,0
100850,50,25,232,0
100861,54,25,235,0
100872,53,19,233,0
100883,55,16,229,0
100894,54,18,229,0
100905,57,13,236,0
100916,58,12,235,0
100927,48,8,230,0
100938,41,5,223,0
100949,38,2,218,0
100960,36,1,216,0
100971,34,-2,215,0
100982,31,-4,212,0
100993,31,-1,214,0
101004,33,0,220,0
101015,27,2,228,0
101026,25,5,231,0
101037,24,9,236,0
101048,21,9,237,0
101059,21,9,237,0
101070,26,9,235,0
101081,32,7,237,0
101092,46,6,235,0
101103,52,3,235,0
101114,56,2,236,0
101125,58,1,231,0
101136,60,0,227,0
101147,55,-3,225,0
101158,49,-6,224,0
101169,43,-5,219,0
101180,35,-5,215,0
101191,30,-3,217,0
101202,28,4,221,0
101213,30,9,228,0
101224,31,10,234,0
101235,34,16,238,0
101246,40,18,241,0
101257,41,17,237,0
101268,44,18,232,0
101279,40,15,229,0
101290,36,13,230,0
101301,36,6,229,0
101312,42,1,228,0
101323,48,3,224,0
101334,47,8,225,0
101345,48,14,230,0
101356,48,20,231,0
101367,46,27,234,0
101378,45,26,234,0
101389,48,10,236,0
101400,47,11,223,0
101411,50,9,220,0
101422,51,7,216,0
101433,53,9,219,0
101444,52,10,225,0
101455,50,13,228,0
101466,48,14,231,0
101477,46,13,234,0
101488,45,8,233,0
101499,45,5,222,0
101511,44,10,219,0
101522,44,9,217,0
101533,44,11,220,0
101544,45,8,217,0
101555,45,10,219,0
101566,37,13,221,0
101577,36,19,225,0
101588,38,21,226,0
101599,38,23,230,0
101610,43,20,231,0
101621,45,18,228,0
101632,47,16,229,0
101643,46,13,230,0
101654,50,18,232,0
101665,50,17,235,0
101676,52,15,233,0
101687,52,17,230,0
101698,52,21,229,0
101709,51,25,228,0
101720,48,29,226,0
101731,49,34,226,0
101742,52,38,226,0
101753,57,44,224,0
101764,62,48,226,0
101775,69,48,228,0
101786,73,54,230,0
101797,77,61,229,0
101808,83,61,230,0
101819,85,59,230,0
101830,83,57,227,0
101841,79,54,223,0
101852,74,59,220,0
101863,73,58,219,0
101874,79,60,218,0
101885,81,63,216,0
101896,89,65,210,0
101907,90,68,208,0
101918,93,68,211,0
101929,95,66,209,0
101940,97,66,208,0
101951,94,62,210,0
101962,93,63,209,0
101973,98,61,209,0
101984,100,62,211,0
101995,101,61,211,0
102006,102,64,209,0
102017,105,64,207,0
102028,110,66,204,0
102039,112,64,206,0
102050,109,64,207,0
102061,107,63,199,0
102072,107,62,201,0
102083,109,61,198,0
102094,109,61,196,0
102105,107,60,198,0
102116,107,60,198,0
102127,107,61,200,0
102138,108,63,200,0
102149,107,65,201,0
102160,107,70,199,0
102171,108,75,199,0
102182,108,78,198,0
102193,108,81,195,0
102204,107,82,198,0
102215,102,70,209,0
102226,107,119,178,0
102237,102,77,210,0
102248,93,83,192,0
102259,94,93,197,0
102270,83,79,198,1
102281,77,64,186,0
102292,75,54,181,0
102303,76,38,179,0
102314,75,22,185,0
102325,71,3,190,0
102336,66,-4,192,0
102347,53,4,212,0
102358,39,26,249,0
102369,39,48,284,0
102380,62,63,311,0
102391,66,51,311,0
102402,76,51,321,1
102413,81,37,327,0
102424,84,27,327,0
102435,79,12,315,0
102446,68,1,294,0
102457,65,-10,276,0
102468,63,-17,262,0
102479,61,-25,251,0
102490,69,-23,237,0
102501,71,-21,225,0
102512,72,-21,218,0
102523,70,-26,216,0
102534,66,-27,222,0
102545,59,-18,211,0
102556,51,-15,202,0
102567,49,-14,197,0
102578,51,-12,194,0
102589,52,-9,191,0
102600,45,-7,196,0
102611,35,-7,200,0
102622,31,-9,200,0
102633,31,-4,199,0
102644,28,-2,201,0
102655,25,-1,205,0
102666,24,-1,206,0
102677,27,-1,208,0
102688,25,1,208,0
102699,20,1,207,0
102710,4,11,206,0
102721,1,17,206,0
102732,-1,22,206,0
102743,-3,22,216,0
102754,-7,24,216,0
102765,-11,27,216,0
102776,-13,27,220,0
102787,-13,27,225,0
102798,-10,25,226,0
102809,-7,25,224,0
102820,-7,21,221,0
102832,-10,14,229,0
102843,-2,8,235,0
102854,8,-1,222,0
102865,15,-10,225,0
102876,21,-12,220,0
102887,22,-12,219,0
102898,19,-11,216,0
102909,13,-3,216,0
102920,2,-11,228,0
102931,-4,-4,243,0
102942,-21,-1,253,0
102953,-30,3,250,0
102964,-40,7,239,0
102975,-53,2,242,0
102986,-52,-2,253,1
102997,-41,1,255,0
103008,-13,2,273,0
103019,79,17,339,0
103030,135,42,371,0
103041,180,71,422,0
103052,180,74,432,0
103063,165,34,374,0
103074,122,10,289,0
103085,128,4,216,0
103096,121,-19,176,0
103107,116,-34,161,0
103118,90,-39,165,0
103129,66,-41,168,1
103140,47,-30,173,0
103151,39,-19,189,0
103162,42,-16,191,0
103173,47,-4,204,0
103184,58,-2,201,0
103195,58,-4,197,0
103206,51,0,192,0
103217,46,6,189,0
103228,44,4,187,0
103239,39,2,185,0
103250,36,9,191,0
103261,37,9,202,0
103272,45,5,201,0
103283,41,1,189,0
103294,37,-3,177,0
103305,38,-3,176,0
103316,37,-3,179,0
103327,30,-1,181,0
103338,18,2,188,0
103349,0,10,208,0
103360,-6,15,217,0
103371,-1,18,221,0
103382,4,21,219,0
103393,11,20,216,0
103404,22,20,218,0
103415,31,23,216,0
103426,38,22,220,0
103437,40,20,226,0
103448,38,14,233,0
103459,33,11,235,0
103470,31,15,228,0
103481,27,10,225,0
103492,21,0,218,0
103503,22,-7,211,0
103514,38,-11,203,0
103525,42,-10,205,0
103536,42,0,210,0
103547,35,5,217,0
103558,26,14,228,0
103569,10,28,241,0
103580,-2,42,261,0
103591,-20,55,287,0
103602,-39,66,295,0
103613,-56,75,290,0
103624,-66,80,282,0
103635,-75,50,289,1
103646,-92,59,252,0
103657,-102,43,236,0
103668,-73,8,232,0
103679,13,-35,295,0
103690,4,-63,371,0
103701,-22,-40,423,0
103712,-23,0,431,0
103723,16,31,404,0
103734,69,34,340,0
103745,116,31,279,0
103756,145,37,256,0
103767,159,41,244,1
103778,163,40,232,0
103789,162,24,212,0
103800,145,10,194,0
103811,127,-2,192,0
103822,109,-7,190,0
103833,86,-5,189,0
103844,41,2,180,0
103855,27,1,178,0
103866,22,0,174,0
103877,26,-6,164,0
103888,32,-8,159,0
103899,35,-11,159,0
103910,35,-7,163,0
103921,37,-1,178,0
103932,43,1,191,0
103943,45,-4,198,0
103955,55,-1,207,0
103966,56,5,199,0
103977,53,3,199,0
103988,38,2,205,0
103999,29,-8,201,0
104010,20,-14,201,0
104021,14,-17,203,0
104032,5,-14,193,0
104043,-2,-10,190,0
104054,-8,-8,196,0
104065,-15,-7,198,0
104076,-19,-3,199,0
104087,-24,-4,201,0
104098,-25,0,204,0
104109,-25,2,204,0
104120,-29,5,208,0
104131,-32,5,213,0
104142,-32,-11,232,0
104153,-3,-14,268,0
104164,-9,-12,271,0
104175,-8,-9,265,0
104186,2,-9,253,0
104197,13,-8,257,0
104208,40,-2,274,0
104219,75,24,307,0
104230,110,67,347,1
104241,182,122,417,0
104252,245,102,481,0
104263,218,64,421,0
104274,193,10,345,0
104285,191,-50,213,0
104296,167,-44,172,0
104307,125,-30,173,0
104318,42,-22,196,0
104329,19,-14,210,0
104340,19,-2,219,0
104351,30,4,222,1
104362,40,16,224,0
104373,42,20,227,0
104384,39,21,220,0
104395,41,17,198,0
104406,49,19,174,0
104417,57,19,155,0
104428,65,19,139,0
104439,75,16,133,0
104450,79,19,136,0
104461,82,20,145,0
104472,83,19,154,0
104483,66,27,177,0
104494,61,29,187,0
104505,52,25,189,0
104516,37,22,190,0
104527,24,20,191,0
104538,12,20,195,0
104549,3,19,198,0
104560,2,18,207,0
104572,2,23,215,0
104583,2,31,215,0
104594,3,31,216,0
104605,5,31,218,0
104616,3,36,223,0
104627,2,41,237,0
104638,8,49,262,0
104649,12,41,272,0
104660,22,31,277,0
104671,32,21,282,0
104682,30,21,280,0
104693,17,20,277,1
104704,6,20,283,0
104715,-11,22,286,0
104726,-30,20,276,0
104737,-37,25,259,0
104748,-19,37,238,0
104759,8,45,214,0
104770,40,31,192,0
104781,68,0,167,0
104792,82,-39,139,0
104803,36,-53,165,0
104814,34,-19,205,0
104825,41,47,284,0
104836,58,59,341,1
104847,77,67,393,0
104858,84,71,438,0
104869,67,87,463,0
104880,41,76,454,0
104891,29,74,434,0
104902,34,82,408,0
104913,38,75,364,0
104924,32,57,338,0
104935,30,46,307,0
104946,33,39,295,0
104957,51,34,260,0
104968,54,36,219,0
104979,46,44,184,0
104990,33,30,154,0
105001,26,11,142,0
105012,25,4,143,0
105023,26,15,147,0
105034,32,36,151,0
105045,36,54,152,0
105056,43,50,140,0
105067,65,43,121,0
105078,82,22,99,0
105089,107,10,63,0
105100,130,7,45,0
105111,137,3,45,0
105122,122,-11,41,0
105133,107,-14,21,0
105144,104,-18,13,0
105155,113,-17,15,0
105166,125,-6,28,0
105177,160,34,61,1
105188,128,61,174,0
105199,101,42,170,0
105210,125,-15,256,0
105221,109,49,245,0
105232,105,16,293,0
105243,111,-40,309,0
105254,90,-41,355,0
105265,38,-9,409,0
105276,-14,4,444,0
105287,-42,18,467,0
105298,-8,11,448,0
105309,9,29,452,0
105320,6,43,446,0
105331,-20,41,414,1
105342,-43,35,388,0
105353,-34,51,388,0
105364,-29,73,380,0
105375,-28,82,353,0
105386,-18,79,334,0
105397,7,70,302,0
105408,25,65,260,0
105419,26,54,241,0
105430,25,29,212,0
105441,27,14,171,0
105452,5,31,103,0
105463,2,39,80,0
105474,1,54,49,1
105485,-1,69,20,0
105496,-9,66,6,0
105507,-5,47,-9,0
105518,6,24,-17,0
105529,22,0,-32,0
105540,36,-12,-47,0
105551,53,0,-43,0
105562,90,20,-40,0
105573,146,56,-34,0
105584,223,77,1,0
105595,247,0,95,0
105606,219,-133,187,0
105617,78,-98,278,0
105628,55,-32,377,0
105639,62,-19,511,0
105650,52,35,511,0
105661,42,98,511,0
105672,38,138,511,0
105683,46,125,511,0
105694,38,101,511,0
105705,15,80,484,0
105716,-3,59,453,0
105727,-10,51,455,0
105738,-18,39,410,0
105749,-28,18,381,0
105760,-22,23,334,0
105771,-6,6,268,0
105782,32,-57,188,0
105793,52,-44,129,0
105804,55,-40,102,0
105815,60,-14,98,0
105826,68,18,81,0
105837,78,32,51,0
105848,83,38,13,0
105859,80,43,-28,0
105870,78,36,-47,0
105881,75,17,-42,0
105892,67,12,-24,0
105903,60,-9,-30,0
105914,58,-7,-31,0
105925,66,-12,-10,0
105936,91,-12,27,1
105947,110,-11,93,0
105958,136,2,129,0
105969,196,17,249,0
105980,192,26,309,0
105991,145,58,371,0
106002,67,13,355,0
106013,55,-17,344,0
106024,49,-21,387,0
106035,-17,-29,395,0
106046,-66,-21,383,1
106057,-92,-1,402,0
106068,-76,17,428,0
106079,-47,32,435,0
106090,-41,44,445,0
106101,-48,53,446,0
106112,-57,23,400,0
106123,-23,15,362,0
106134,8,34,338,0
106145,8,53,314,0
106156,-3,47,286,0
106167,3,32,260,0
106178,12,16,214,0
106189,28,12,179,0
106200,40,1,132,0
106211,47,-5,95,0
106222,53,-22,60,0
106233,59,-21,36,0
106244,55,-8,22,0
106255,43,13,3,0
106266,30,41,-5,0
106277,-3,41,-14,1
106288,-10,32,-3,0
106299,1,28,-2,0
106310,30,31,-8,0
106321,96,43,-16,0
106332,192,106,23,0
106343,207,24,128,0
106354,229,-66,171,0
106365,177,-115,230,0
106376,114,-137,300,0
106387,108,-95,380,0
106398,121,-57,511,0
106409,93,-3,511,0
106420,71,85,511,1
106431,83,128,511,0
106442,68,69,457,0
106453,32,55,408,0
106464,-1,46,394,0
106475,-27,39,386,0
106486,-36,34,384,0
106497,-39,33,373,0
106508,-33,34,344,0
106519,-15,34,302,0
106530,4,39,262,0
106541,11,10,232,0
106552,9,-32,187,0
106563,13,-42,156,0
106574,16,-38,128,0
106585,16,-45,99,0
106596,28,-37,69,0
106607,48,-62,2,0
106618,72,-52,-33,0
106629,84,-34,-62,0
106640,92,-20,-73,0
106651,98,-20,-75,0
106662,106,-13,-82,0
106673,113,0,-77,0
106684,107,10,-84,0
106695,107,6,-54,0
106706,115,23,-38,1
106717,110,55,-24,0
106728,119,42,18,0
106739,138,85,84,0
106750,75,164,133,0
106761,144,91,288,0
106772,181,5,511,0
106783,125,97,511,0
106794,113,61,511,0
106805,92,-50,390,0
106816,124,-57,305,0
106827,73,-26,287,0
106838,55,-2,311,0
106849,59,17,346,1
106860,49,42,403,0
106871,38,68,447,0
106882,39,82,476,0
106893,35,87,503,0
106904,34,65,472,0
106915,49,35,405,0
106926,88,23,293,0
106937,104,39,267,0
106948,115,56,255,0
106959,125,54,228,0
106970,126,63,214,0
106981,123,68,204,0
106992,112,74,186,0
107003,98,81,149,0
107014,82,83,103,0
107025,66,74,63,0
107036,64,67,35,0
107047,47,57,31,0
107058,29,66,25,0
107069,3,63,8,0
107080,-24,79,4,0
107091,-29,55,-43,0
107102,-23,61,-41,0
107113,-9,51,-50,1
107124,19,42,-63,0
107135,44,56,-53,0
107146,45,72,-16,0
107157,18,61,42,0
107168,4,53,147,0
107179,7,44,267,0
107190,24,-1,349,0
107201,23,-81,394,0
107212,-12,-179,504,0
107223,-117,-151,511,0
107234,-195,-4,511,1
107245,-156,46,511,0
107256,-32,9,511,0
107267,-12,-12,481,0
107278,-17,-18,467,0
107289,-28,-27,463,0
107300,-32,-27,449,0
107311,-25,-25,435,0
107322,-9,-22,395,0
107333,5,-37,336,0
107344,14,-61,294,0
107355,18,-76,270,0
107366,36,-96,252,0
107377,68,-98,230,0
107388,103,-80,207,0
107399,120,-60,179,0
107410,120,-39,148,0
107421,112,-11,96,0
107432,97,-11,74,0
107443,82,-9,52,0
107454,73,-5,31,0
107465,71,8,10,0
107476,64,16,-4,0
107488,49,35,-17,0
107499,38,49,-40,0
107510,31,66,-69,0
107521,15,54,-81,0
107532,28,36,-67,0
107543,48,47,-91,0
107554,83,63,-67,0
107565,93,79,30,0
107576,191,124,230,0
107587,219,80,288,1
107598,244,141,411,0
107609,198,169,511,0
107620,88,140,511,0
107631,-24,84,508,0
107642,-139,53,429,0
107653,-241,42,433,0
107664,-275,54,499,0
107675,-291,52,502,0
107686,-243,59,511,0
107697,-223,50,495,0
107708,-172,40,453,0
107719,-156,50,449,1
107730,-67,28,368,1
107742,-47,30,320,0
107753,-49,31,276,0
107764,-58,23,233,0
107775,-44,12,195,0
107786,-33,-2,167,0
107797,-11,-15,141,0
107808,14,1,124,0
107819,46,37,93,0
107830,62,68,33,0
107841,80,55,-6,0
107852,97,49,-20,0
107863,108,25,-23,0
107874,109,-6,-61,0
107885,102,1,-40,0
107896,103,-30,-17,0
107907,105,-34,6,0
107918,109,-31,24,0
107929,140,-54,112,1
107940,168,-111,244,0
107951,157,-157,370,0
107962,87,-176,432,0
107973,33,-127,508,0
107984,27,-17,511,0
107995,70,95,511,0
108006,68,93,511,0
108017,89,56,511,0
108028,86,12,511,0
108039,57,-13,507,0
108050,51,-30,396,0
108061,34,-37,379,0
108072,29,-62,352,0
108083,17,-65,286,0
108094,2,-54,258,0
108105,-1,-17,217,0
108116,-20,21,157,0
108127,-24,23,122,0
108138,-22,22,87,0
108149,-13,16,52,0
108160,-1,4,22,0
108171,15,-2,-9,0
108182,30,-11,-43,0
108193,32,-2,-75,0
108204,29,11,-87,0
108215,24,5,-112,0
108226,32,1,-98,0
108237,48,-13,-72,0
108248,65,-16,-29,0
108259,75,4,13,0
108270,67,11,52,1
108281,86,10,76,0
108292,126,-67,179,0
108303,252,-7,159,0
108314,132,-35,290,0
108325,211,117,328,0
108336,136,55,316,0
108347,111,42,415,0
108358,66,24,477,0
108369,5,-3,511,0
108380,-60,-34,502,0
108391,-53,-44,452,1
108402,-32,-36,465,0
108413,-16,-6,486,0
108424,-22,3,471,0
108435,-28,20,447,0
108446,-36,29,413,0
108457,-34,31,396,0
108468,-17,46,379,0
108479,-1,55,330,0
108490,-11,60,281,0
108501,-10,55,240,0
108512,-1,32,208,0
108523,11,9,185,0
108534,23,3,178,0
108545,26,-1,102,0
108556,30,-6,68,0
108567,30,-1,42,0
108578,34,6,4,0
108589,43,8,-26,0
108600,40,1,-53,0
108611,29,-8,-52,0
108622,23,-25,-52,1
108633,26,-26,-51,0
108644,24,-15,-41,0
108655,25,-7,-34,0
108666,12,-11,-17,0
108677,14,2,-8,0
108688,81,52,-20,0
108699,178,131,22,0
108710,216,-128,312,0
108721,206,-186,450,0
108732,102,-132,465,0
108743,35,-17,511,0
108754,-13,31,511,1
108765,47,125,511,0
108776,113,138,511,0
108787,112,93,511,0
108798,82,72,511,0
108809,47,73,511,0
108820,-21,39,511,0
108831,-45,5,464,0
108842,-40,-39,417,0
108853,-19,-52,380,0
108864,-3,-29,344,0
108875,51,0,202,0
108886,61,5,122,0
108897,55,-13,62,0
108908,49,-24,16,0
108919,33,-33,-30,0
108930,21,-50,-55,0
108941,15,-58,-64,0
108952,27,-64,-73,0
108963,58,-61,-74,0
108974,87,-44,-78,0
108985,99,-12,-76,0
108996,95,10,-69,0
109007,71,22,-64,0
109018,44,21,-74,0
109029,31,2,-66,0
109040,26,-14,-9,1
109051,27,7,30,0
109062,41,-12,70,0
109073,114,-12,87,0
109084,83,94,72,0
109095,72,54,146,0
109106,129,64,289,0
109117,196,18,378,0
109128,216,35,463,0
109139,266,59,511,0
109150,185,18,511,0
109161,108,-5,511,1
109172,10,6,511,0
109183,-72,-30,493,0
109194,-119,-45,471,0
109205,-132,3,511,0
109216,-139,25,511,0
109227,-140,37,511,0
109238,-133,37,503,0
109249,-77,32,444,0
109260,-32,28,377,0
109271,5,43,323,0
109282,29,46,278,0
109293,44,33,248,0
109304,58,13,220,0
109315,62,10,213,0
109326,64,2,191,0
109337,57,8,156,0
109348,47,16,125,0
109359,36,8,84,0
109370,20,0,-17,0
109381,6,4,-53,0
109392,-13,-7,-72,0
109403,-21,-15,-74,0
109414,-19,-28,-68,0
109425,-11,-22,-69,0
109436,-1,-10,-55,0
109447,18,-8,-37,0
109458,32,12,-7,0
109469,57,34,6,1
109480,81,54,17,0
109491,118,52,42,0
109502,129,25,77,0
109513,163,54,114,0
109524,188,23,148,0
109535,203,-149,418,0
109546,106,-168,507,0
109557,-14,-53,505,0
109568,-105,55,511,0
109579,-64,114,511,0
109590,-12,148,511,0
109601,50,164,511,1
109612,45,104,511,0
109623,14,53,511,0
109634,1,21,481,0
109645,-9,-3,432,0
109656,-15,-25,400,0
109667,-27,-42,382,0
109678,-39,-39,361,0
109689,-36,-23,308,0
109700,-8,4,238,0
109711,24,28,182,0
109722,47,50,128,0
109733,47,47,81,0
109744,34,43,47,0
109755,18,18,2,0
109766,9,-20,-43,0
109777,8,-51,-78,0
109788,21,-67,-108,0
109799,60,-66,-119,0
109810,98,-54,-119,0
109821,116,-35,-83,0
109832,121,-40,-55,0
109843,120,-39,-34,0
109854,81,-32,-26,0
109865,62,-28,2,0
109876,54,-5,15,0
109887,20,14,47,1
109898,63,-24,154,0
109909,136,-5,328,0
109920,133,38,393,0
109931,151,90,449,0
109942,145,123,472,0
109953,68,80,413,0
109964,34,61,451,0
109975,-43,68,501,0
109986,-58,44,462,0
109997,-86,11,431,0
110008,-98,1,470,0
110019,-70,4,490,0
110030,-63,-6,441,0
110041,-54,-4,403,0
110052,-42,20,390,0
110063,-19,16,362,0
110074,-4,14,331,0
110085,-2,26,295,0
110096,10,47,287,0
110107,24,52,265,0
110118,33,39,230,0
110129,51,10,203,0
110140,66,-13,172,0
110151,66,-22,135,0
110162,62,-20,90,0
110173,45,-26,46,0
110184,12,-27,-15,0
110195,-5,-9,-32,0
110206,-29,-1,-36,0
110217,-34,-8,-20,0
110228,-13,-23,-7,0
110239,6,-23,-19,1
110250,22,-23,-27,0
110261,55,-4,-32,0
110272,86,37,-28,0
110283,117,41,1,0
110294,182,58,30,0
110305,214,115,89,0
110316,191,-72,249,0
110327,208,-180,434,0
110338,127,-137,425,0
110349,13,44,511,0
110360,77,91,511,0
110371,162,117,511,0
110382,149,93,511,0
110393,112,88,498,0
110404,78,51,487,0
110415,36,39,483,0
110426,-7,15,457,0
110437,-21,1,428,0
110448,-10,-13,395,0
110459,0,-11,355,0
110470,22,-7,292,0
110481,15,1,212,0
110492,16,1,165,0
110503,20,0,142,0
110514,28,-12,88,0
110525,18,-10,58,0
110536,14,-11,26,0
110547,21,-29,2,0
110558,32,-37,-36,0
110569,45,-35,-64,0
110580,58,-10,-77,0
110591,64,7,-74,0
110602,70,10,-70,0
110613,67,6,-59,0
110624,61,-20,-49,0
110635,49,-34,-22,0
110646,44,-49,-6,0
110657,46,-76,17,0
110668,67,-44,26,0
110679,25,40,147,1
110690,66,44,270,0
110701,131,87,389,0
110712,181,90,428,0
110723,207,118,511,0
110734,210,73,495,0
110745,179,-25,417,0
110756,125,-23,404,0
110767,54,3,398,0
110778,-15,-8,398,0
110789,-70,20,450,0
110800,-86,50,489,0
110811,-92,54,495,0
110822,-104,67,498,0
110833,-116,68,511,0
110844,-52,37,444,0
110855,-13,30,395,0
110866,10,8,319,0
110877,30,-3,269,0
110888,40,-9,238,0
110899,41,-4,225,0
110910,35,3,210,0
110921,32,3,190,0
110932,34,13,169,0
110943,31,16,154,0
110954,21,23,139,0
110965,4,20,113,0
110976,0,4,82,0
110987,0,-5,52,0
110998,17,-17,2,0
111009,28,-16,-23,0
111020,39,-15,-38,0
111031,54,-17,-55,0
111042,68,-4,-56,0
111053,88,28,-43,0
111064,113,40,-30,0
111075,126,41,3,1
111086,132,38,40,0
111097,130,24,103,0
111108,127,-2,179,0
111119,120,-7,245,0
111130,93,-3,320,0
111141,52,-12,403,0
111152,-3,-25,479,0
111163,-76,-37,511,0
111174,-78,-17,511,0
111185,-69,25,511,0
111196,-65,42,511,0
111207,-60,39,511,0
111218,-72,15,511,0
111229,-81,-3,511,0
111240,-83,-13,502,0
111251,-76,-21,479,0
111262,-70,-46,461,0
111273,-62,-43,431,0
111284,-51,-32,377,0
111295,-36,-23,314,0
111306,-26,-9,242,0
111317,-12,-1,175,0
111328,13,21,73,0
111339,27,21,44,0
111350,32,12,13,0
111361,38,1,-31,0
111372,51,0,-29,0
111383,60,-13,-36,0
111394,77,-7,-42,0
111406,89,-16,-52,0
111417,87,-15,-51,0
111428,81,-9,-48,0
111439,74,2,-40,0
111450,67,2,-32,0
111461,61,-6,-18,0
111472,58,-25,2,0
111483,47,-33,11,0
111494,17,-11,12,0
111505,19,-9,78,0
111516,60,-23,128,0
111527,96,-35,165,1
111538,145,-12,238,0
111549,193,23,306,0
111560,206,-149,511,0
111571,165,77,407,0
111582,84,64,400,0
111593,-16,27,444,0
111604,-85,26,482,0
111615,-115,5,502,0
111626,-123,1,511,0
111637,-161,33,511,1
111648,-166,49,511,0
111659,-146,63,502,0
111670,-111,52,498,0
111681,-60,52,484,0
111692,-9,51,437,0
111703,18,49,384,0
111714,31,42,335,0
111725,46,40,295,0
111736,58,26,246,0
111747,74,10,199,0
111758,92,-15,137,0
111769,94,-35,93,0
111780,77,-54,66,0
111791,50,-39,62,0
111802,-8,15,7,0
111813,-20,28,-17,0
111824,-31,28,-39,0
111835,-33,28,-38,0
111846,-22,3,-57,0
111857,-1,-1,-48,0
111868,28,-2,-45,0
111879,48,-4,-46,0
111890,67,5,-29,0
111901,97,29,-10,0
111912,142,65,3,1
111923,209,121,31,0
111934,239,106,100,0
111945,248,-63,218,0
111956,207,-180,346,0
111967,63,-99,395,0
111978,37,-60,511,0
111989,28,7,511,0
112000,32,97,511,0
112011,46,127,511,0
112022,59,112,511,0
112033,37,80,511,1
112044,10,70,495,0
112055,-25,55,473,0
112066,-59,28,435,0
112077,-70,3,399,0
112088,-70,-13,379,0
112099,-64,-22,365,0
112110,-45,-30,330,0
112121,-10,-24,272,0
112132,25,22,164,0
112143,35,27,133,0
112154,33,38,86,0
112165,38,33,46,0
112176,47,21,0,0
112187,54,3,-42,0
112198,61,-18,-67,0
112209,64,-26,-84,0
112220,75,-19,-97,0
112231,82,-12,-111,0
112242,92,-4,-79,0
112253,95,-11,-42,0
112264,96,-11,-23,0
112275,103,-22,-2,0
112286,112,-34,35,1
112297,101,19,64,0
112308,151,6,218,0
112319,201,3,362,0
112330,175,123,426,0
112341,183,123,491,0
112352,120,29,409,0
112363,43,-24,353,0
112374,-25,-43,369,0
112385,-95,-42,404,0
112396,-119,-20,413,0
112407,-121,11,472,0
112418,-95,38,508,0
112429,-86,52,511,0
112440,-78,54,493,1
112451,-70,55,399,0
112462,-41,43,341,0
112473,-4,29,303,0
112484,28,29,289,0
112495,36,29,265,0
112506,33,46,251,0
112517,40,43,231,0
112528,45,35,198,0
112539,48,16,187,0
112550,56,7,172,0
112561,60,16,140,0
112572,45,30,105,0
112583,35,21,73,0
112594,32,11,49,0
112605,27,8,22,0
112616,-4,-3,-12,0
112627,-20,-9,-21,0
112638,-24,-5,-15,0
112649,-24,-8,-10,0
112660,-9,-15,-17,0
112671,14,-9,-33,0
112682,39,3,-35,1
112693,55,-3,-6,0
112704,71,-28,36,0
112715,94,6,67,0
112726,78,16,144,0
112737,106,28,234,0
112748,154,36,332,0
112759,138,-11,439,0
112770,48,-74,511,0
112781,-28,-19,511,0
112792,10,35,511,0
112803,47,66,511,0
112814,60,66,511,0
112825,66,75,507,1
112836,69,70,501,0
112847,53,71,478,0
112858,29,67,449,0
112869,6,55,399,0
112880,-12,46,353,0
112891,-39,0,332,0
112902,-33,-24,313,0
112914,-12,-25,240,0
112925,18,-28,126,0
112936,41,-42,89,0
112947,55,-60,65,0
112958,68,-62,28,0
112969,73,-54,-6,0
112980,73,-45,-29,0
112991,74,-27,-49,0
113002,64,-9,-50,0
113013,52,8,-49,0
113024,43,6,-63,0
113035,45,-3,-60,0
113046,50,0,-39,0
113057,62,2,-20,0
113068,58,-6,9,0
113079,75,-25,69,0
113090,75,98,80,0
113101,97,75,190,0
113112,111,84,242,0
113123,112,12,313,1
113134,114,-6,379,0
113145,140,-18,489,0
113156,196,39,489,0
113167,173,13,411,0
113178,109,3,382,0
113189,69,63,478,0
113200,42,64,486,0
113211,34,47,442,0
113222,21,29,436,0
113233,8,47,486,0
113244,-2,61,504,0
113255,-1,33,409,1
113266,43,19,367,0
113277,86,22,332,0
113288,125,23,299,0
113299,149,28,272,0
113310,171,34,242,0
113321,176,47,213,0
113332,164,55,189,0
113343,139,68,158,0
113354,117,74,122,0
113365,95,80,87,0
113376,77,80,65,0
113387,55,85,49,0
113398,30,80,26,0
113409,-14,97,-2,0
113420,-31,85,4,0
113431,-26,64,-21,0
113443,-5,57,-42,0
113454,20,61,-58,0
113465,49,67,-63,0
113476,66,76,-50,0
113487,51,115,-28,1
113498,31,115,24,0
113509,35,105,93,0
113520,25,84,186,0
113531,35,53,293,0
113542,46,17,389,0
113553,56,-6,412,0
113564,-67,-7,511,0
113575,-97,8,511,0
113586,-84,33,511,0
113598,-85,33,511,0
113609,-76,33,511,0
113620,-73,31,511,0
113631,-67,25,511,0
113642,-62,3,511,0
113653,-51,-22,511,0
113664,-34,-43,498,0
113675,-16,-50,452,0
113686,6,-52,409,0
113697,27,-52,369,0
113708,60,-46,292,0
113719,69,-42,254,0
113730,74,-40,205,0
113741,78,-33,169,0
113752,68,-44,134,0
113763,60,-56,109,0
113774,74,-41,69,0
113785,67,-14,27,0
113796,49,-16,32,0
113807,47,-17,31,0
113818,51,13,4,0
113829,39,46,-43,0
113840,14,53,-35,0
113851,11,37,-56,0
113862,17,62,-97,0
113873,28,49,-94,0
113884,43,65,-93,0
113895,73,69,-62,0
113906,111,76,-21,0
113917,152,102,-10,1
113928,163,29,149,0
113939,187,127,137,0
113950,156,133,242,0
113961,136,170,368,0
113972,84,173,469,0
113983,-8,128,511,0
113994,-62,77,511,0
114005,-90,59,468,0
114016,-101,18,391,0
114027,-102,46,475,0
114038,-108,57,509,0
114049,-118,64,511,0
114060,-136,62,511,0
114071,-154,57,511,0
114082,-156,34,511,0
114093,-164,26,509,0
114104,-142,17,445,0
114115,-129,16,391,0
114126,-121,-1,321,1
114137,-108,0,267,0
114148,-87,6,204,0
114159,-58,16,175,0
114170,-29,26,155,0
114181,-1,32,137,0
114192,37,32,105,0
114203,55,32,84,0
114214,60,34,59,0
114225,66,21,29,0
114236,74,15,3,0
114247,66,4,-23,1
114258,53,-1,-44,0
114269,46,-3,-61,0
114280,45,5,-58,0
114291,68,10,-79,0
114302,100,24,-54,0
114313,128,16,-21,0
114324,156,-12,27,0
114335,177,-39,101,0
114346,174,-102,195,0
114357,124,-133,378,0
114368,77,-95,477,0
114379,29,-27,511,0
114390,16,84,511,0
114401,23,119,511,1
114412,42,103,511,0
114423,85,78,511,0
114434,92,15,493,0
114445,93,-2,440,0
114456,70,0,429,0
114467,36,-22,410,0
114478,26,-48,375,0
114489,9,-42,348,0
114500,-21,-29,314,0
114511,-52,-21,278,0
114522,-33,7,211,0
114533,-1,30,121,0
114544,-5,23,60,0
114555,17,1,26,0
114566,34,-15,-4,0
114577,48,-39,-45,0
114588,60,-55,-67,0
114599,71,-45,-83,0
114610,73,-31,-101,0
114621,66,-7,-111,0
114632,63,3,-113,0
114643,66,-1,-96,0
114654,74,-5,-70,0
114665,85,3,-19,0
114676,68,7,36,0
114687,57,17,53,1
114698,34,9,68,0
114709,17,7,73,0
114720,50,-29,145,0
114731,132,-25,186,0
114742,138,28,273,0
114753,156,20,400,0
114764,135,17,505,0
114775,56,-1,511,0
114786,39,-12,511,0
114797,27,-53,511,0
114808,-12,-66,461,0
114819,-46,-69,446,0
114830,-58,-49,479,0
114841,-78,32,511,0
114852,-91,58,511,0
114863,-92,55,474,0
114874,-70,59,442,0
114885,-54,43,400,0
114896,-32,29,357,0
114907,6,33,308,0
114918,14,19,239,0
114929,30,8,209,0
114940,44,0,170,0
114951,52,-18,137,0
114962,57,-21,117,0
114973,63,-5,85,0
114984,51,19,51,0
114995,39,25,25,0
115006,17,40,-27,0
115017,6,25,-38,0
115028,0,7,-44,0
115039,5,-4,-39,0
115050,14,-18,-45,0
115061,31,-14,-46,0
115072,53,5,-56,1
115083,86,15,-42,0
115094,130,22,-7,0
115105,156,20,49,0
115116,172,18,97,0
115127,177,-39,183,0
115138,169,-97,301,0
115149,133,-134,387,0
115160,23,-45,511,0
115171,-3,0,511,0
115182,3,55,511,0
115193,19,76,511,0
115204,49,89,511,1
115215,43,60,511,0
115226,17,34,511,0
115237,1,17,494,0
115248,-21,-6,462,0
115259,-20,-30,436,0
115270,-32,-41,404,0
115281,-48,-56,383,0
115292,-39,-59,354,0
115303,-21,-37,308,0
115314,-9,-23,250,0
115325,16,10,122,0
115336,20,7,71,0
115347,32,11,36,0
115358,17,18,-2,0
115369,7,-3,-49,0
115380,15,-5,-74,0
115391,40,-8,-111,0
115402,61,0,-120,0
115413,74,-4,-105,0
115424,90,-14,-76,0
115435,100,-30,-64,0
115446,105,-31,-38,0
115457,114,-25,-7,0
115468,104,-14,0,0
115479,71,14,13,0
115490,18,22,51,0
115502,-6,17,45,1
115513,-41,43,37,0
115524,9,20,123,0
115535,93,9,176,0
115546,234,8,350,0
115557,264,3,479,0
115568,204,106,511,0
115579,105,76,511,0
115590,9,-9,491,0
115601,0,-76,511,0
115612,-86,-76,511,0
115623,-183,-71,470,0
115634,-159,-38,461,0
115645,-107,0,460,0
115656,-81,28,446,0
115667,-69,29,404,0
115678,-40,28,377,0
115689,-2,28,369,0
115700,16,62,383,0
115711,24,82,399,0
115722,10,75,384,0
115733,2,60,345,0
115744,9,16,295,0
115755,15,19,260,0
115766,4,19,207,0
115777,-7,12,146,0
115788,-11,18,83,0
115799,-1,40,-1,0
115810,5,41,-33,0
115821,7,44,-40,0
115832,-1,72,-10,0
115843,4,67,-41,0
115854,11,68,-32,0
115865,17,46,-40,0
115876,25,8,-40,0
115887,41,-22,-43,0
115898,57,-23,-60,0
115909,72,3,-68,1
115920,106,24,-53,0
115931,154,46,-19,0
115942,175,-4,37,0
115953,243,25,80,0
115964,214,-137,384,0
115975,97,-250,511,0
115986,6,-141,511,0
115997,-16,132,511,0
116008,21,247,511,0
116019,80,167,511,0
116030,114,111,511,0
116041,66,65,511,0
116052,30,57,480,0
116063,3,55,443,0
116074,-27,53,424,0
116085,-48,51,399,0
116096,-38,54,373,0
116107,-32,67,349,0
116118,-25,77,301,0
116129,14,102,199,0
116140,36,99,152,0
116151,52,87,105,0
116162,68,75,75,0
116173,84,44,62,0
116184,99,30,58,0
116195,120,29,45,0
116206,132,42,14,0
116217,130,62,-22,0
116228,122,68,-39,0
116239,121,55,-31,0
116250,121,47,-31,0
116261,109,21,-22,0
116272,94,-13,-8,0
116283,90,-33,-25,0
116294,76,-32,-29,0
116305,42,-3,-49,0
116316,20,9,-25,0
116327,32,2,19,0
116338,51,38,88,0
116349,48,22,177,0
116360,63,25,223,0
116371,82,28,267,1
116382,122,28,312,0
116393,131,6,325,0
116404,142,3,392,0
116415,183,-3,432,0
116426,129,69,511,0
116437,13,109,511,0
116448,-82,22,503,0
116459,-76,12,511,0
116470,-106,40,511,0
116481,-152,77,511,0
116492,-169,92,511,0
116503,-132,78,511,0
116514,-64,73,472,0
116525,-4,74,408,0
116536,16,77,376,0
116547,30,88,364,0
116558,42,78,328,0
116569,46,81,303,0
116580,42,75,277,0
116591,35,61,235,0
116602,26,50,184,0
116613,9,18,81,0
116624,2,8,55,0
116635,0,9,39,0
116646,-9,15,17,0
116657,-17,19,9,0
116669,-18,29,-5,0
116680,-11,29,-1,0
116691,3,22,-9,0
116702,21,19,-16,0
116713,28,12,-29,0
116724,33,5,-43,0
116735,47,11,-37,1
116746,61,18,-24,0
116757,84,31,-3,0
116768,127,46,47,0
116779,150,38,94,0
116790,184,22,161,0
116801,186,-22,234,0
116812,166,-114,305,0
116823,83,-147,359,0
116834,1,-114,418,0
116845,-37,-72,511,0
116856,-7,-10,511,0
116867,21,66,511,0
116878,14,109,511,0
116889,32,112,511,0
116900,34,80,511,0
116911,24,21,511,0
116922,25,8,495,0
116933,-28,-28,415,0
116944,-13,-34,368,0
116955,0,-34,325,0
116966,21,-43,301,0
116977,38,-34,240,0
116988,55,-10,159,0
116999,57,15,130,0
117010,43,19,110,0
117021,33,24,62,0
117032,19,33,25,0
117043,13,39,-9,0
117054,14,31,-32,0
117065,16,10,-47,0
117076,16,-5,-66,0
117087,29,-13,-60,0
117098,47,-9,-35,0
117109,74,0,-2,0
117120,104,1,16,0
117131,123,4,56,0
117142,122,15,82,1
117153,115,29,118,0
117164,135,53,137,0
117175,168,66,217,0
117186,174,49,304,0
117197,178,38,366,0
117208,151,5,329,0
117219,116,-12,281,0
117231,54,-34,279,0
117242,-47,-51,341,0
117253,-77,-28,396,0
117264,-82,-5,444,0
117275,-77,25,482,0
117286,-82,58,507,0
117297,-82,48,487,0
117308,-95,52,492,0
117319,-93,39,442,0
117330,-78,25,393,0
117341,-48,43,381,0
117352,-29,53,346,0
117363,-19,63,321,0
117374,-3,52,286,0
117385,19,34,263,0
117396,53,26,228,0
117407,80,2,140,0
117418,75,-7,110,0
117429,52,4,89,0
117440,29,20,69,0
117451,11,51,46,0
117462,2,48,24,0
117473,-8,46,13,0
117484,-25,41,-1,0
117495,-28,41,-12,0
117506,-21,43,-33,0
117517,-10,38,-30,0
117528,7,30,-30,0
117539,58,41,-43,0
117550,147,79,-55,1
117561,256,-60,101,0
117572,226,-189,255,0
117583,111,-209,317,0
117595,29,-150,366,0
117606,0,-35,510,0
117617,-49,-6,511,0
117628,-27,99,511,0
117639,36,152,511,0
117650,49,75,511,0
117661,31,54,502,0
117672,4,42,465,1
117683,-13,37,439,0
117694,-54,45,426,0
117705,-69,47,414,0
117716,-56,47,345,0
117727,-33,34,313,0
117738,-7,22,267,0
117749,19,24,233,0
117760,42,14,209,0
117771,72,29,184,0
117782,80,37,151,0
117793,82,39,113,0
117804,108,33,65,0
117815,143,21,24,0
117826,146,26,-33,0
117837,137,1,-71,0
117848,142,-4,-79,0
117859,130,2,-91,0
117870,105,0,-70,0
117881,102,-1,-47,0
117892,95,0,-32,0
117903,85,-12,-41,0
117914,89,-5,-15,1
117925,64,-48,10,0
117936,45,-20,34,0
117947,74,-23,197,0
117958,151,-17,286,0
117969,175,73,463,0
117980,194,137,511,0
117991,169,72,511,0
118002,96,-55,388,0
118013,35,-59,443,0
118024,-10,-61,379,0
118035,-28,-38,399,0
118046,-56,-18,454,0
118057,-65,2,500,0
118068,-71,25,511,0
118079,-84,42,511,0
118090,-113,48,482,0
118101,-121,51,429,0
118112,-106,43,373,0
118123,-72,51,329,0
118134,-49,65,291,0
118145,-29,84,273,0
118156,-2,79,231,0
118167,30,78,216,0
118178,51,59,195,0
118189,61,34,167,0
118200,54,28,103,0
118211,37,29,78,0
118222,22,37,41,0
118233,6,45,8,0
118244,1,36,-2,0
118255,4,14,0,0
118266,9,7,-7,0
118277,15,12,-16,0
118288,20,7,-25,0
118299,29,15,-37,0
118310,49,27,-27,0
118321,60,33,-1,0
118332,74,18,18,0
118343,95,-13,29,0
118354,127,23,25,0
118365,169,37,96,0
118376,172,-26,199,1
118387,137,-167,341,0
118398,49,-200,437,0
118409,-12,-115,500,0
118420,-35,23,511,0
118431,-7,137,511,0
118442,43,152,511,0
118453,80,123,511,0
118464,82,100,511,0
118475,57,96,511,0
118486,19,101,511,0
118497,-24,74,495,0
118508,-55,60,461,0
118519,-65,32,411,0
118530,-73,-19,324,0
118541,-62,-31,293,0
118552,-28,-14,268,0
118563,10,-30,226,0
118574,66,-15,196,0
118585,109,48,133,0
118596,74,41,104,0
118607,90,48,71,0
118618,102,42,0,0
118629,103,14,-56,0
118640,116,-13,-88,0
118651,127,-22,-99,0
118662,134,-13,-102,0
118673,124,3,-99,0
118684,104,18,-76,0
118695,92,11,-24,0
118706,87,3,-3,0
118717,69,-1,19,0
118728,34,-3,28,0
118739,27,8,26,0
118750,90,16,91,0
118761,171,-74,252,0
118772,102,27,365,0
118783,110,176,511,1
118794,174,58,511,0
118805,87,-40,328,0
118816,26,-82,259,0
118827,-35,-76,343,0
118838,-86,-89,309,0
118849,-82,-21,403,0
118860,-72,2,463,0
118871,-62,26,503,0
118882,-47,38,506,0
118893,-59,44,486,0
118904,-64,47,440,0
118915,-61,42,386,0
118926,-56,34,331,0
118937,-35,32,303,0
118948,-31,41,281,0
118959,-43,62,271,0
118970,-43,67,254,0
118981,-11,60,237,0
118992,17,39,200,0
119003,44,27,177,0
119014,66,12,108,0
119025,59,3,72,0
119036,41,-2,39,0
119047,26,-11,16,0
119058,14,-10,6,0
119069,2,-6,-10,0
119080,-12,3,-14,0
119091,-9,18,-14,0
119102,11,19,-8,0
119113,36,11,-5,0
119124,58,9,-5,1
119135,100,31,-4,0
119146,158,62,13,0
119157,179,45,98,0
119168,164,-47,221,0
119179,115,-59,307,0
119190,98,-18,360,0
119201,106,20,511,0
119212,116,10,511,0
119223,112,7,511,0
119234,104,58,511,1
119245,105,99,511,0
119256,76,78,474,0
119267,55,55,450,0
119278,28,38,439,0
119289,3,27,430,0
119300,-14,14,414,0
119311,-31,5,393,0
119322,-32,4,358,0
119333,-24,7,318,0
119344,-21,-30,244,0
119355,-14,-41,209,0
119366,-5,-40,179,0
119377,6,-37,151,0
119388,14,-30,123,0
119399,17,-32,86,0
119410,28,-30,50,0
119421,45,-25,9,0
119432,49,-30,-33,0
119443,48,-37,-65,0
119454,52,-44,-80,0
119465,60,-46,-83,1
119476,67,-53,-87,0
119487,94,-56,-86,0
119498,117,-38,-87,0
119509,126,47,-53,0
119520,134,53,-16,0
119531,165,39,19,0
119542,214,46,77,0
119553,199,157,128,0
119564,221,129,298,0
119575,249,140,375,0
119586,235,69,511,0
119597,104,111,511,0
119608,63,37,511,1
119619,33,-78,380,0
119630,30,-66,366,0
119641,-27,-82,361,0
119652,-91,-51,410,0
119663,-54,6,473,0
119674,-19,22,472,0
119685,6,57,489,0
119696,6,68,496,0
119707,-2,54,468,0
119718,2,25,412,0
119729,27,11,347,0
119740,50,1,296,0
119751,88,-6,251,0
119762,124,-6,213,0
119773,157,0,182,0
119784,179,86,141,0
119795,159,-3,180,0
119806,169,69,153,0
119817,128,74,133,0
119828,80,88,94,0
119839,68,82,75,0
119850,63,77,53,0
119861,50,80,32,0
119872,30,89,3,0
119883,3,104,-10,0
119894,-27,98,-24,0
119905,-44,72,-35,0
119916,-46,47,-26,1
119927,-34,25,-10,0
119938,-17,3,10,0
119949,11,-4,22,0
119960,16,-25,38,0
119972,1,-29,92,0
119982,-24,-21,183,0
119993,-23,-46,347,0
120004,0,-56,373,0
120015,-24,-95,453,0
120026,-62,-167,511,0
120037,-52,-151,511,1
120048,-69,-86,511,0
120059,-87,-46,511,0
120070,-55,-31,511,0
120081,-20,-62,511,0
120092,-7,-98,448,0
120103,-1,-103,404,0
120114,0,-93,388,0
120125,0,-85,374,0
120136,15,-85,346,0
120147,32,-93,323,0
120158,41,-91,274,0
120169,52,-84,250,0
120180,66,-79,221,0
120191,82,-68,188,0
120202,95,-61,155,0
120213,97,-56,123,0
120224,89,-53,101,0
120235,85,-53,82,0
120246,87,-38,69,0
120257,79,-32,55,0
120268,67,-23,46,0
120279,53,-14,34,0
120290,44,0,30,0
120301,31,21,30,0
120312,30,36,12,1
120323,-2,62,-41,0
120334,4,65,-19,0
120345,6,79,-16,0
120356,15,54,-8,0
120367,52,49,-1,0
120378,66,60,23,0
120389,94,57,80,0
120400,132,63,148,0
120411,182,65,220,0
120422,195,84,302,0
120433,201,95,360,0
120444,179,110,468,0
120455,134,93,485,0
120466,57,70,479,0
120477,-21,64,467,0
120488,-127,52,439,0
120499,-163,62,462,0
120510,-183,64,501,0
120521,-181,67,511,0
120532,-166,57,511,0
120543,-142,43,511,0
120554,-108,47,485,0
120565,-69,38,441,0
120576,-40,29,390,0
120587,-29,30,343,0
120598,-28,33,305,0
120609,-32,21,267,0
120620,-31,9,245,0
120631,-30,3,206,0
120642,-20,-18,144,0
120653,-15,-20,121,0
120664,-5,-7,97,0
120675,-2,19,56,0
120686,-3,29,19,0
120697,23,21,0,0
120708,47,-7,-25,0
120719,57,-29,-36,0
120730,66,-34,-43,1
120741,63,-24,-44,0
120752,53,-10,-31,0
120763,71,11,-35,0
120774,137,30,-14,0
120785,186,26,48,0
120796,165,-47,190,0
120807,130,-65,248,0
120818,89,-32,317,0
120829,38,-17,410,0
120840,6,-3,511,0
120851,-41,17,511,0
120862,-44,57,511,0
120873,-19,78,511,0
120884,32,83,511,0
120896,30,58,511,0
120907,39,28,452,0
120918,30,2,421,0
120929,35,-7,372,0
120940,38,-24,338,0
120951,37,-43,318,0
120962,29,-65,294,0
120973,34,-44,266,0
120984,33,-18,221,0
120995,42,3,184,0
121006,43,19,140,0
121017,32,33,85,0
121028,27,23,36,0
121039,31,10,-18,0
121050,34,-11,-60,0
121061,43,-18,-75,0
121072,48,-16,-71,0
121083,46,0,-59,0
121094,45,0,-64,0
121105,50,1,-61,0
121116,67,-1,-25,0
121127,75,1,-2,0
121138,82,0,42,0
121149,109,-19,123,0
121160,120,17,185,0
121171,116,-2,281,1
121182,102,52,293,0
121193,53,61,291,0
121204,40,43,364,0
121215,41,18,427,0
121226,2,-22,448,0
121237,-22,-24,479,0
121248,-49,-18,481,0
121259,-55,-17,436,0
121270,-42,-21,438,0
121281,-32,4,465,0
121292,-34,10,447,0
121303,-37,26,425,0
121314,-48,30,388,0
121326,-38,31,354,0
121336,-30,36,327,0
121347,-15,55,307,0
121358,-7,62,285,0
121369,3,52,266,0
121380,6,41,243,0
121391,17,13,214,0
121402,37,-4,188,0
121413,56,-16,140,0
121424,53,-14,93,0
121435,41,-13,46,0
121446,35,-9,-46,0
121457,36,-3,-59,0
121468,22,-15,-68,0
121479,5,-16,-73,0
121490,2,-10,-64,0
121501,5,4,-33,1
121512,0,15,-10,0
121523,3,21,-1,0
121534,57,32,-10,0
121545,166,125,1,0
121556,197,67,100,0
121567,198,-71,250,0
121579,169,-106,370,0
121590,34,-19,511,0
121601,-28,-8,511,1
121612,-23,-12,511,0
121623,70,54,511,0
121634,109,51,511,0
121645,107,28,511,0
121656,76,21,487,0
121667,24,24,487,0
121678,-28,31,466,0
121689,-63,36,450,0
121700,-88,9,413,0
121711,-89,-27,383,0
121722,-70,-16,345,0
121733,-56,-43,292,0
121744,-26,-52,238,0
121755,43,-13,152,0
121766,68,14,115,0
121777,73,26,75,0
121788,80,33,34,0
121799,83,22,-2,0
121810,88,3,-44,0
121821,84,-24,-70,0
121832,76,-30,-56,0
121843,67,-37,-57,0
121854,60,-34,-58,0
121865,41,-22,-65,0
121876,23,-16,-64,0
121887,7,-17,-51,0
121898,-4,-17,-45,0
121909,-15,-50,19,1
121920,37,-40,25,0
121931,20,10,45,0
121942,-6,14,99,0
121953,45,4,239,0
121964,151,7,323,0
121975,243,-3,391,0
121986,240,63,511,0
121997,218,73,511,0
122008,146,5,511,0
122019,80,28,508,0
122030,3,17,447,0
122041,-55,-9,389,0
122052,-97,-11,402,0
122063,-109,10,435,0
122074,-125,52,490,0
122085,-131,58,484,0
122096,-113,56,463,0
122107,-89,44,423,0
122118,-56,37,379,0
122129,-18,28,323,0
122140,1,15,275,0
122151,13,21,239,0
122162,27,14,202,0
122173,26,5,174,0
122184,16,-8,151,0
122195,14,-24,135,0
122206,9,-22,130,0
122217,2,-11,109,0
122228,-2,1,85,0
122239,2,-1,31,0
122250,7,7,-3,0
122261,26,0,-40,1
122272,52,-11,-66,0
122283,69,-23,-73,0
122294,84,-28,-68,0
122305,103,-18,-37,0
122316,109,-18,9,0
122327,106,-10,40,0
122338,119,1,93,0
122349,152,3,174,0
122360,183,-32,291,0
122371,177,-100,417,0
122382,102,-133,506,0
122393,40,-52,511,0
122404,-39,60,511,0
122415,17,62,511,0
122426,54,53,500,0
122437,57,64,468,0
122448,54,57,447,0
122459,29,29,412,0
122470,4,4,372,0
122481,-6,-15,342,0
122492,-15,-25,329,0
122503,-14,-21,306,0
122514,-13,-10,274,0
122525,-15,-6,241,0
122536,-19,-11,225,0
122547,-5,-1,205,0
122558,-2,9,170,0
122569,-30,6,103,0
122580,-41,-4,67,1
122591,-33,-15,28,0
122602,-15,-17,-12,0
122613,8,-13,-45,0
122624,26,-3,-64,0
122635,37,-2,-69,0
122646,39,2,-70,0
122657,38,-3,-61,0
122668,38,-2,-34,0
122679,50,-15,-7,0
122690,54,-27,19,0
122701,115,-40,69,0
122712,115,-33,149,1
122723,98,54,367,0
122734,61,119,365,0
122746,2,109,446,0
122757,1,97,456,0
122768,15,47,401,0
122779,-69,10,420,0
122790,-135,30,457,0
122801,-115,5,412,0
122812,-56,-27,367,0
122823,-1,-43,367,0
122834,31,-35,394,0
122845,37,-22,409,0
122856,31,-12,407,0
122867,21,-7,382,0
122878,33,9,317,0
122889,30,17,285,0
122900,47,19,264,0
122911,44,43,254,0
122922,28,53,240,0
122933,9,50,230,0
122944,-2,37,220,0
122956,-10,26,212,0
122967,-7,11,213,0
122978,1,4,194,0
122989,3,13,175,0
123000,-2,-1,115,0
123011,-8,-12,50,0
123022,-19,-27,-41,0
123033,-31,-25,-55,0
123044,-25,-35,-66,0
123055,-6,-30,-55,0
123066,17,-15,-42,0
123077,45,2,-33,0
123088,115,18,-17,0
123099,161,33,43,0
123110,155,-50,168,0
123121,139,-82,273,0
123132,94,-23,298,0
123143,73,47,376,0
123154,88,51,511,0
123165,78,18,511,0
123176,61,-4,511,0
123187,109,71,511,0
123198,79,52,479,0
123209,46,48,440,0
123220,9,44,417,0
123231,-47,32,438,0
123242,-52,18,457,0
123253,-61,27,417,0
123264,-55,35,391,0
123275,-42,-1,298,0
123286,-5,14,244,0
123297,10,5,185,0
123308,33,0,127,0
123319,60,-16,120,0
123330,88,-20,103,0
123341,101,-24,59,0
123352,88,-46,-7,0
123363,68,-49,-39,0
123374,54,-47,-64,0
123385,40,-45,-88,0
123396,32,-31,-93,0
123407,28,-6,-81,0
123418,27,10,-60,0
123429,18,7,-47,0
123440,3,3,-31,0
123451,-1,-4,1,0
123462,-8,-19,23,0
123473,7,-49,49,0
123484,101,-36,100,0
123495,147,-80,298,0
123506,129,99,454,1
123517,90,165,511,0
123528,47,85,511,0
123539,11,57,511,0
123550,-11,23,504,0
123562,-40,-30,334,0
123573,-37,-67,252,0
123584,12,-63,314,0
123595,54,-49,415,0
123606,97,-23,474,0
123617,107,-15,485,0
123628,82,-4,475,0
123639,58,0,454,0
123650,49,0,403,0
123661,23,2,318,0
123672,-1,0,281,0
123683,-8,14,268,0
123694,2,19,228,0
123705,14,23,192,0
123716,23,31,169,0
123727,19,42,152,0
123738,29,45,139,0
123749,41,55,125,0
123760,41,53,105,0
123772,33,43,78,0
123783,21,32,54,0
123794,13,12,26,0
123805,31,2,-5,0
123816,54,6,-15,0
123827,62,16,-27,0
123838,74,26,-36,0
123849,85,35,-43,0
123860,86,38,-29,0
123871,98,17,8,0
123882,109,25,43,1
123893,89,27,78,0
123904,82,34,111,0
123915,68,27,171,0
123926,60,16,230,0
123937,74,-30,323,0
123948,73,-122,465,0
123959,35,-162,511,0
123970,-92,-44,511,0
123981,-73,-29,511,0
123992,-40,-9,511,0
124003,-38,-1,511,0
124014,-51,-14,511,0
124025,-67,-30,511,0
124036,-86,-41,511,0
124047,-90,-47,508,0
124058,-79,-76,465,0
124069,-64,-85,420,0
124080,-52,-83,375,0
124091,-35,-73,333,0
124102,-16,-71,291,0
124113,-4,-56,235,0
124124,-4,-16,132,0
124135,-8,-5,79,0
124146,-14,-7,31,0
124157,-11,-16,-6,0
124168,4,-27,-30,0
124179,29,-32,-31,0
124190,52,-47,-25,0
124201,65,-50,-27,0
124212,77,-28,-21,0
124223,75,-7,-27,0
124234,68,-9,-47,0
124245,59,-14,-62,0
124256,58,-9,-69,0
124267,40,9,-73,0
124278,30,7,-33,0
124289,28,33,3,0
124300,48,11,31,0
124311,72,3,80,0
124322,116,0,159,0
124333,136,3,257,1
124344,174,32,312,0
124355,177,43,339,0
124366,162,83,448,0
124377,97,55,452,0
124388,25,7,443,0
124399,-3,8,440,0
124410,-53,11,440,0
124421,-95,13,439,0
124432,-116,10,444,0
124443,-108,20,463,0
124454,-96,28,467,0
124465,-82,38,453,0
124476,-74,47,442,0
124487,-62,42,418,0
124498,-48,43,386,0
124509,-28,34,345,0
124520,-23,34,315,0
124531,-14,34,287,0
124542,1,22,249,0
124553,13,20,220,0
124564,26,17,193,0
124575,34,11,177,0
124586,28,-3,150,0
124597,30,-9,135,0
124608,35,2,126,0
124619,15,32,80,0
124630,2,34,43,0
124641,0,18,14,0
124652,3,-4,-7,0
124663,5,-19,-29,1
124674,9,-15,-43,0
124685,12,-8,-49,0
124696,29,7,-42,0
124707,48,11,-45,0
124718,72,22,-19,0
124729,112,27,15,0
124740,144,20,58,0
124751,177,20,94,0
124762,171,0,149,0
124773,116,-96,310,0
124784,65,-61,365,0
124795,25,-48,450,0
124806,27,-25,511,0
124817,47,27,511,0
124828,62,91,511,0
124839,86,129,511,0
124850,79,107,511,0
124861,57,71,511,0
124872,30,33,504,0
124883,7,26,469,0
124894,-17,3,434,0
124905,-32,2,408,0
124916,-42,-14,372,0
124927,-45,-17,351,0
124938,-6,-24,252,0
124949,20,-31,202,0
124960,46,-17,174,0
124971,63,8,155,0
124982,58,31,123,0
124993,51,34,82,0
125004,42,19,30,0
125015,28,12,-27,0
125026,9,4,-74,0
125037,-7,0,-99,0
125048,-17,1,-123,0
125059,-16,-2,-127,0
125070,-2,-10,-93,0
125081,13,-15,-51,0
125092,21,-33,-11,1
125103,45,-36,3,0
125114,90,-19,54,0
125125,167,-11,135,0
125136,311,-1,218,0
125147,321,51,380,0
125158,180,161,452,0
125169,168,45,428,0
125180,38,-17,332,0
125191,34,-36,361,0
125202,-28,-60,395,0
125213,-111,-25,408,0
125224,-162,7,414,0
125235,-135,9,432,0
125246,-70,8,447,0
125257,-39,40,471,0
125268,-58,46,459,0
125279,-67,38,434,0
125290,-65,26,396,0
125301,-42,16,332,0
125312,-18,19,272,0
125323,12,20,233,0
125334,33,30,215,0
125345,47,48,226,0
125356,47,77,244,0
125367,36,84,242,0
125378,32,72,224,0
125389,36,49,200,0
125400,31,35,184,0
125411,19,17,162,0
125422,16,-15,100,0
125433,16,-21,59,0
125444,23,-19,26,0
125455,25,-19,2,0
125466,9,-27,-25,1
125477,-4,-22,-33,0
125488,-1,-24,-41,0
125499,9,-21,-45,0
125510,23,-16,-48,0
125521,56,0,-40,0
125532,129,54,-23,0
125543,179,119,33,0
125554,186,18,194,0
125565,180,-86,363,0
125576,127,-64,362,0
125587,65,-9,485,1
125598,66,-12,511,0
125609,59,-7,511,0
125620,49,35,511,0
125631,59,83,511,0
125642,45,90,459,0
125653,15,64,428,0
125664,-17,50,406,0
125675,-48,45,407,0
125686,-76,38,410,0
125697,-81,30,395,0
125708,-71,38,358,0
125719,-58,34,320,0
125730,-28,23,281,0
125741,0,6,227,0
125752,30,-24,159,0
125763,38,-30,147,0
125774,40,-37,136,0
125785,38,-34,124,0
125796,30,-23,93,0
125807,18,-21,71,0
125818,5,-23,51,0
125829,-4,-24,29,0
125840,-13,-25,7,1
125851,-12,-24,6,0
125862,-1,-27,1,0
125873,2,-15,0,0
125884,12,-3,22,0
125895,36,1,38,0
125906,56,14,61,0
125917,131,50,140,0
125928,205,-58,452,0
125939,234,46,397,0
125950,186,144,511,0
125961,191,172,414,0
125972,76,12,254,0
125983,9,-29,233,0
125994,-84,-20,325,0
126005,-153,-23,370,0
126016,-165,-12,375,0
126027,-101,29,376,0
126038,-10,61,382,0
126049,47,48,377,0
126060,79,39,364,0
126071,86,12,319,0
126082,89,4,298,0
126093,85,4,275,0
126104,82,2,246,0
126115,67,0,219,0
126126,54,-1,187,0
126137,39,1,160,0
126148,21,2,140,0
126159,2,5,133,0
126170,-7,11,131,0
126181,-4,24,141,0
126192,2,33,149,0
126204,7,40,166,0
126215,0,32,174,0
126226,-4,40,194,0
126237,-5,44,203,0
126248,-6,41,208,0
126259,-13,29,203,0
126270,-22,23,188,0
126281,-28,15,178,0
126292,-31,11,179,0
126303,-24,10,189,0
126314,-17,13,202,1
126325,-12,4,205,0
126336,4,-1,192,0
126347,24,-2,162,0
126358,58,-1,119,0
126369,111,27,74,0
126380,133,-3,178,0
126391,119,-44,290,0
126402,96,-61,349,0
126413,110,-56,394,0
126424,123,-54,448,0
126435,126,-27,474,0
126446,104,-6,441,1
126457,96,26,411,0
126468,90,38,343,0
126479,80,38,279,0
126490,56,42,248,0
126501,31,55,245,0
126512,3,47,235,0
126523,-16,33,231,0
126534,-26,11,227,0
126545,-27,-12,207,0
126556,-22,-8,192,0
126567,-17,-2,190,0
126578,1,-3,188,0
126589,16,-1,177,0
126600,34,-7,170,0
126611,48,-2,179,0
126622,57,6,190,0
126633,58,15,201,0
126644,56,25,215,0
126655,57,31,220,0
126666,63,34,220,0
126677,62,30,219,0
126688,63,21,221,0
126699,65,13,227,0
126710,60,-7,237,0
126721,55,-15,242,0
126732,48,-14,247,0
126743,35,-18,233,0
126754,26,-13,226,0
126765,17,1,226,0
126776,11,14,228,0
126787,6,26,232,0
126798,5,31,234,0
126809,6,31,236,0
126820,7,27,235,0
126831,8,20,231,0
126842,11,16,228,0
126853,19,12,224,0
126864,34,2,220,0
126875,40,0,219,0
126886,43,1,219,0
126897,46,0,217,0
126908,49,-1,216,0
126919,49,-7,212,0
126930,49,-10,209,0
126941,45,-8,215,0
126952,37,-5,218,0
126963,30,1,229,0
126974,23,3,231,0
126985,19,8,228,0
126996,16,19,233,0
127007,17,27,234,0
127018,22,25,236,0
127029,22,13,227,0
127040,26,10,228,0
127051,30,5,228,0
127062,35,5,233,0
127073,35,6,234,0
127084,33,8,235,0
127095,31,10,238,0
127106,28,13,239,0
127117,24,16,238,0
127128,20,17,236,0
127139,17,19,237,0
127150,18,18,235,0
127161,21,17,239,0
127172,24,14,237,0
127183,29,13,237,0
127194,33,7,236,0
127205,31,5,232,0
127216,33,3,233,0
127228,31,0,229,0
127239,30,-2,231,0
127250,32,1,229,0
127261,36,1,228,0
127272,23,6,230,0
127283,20,10,232,0
127294,14,11,238,0
127305,12,10,244,0
127316,9,5,247,0
127327,13,6,243,0
127338,23,6,249,0
127349,22,4,241,0
127360,24,8,229,0
127371,25,6,225,0
127382,28,5,236,0
127393,34,6,231,0
127404,38,4,228,0
127415,45,2,232,0
127426,52,7,233,0
127437,48,4,238,0
127448,47,9,239,0
127459,41,13,235,0
127470,42,10,240,0
127481,32,9,244,0
