timestamp,accX,accY,accZ,step
444733,28,16,237,0
444744,28,18,237,0
444755,26,15,234,0
444765,27,13,229,0
444775,29,13,228,0
444785,31,12,228,0
444795,34,12,228,0
444806,36,12,231,0
444817,34,11,235,0
444829,30,7,226,0
444840,33,10,230,0
444851,32,11,231,0
444861,33,12,233,0
444871,33,12,234,0
444882,32,11,234,0
444893,34,8,233,0
444904,35,10,234,0
444915,36,8,229,0
444926,36,9,229,0
444937,37,11,231,0
444948,36,10,229,0
444959,36,8,229,0
444970,36,10,229,0
444981,29,12,233,0
444992,54,6,234,0
445003,35,11,231,0
445014,32,11,234,0
445025,35,9,235,0
445036,30,10,233,0
445047,40,10,234,0
445058,34,15,238,0
445069,34,14,233,0
445080,31,12,230,0
445091,30,11,229,0
445102,30,11,229,0
445113,30,10,227,0
445124,31,6,228,0
445135,32,7,230,0
445146,35,7,228,0
445157,37,8,229,0
445168,39,9,231,0
445179,39,10,231,0
445190,41,9,230,0
445201,40,9,233,0
445212,41,7,233,0
445223,41,9,235,0
445234,38,11,235,0
445245,38,11,233,0
445256,37,11,232,0
445267,36,12,231,0
445278,35,9,232,0
445289,35,8,231,0
445300,37,6,231,0
445311,37,5,230,0
445322,38,3,230,0
445333,37,3,230,0
445344,38,3,228,0
445356,37,6,229,0
445367,36,8,230,0
445378,34,11,231,0
445389,33,9,234,0
445400,33,11,234,0
445411,35,6,235,0
445422,34,4,231,0
445433,34,4,229,0
445444,33,3,226,0
445455,33,3,229,0
445466,34,2,231,0
445477,34,2,234,0
445488,34,3,237,0
445499,33,4,238,0
445510,33,4,238,0
445521,33,3,236,0
445532,32,2,235,0
445543,30,3,232,0
445554,28,2,231,0
445565,28,1,232,0
445576,27,0,233,0
445587,29,-3,233,0
445598,29,-4,232,0
445609,30,-3,231,0
445620,31,-4,231,0
445631,33,-7,230,0
445642,36,-6,229,0
445653,38,-2,226,0
445664,36,1,227,0
445675,33,3,229,0
445686,28,3,231,0
445697,26,-4,236,0
445708,26,-7,234,0
445719,25,-6,235,0
445730,23,-9,233,0
445741,21,-12,231,0
445752,19,-14,229,0
445763,19,-13,226,0
445774,21,-12,226,0
445785,24,-12,226,0
445796,28,-12,225,0
445807,33,-12,226,0
445818,39,-14,226,0
445829,44,-17,225,0
445840,50,-20,225,0
445851,53,-24,226,0
445862,53,-24,227,0
445873,50,-23,227,0
445884,44,-21,231,0
445895,35,-15,230,0
445906,30,-13,232,0
445917,24,-10,233,0
445928,20,-6,234,0
445939,18,-5,231,0
445950,17,-7,230,0
445961,18,-9,227,0
445973,22,-10,232,0
445984,44,-25,231,0
445995,44,-6,223,0
446006,31,7,235,0
446017,35,-18,240,0
446028,52,-38,229,0
446039,49,-15,221,0
446050,44,0,224,0
446062,38,5,220,0
446073,37,-3,221,0
446084,33,3,217,0
446095,27,6,222,0
446106,28,16,229,0
446117,31,24,234,0
446128,32,16,236,0
446139,33,15,233,0
446150,33,14,231,0
446161,35,20,227,0
446172,45,22,222,0
446183,50,28,218,0
446194,52,29,218,0
446205,52,25,221,0
446216,50,22,225,0
446227,47,20,228,0
446238,46,23,229,0
446249,45,27,227,0
446260,45,30,230,0
446271,45,39,234,0
446282,41,39,238,0
446293,36,41,238,0
446304,32,38,236,0
446315,27,39,234,0
446326,22,37,229,0
446337,19,37,226,0
446348,17,33,224,0
446359,15,32,222,0
446370,12,34,222,0
446381,14,31,224,0
446392,15,30,222,0
446403,16,32,224,0
446414,13,37,230,0
446425,7,38,227,0
446436,3,36,229,0
446447,1,35,228,0
446458,4,31,227,0
446470,5,31,222,0
446481,8,34,217,0
446492,12,37,219,0
446503,14,38,216,0
446514,17,38,220,0
446525,20,37,224,0
446536,21,42,226,0
446547,21,43,229,0
446558,17,47,229,0
446569,14,47,237,0
446580,13,50,240,0
446591,9,54,241,0
446603,4,58,243,0
446614,3,61,247,0
446625,2,64,251,0
446636,0,63,255,0
446647,-5,61,259,0
446658,-6,56,264,0
446669,-10,54,266,0
446680,-15,48,259,0
446691,-14,48,257,0
446702,-21,53,259,0
446713,-25,53,259,0
446724,-20,49,255,0
446735,-16,45,249,0
446746,-19,51,244,0
446757,-27,51,238,0
446768,-29,44,231,0
446779,-32,35,215,1
446790,-33,24,200,0
446801,-27,28,187,0
446812,7,47,163,0
446823,83,72,141,0
446834,63,2,137,0
446845,61,-57,103,0
446856,-15,-65,92,0
446867,-45,-29,117,0
446878,-62,8,172,0
446890,-42,33,250,0
446901,-20,49,311,0
446912,12,56,342,0
446923,27,67,387,0
446934,34,67,451,0
446945,22,86,509,0
446956,14,95,511,0
446967,14,51,483,0
446978,8,39,453,0
446989,4,31,436,0
447000,2,36,425,0
447011,0,34,411,0
447022,3,14,389,0
447033,2,-6,363,0
447044,-2,-40,326,0
447055,-11,-58,297,0
447066,-22,-24,252,0
447077,-30,7,211,0
447088,-42,-4,184,0
447099,-55,-19,160,0
447110,-61,60,118,0
447121,-46,71,73,0
447132,-46,60,24,0
447143,-29,33,-3,0
447154,0,-11,-43,0
447165,41,-17,-48,0
447176,88,-6,-58,0
447187,105,-2,-59,0
447198,153,2,-61,0
447209,159,1,-50,1
447220,165,2,-19,0
447231,167,-21,10,0
447242,188,-45,46,0
447253,202,20,234,0
447264,101,72,234,0
447275,73,62,233,0
447286,13,-6,267,0
447297,-27,-27,334,0
447308,-45,-27,382,0
447319,-133,-23,401,0
447330,-161,-25,434,0
447341,-94,44,458,0
447352,-16,71,477,0
447363,34,62,452,0
447374,53,60,433,0
447385,39,53,433,0
447396,8,48,433,0
447407,-51,37,395,0
447418,-49,29,365,0
447429,-32,36,358,0
447440,-28,56,366,0
447451,-24,82,366,0
447462,-28,92,346,0
447473,-21,85,312,0
447484,-5,78,281,0
447495,13,57,239,0
447506,29,32,205,0
447517,58,3,169,0
447528,68,-18,127,0
447539,65,-8,92,0
447550,14,11,41,0
447561,11,-8,8,0
447572,7,17,-22,0
447583,-3,24,-32,0
447594,-3,15,-30,1
447605,-1,9,-38,0
447616,-8,21,-42,0
447627,0,13,-40,0
447638,26,11,-52,0
447649,74,26,-65,0
447660,136,32,-35,0
447671,154,19,5,0
447682,279,14,37,0
447693,124,-340,339,0
447704,36,-300,402,0
447715,-106,-93,511,0
447726,-43,170,511,0
447738,94,234,511,0
447749,126,121,511,1
447760,91,56,494,0
447771,33,41,443,0
447782,-26,29,427,0
447793,-69,24,448,0
447804,-118,25,471,0
447815,-144,44,472,0
447826,-126,58,436,0
447837,-92,52,387,0
447848,-53,35,349,0
447859,-1,36,295,0
447870,48,37,255,0
447881,53,86,219,0
447892,38,115,170,0
447903,46,68,113,0
447914,64,27,70,0
447925,67,27,28,0
447936,77,2,3,0
447947,87,-27,-35,0
447958,88,-38,-55,0
447969,78,-19,-63,0
447980,82,-2,-35,0
447991,91,-13,-24,0
448002,90,-15,-18,0
448013,74,-24,-19,0
448024,41,2,-27,0
448035,29,-26,-12,0
448047,33,-43,-4,0
448058,148,-194,89,0
448069,172,-18,246,0
448080,94,180,401,0
448091,42,157,404,0
448102,-57,13,392,1
448113,-86,-61,417,0
448124,-78,-34,404,0
448135,-62,-12,358,0
448146,-86,50,364,0
448157,-67,63,383,0
448168,-33,74,408,0
448179,-9,89,440,0
448190,-23,110,465,0
448201,-50,104,483,0
448212,-72,78,476,0
448223,-104,62,441,0
448234,-100,54,391,0
448245,-31,33,277,0
448256,1,44,243,0
448267,12,73,254,0
448278,25,101,277,0
448289,27,117,298,0
448300,18,109,289,0
448311,8,97,261,0
448322,-13,76,213,0
448333,-16,39,163,0
448344,-28,20,150,0
448355,-16,0,119,0
448366,-3,-2,85,0
448377,6,11,57,0
448388,14,26,-14,0
448399,-14,33,-37,0
448410,-37,23,-33,0
448421,-52,-1,-38,0
448432,-44,-14,-41,0
448443,-20,-7,-26,0
448454,97,2,-21,0
448465,150,14,13,0
448476,154,-58,81,0
448487,128,-126,119,0
448498,108,-127,172,1
448509,96,-64,213,0
448520,48,0,334,0
448531,37,11,511,0
448542,59,129,511,0
448553,88,106,511,0
448564,70,51,511,0
448575,37,23,471,0
448586,-8,19,442,0
448597,-49,10,441,0
448608,-77,5,459,0
448619,-105,17,463,0
448630,-115,35,450,0
448641,-115,52,431,0
448652,-98,55,384,0
448663,-34,-31,306,0
448674,20,-141,257,0
448685,-39,29,196,0
448696,-61,22,138,0
448707,-25,-27,127,0
448718,20,-15,115,0
448729,44,39,83,0
448740,66,54,54,0
448751,85,39,22,0
448762,92,33,-6,0
448773,83,-5,-28,0
448784,69,-11,-40,0
448795,63,-6,-32,0
448806,59,-42,-15,0
448817,64,-20,5,0
448828,61,-11,23,0
448839,44,-11,27,0
448850,7,10,34,0
448861,-11,3,29,1
448872,52,-131,53,0
448883,158,-282,254,0
448894,92,181,312,0
448905,72,95,458,0
448916,66,27,328,0
448927,31,9,364,0
448938,9,-53,389,0
448949,-26,-23,424,0
448960,-26,-12,362,0
448971,-9,5,358,0
448982,27,22,405,0
448993,52,41,435,0
449004,62,53,447,0
449015,42,59,428,0
449026,6,51,401,0
449037,-21,44,388,0
449048,-39,32,370,0
449059,-35,9,333,0
449070,-27,0,280,0
449081,-28,-11,225,0
449092,-30,3,224,0
449103,-37,26,207,0
449114,-43,34,176,0
449125,-41,24,125,0
449136,-29,14,96,0
449147,1,11,102,0
449158,15,7,102,0
449169,8,7,111,0
449180,-9,-17,122,0
449191,4,-15,96,0
449202,11,5,47,0
449213,-3,16,13,0
449224,-18,-2,-14,0
449235,-24,-28,-46,0
449246,-27,-28,-51,0
449257,-16,-26,-51,0
449268,15,-18,-46,1
449279,30,-19,-21,0
449290,122,-16,-26,0
449301,141,14,-1,0
449312,175,-65,62,0
449323,144,-140,181,0
449334,147,-136,249,0
449345,76,-43,336,0
449356,53,15,511,0
449367,-65,45,511,0
449378,54,124,511,0
449389,80,0,511,0
449400,61,30,511,0
449411,18,53,511,0
449422,-20,49,511,0
449433,-47,57,511,0
449444,-64,58,511,0
449455,-64,53,494,0
449466,-47,47,442,0
449477,-16,25,388,0
449488,-3,-15,348,0
449500,1,-58,321,0
449511,7,-56,203,0
449522,-16,-28,156,0
449533,-25,-15,120,0
449544,-5,-19,102,0
449555,11,-7,77,0
449566,17,9,47,0
449577,21,8,9,0
449588,43,-23,-38,0
449599,46,-22,-60,0
449610,11,-26,-81,0
449621,10,-51,-103,0
449632,28,-31,-94,0
449643,33,-12,-65,0
449654,19,0,-69,0
449665,11,27,-59,1
449676,8,16,-32,0
449687,19,-20,-11,0
449698,49,-87,37,0
449709,62,-67,50,0
449720,68,39,24,0
449731,85,-48,146,0
449742,167,-27,208,0
449753,155,22,370,0
449764,151,44,511,0
449775,144,23,511,0
449786,89,67,511,0
449797,80,-17,390,1
449808,32,-64,320,0
449819,-19,-50,326,0
449830,-29,-12,393,0
449841,-27,21,482,0
449852,-41,57,511,0
449863,-60,91,511,0
449874,-70,104,511,0
449885,-73,94,469,0
449896,-71,78,428,0
449907,-67,70,394,0
449918,-64,65,370,0
449929,-60,62,309,0
449940,-60,56,261,0
449951,-70,45,218,0
449962,-61,17,177,0
449973,-33,-13,144,0
449984,-7,-35,127,0
449995,-3,-28,114,0
450006,-1,-31,86,0
450017,4,-46,33,0
450028,5,-39,-4,0
450039,1,-34,-44,0
450050,-2,-28,-73,0
450061,-6,-18,-82,1
450072,2,-32,-64,0
450083,27,-40,-58,0
450094,60,-17,-45,0
450105,74,-12,-19,0
450116,77,-15,25,0
450127,84,-37,84,0
450138,126,-46,109,0
450149,124,-37,189,0
450160,125,-53,283,0
450171,105,-93,379,0
450182,52,-77,511,0
450193,66,121,511,0
450205,74,89,511,0
450216,51,65,511,0
450227,26,62,511,0
450238,-22,50,486,0
450249,-46,57,505,0
450260,-75,52,500,0
450271,-110,47,495,0
450282,-126,26,483,0
450293,-111,-8,454,0
450304,-89,-2,418,0
450315,-47,-60,365,0
450326,0,-37,246,0
450337,1,17,186,0
450348,12,16,153,0
450359,35,1,90,0
450370,44,50,58,0
450381,44,52,29,0
450392,43,27,-17,0
450403,49,6,-69,0
450414,55,-43,-119,0
450425,53,-59,-105,0
450436,63,-41,-98,0
450447,59,-43,-114,0
450458,45,-46,-105,0
450469,49,-35,-77,0
450480,40,-12,-37,1
450491,26,-8,10,0
450502,17,3,14,0
450513,13,-48,43,0
450524,29,-55,38,0
450535,15,-34,55,0
450546,74,-88,155,0
450557,108,-26,234,0
450568,166,19,428,0
450579,171,94,511,0
450590,54,185,511,0
450601,31,119,511,0
450612,-34,-84,385,1
450623,-56,-61,377,0
450634,-80,-20,403,0
450645,-87,29,496,0
450656,-82,70,511,0
450667,-67,74,511,0
450678,-59,72,493,0
450689,-56,68,449,0
450700,-43,71,432,0
450711,-39,67,400,0
450722,-42,68,368,0
450733,-43,70,330,0
450744,-47,55,283,0
450755,-30,21,212,0
450766,-8,0,189,0
450777,6,-20,154,0
450788,7,-14,108,0
450799,13,-18,64,0
450810,17,-24,30,0
450821,21,-19,-9,0
450832,17,-13,-48,0
450843,10,-21,-76,0
450854,9,-37,-91,0
450865,10,-44,-102,0
450876,9,-40,-110,0
450887,14,-22,-89,1
450898,39,-11,-66,0
450909,63,7,-43,0
450920,99,28,-12,0
450931,115,8,35,0
450942,179,5,89,0
450953,182,-6,155,0
450964,126,-155,338,0
450975,113,-277,505,0
450986,-45,-124,511,0
450997,-17,244,511,0
451008,153,233,511,0
451019,140,59,511,1
451030,85,31,494,0
451041,13,73,491,0
451052,-90,83,505,0
451063,-130,57,493,0
451074,-144,29,464,0
451085,-135,-2,435,0
451096,-102,-14,392,0
451107,-70,-15,333,0
451118,-57,-14,279,0
451129,-43,-23,255,0
451140,-22,-8,219,0
451151,-1,24,173,0
451162,17,29,146,0
451173,31,30,115,0
451184,38,29,66,0
451195,46,0,-35,0
451206,64,-21,-57,0
451217,81,-27,-64,0
451228,93,-24,-72,0
451239,100,-14,-70,0
451250,94,-9,-71,0
451261,101,-22,-98,0
451272,101,-23,-106,0
451283,86,-2,-82,0
451294,69,-5,-51,0
451305,44,-4,-25,1
451316,32,-58,6,0
451327,23,-62,10,0
451338,36,-108,129,0
451349,97,-3,215,0
451360,57,91,375,0
451371,57,28,511,0
451382,-56,102,511,0
451393,-166,116,511,0
451404,-50,40,511,0
451415,-4,-35,413,0
451426,-5,-29,387,0
451437,-24,18,432,1
451448,-34,52,479,0
451459,-58,69,511,0
451470,-69,94,506,0
451481,-71,91,466,0
451492,-66,89,397,0
451503,-61,90,403,0
451514,-52,87,368,0
451525,-53,80,342,0
451536,-44,86,310,0
451547,-32,70,264,0
451558,-27,47,232,0
451569,-33,21,196,0
451580,-21,6,177,0
451591,-6,2,172,0
451602,10,1,138,0
451613,27,2,79,0
451624,38,8,26,0
451635,43,15,-36,0
451646,24,-1,-63,0
451657,7,-19,-98,0
451668,-15,-18,-111,0
451679,-21,-32,-111,0
451690,-15,-32,-98,0
451701,-13,-9,-71,0
451712,-9,0,-58,1
451723,36,2,-48,0
451735,195,54,-56,0
451746,169,59,10,0
451757,68,-173,142,0
451768,31,-169,266,0
451779,-48,35,457,0
451790,-25,122,511,0
451801,57,226,511,0
451812,130,102,511,0
451823,97,-19,470,0
451834,35,-9,431,0
451845,-32,28,461,1
451856,-99,43,499,0
451867,-149,59,511,0
451878,-163,66,511,0
451889,-141,72,495,0
451900,-114,60,444,0
451911,-86,39,392,0
451922,-63,13,331,0
451933,-33,-32,289,0
451944,22,-87,264,0
451955,41,-19,192,0
451966,37,64,169,0
451977,53,37,129,0
451988,79,45,106,0
451999,88,52,52,0
452010,95,45,16,0
452022,91,63,-2,0
452033,87,62,-40,0
452044,87,35,-67,0
452055,79,-18,-85,0
452066,81,-24,-84,0
452077,79,-28,-102,0
452088,73,-37,-91,0
452099,87,-65,-61,0
452110,116,-84,-23,0
452121,140,-62,25,1
452132,67,42,54,0
452143,-4,22,83,0
452154,31,-63,151,0
452165,-27,19,214,0
452176,-41,-19,388,0
452187,-25,-53,511,0
452198,-140,216,511,0
452209,-45,170,484,0
452220,-5,21,259,0
452231,25,-50,230,0
452242,24,7,356,0
452253,-14,73,420,0
452264,-89,118,492,0
452275,-132,117,505,1
452286,-141,114,504,0
452297,-95,99,476,0
452308,-97,78,415,0
452319,-88,76,382,0
452330,-77,72,342,0
452341,-72,73,299,0
452352,-39,86,253,0
452363,-16,86,220,0
452374,-1,72,180,0
452385,22,41,139,0
452396,38,51,149,0
452407,46,40,127,0
452418,53,28,94,0
452429,40,49,90,0
452440,27,50,80,0
452451,23,23,66,0
452462,27,-14,35,0
452473,25,-18,9,0
452484,16,-14,-22,0
452495,10,-14,-88,1
452506,33,4,-86,0
452517,68,5,-86,0
452528,108,20,-75,0
452539,138,20,-56,0
452550,229,37,-30,0
452561,181,37,30,0
452572,125,-198,188,0
452583,60,-352,357,0
452594,-39,-184,467,0
452605,-121,46,511,0
452616,16,313,511,0
452627,98,192,511,0
452638,77,67,511,0
452649,-57,78,480,0
452660,-125,61,497,0
452671,-174,49,499,0
452682,-181,85,511,0
452693,-135,101,504,0
452704,-108,92,454,0
452715,-67,90,393,0
452726,-35,83,331,0
452737,2,52,305,0
452748,36,35,274,0
452759,85,12,253,0
452770,110,41,222,0
452781,88,93,180,0
452792,84,50,101,0
452803,95,26,61,0
452814,88,34,30,0
452825,101,14,-9,0
452836,102,9,-41,0
452847,96,20,-61,0
452858,85,31,-70,0
452869,80,19,-63,0
452880,79,-3,-57,0
452891,80,-3,-45,1
452902,81,-6,-24,0
452913,87,-36,-8,0
452924,88,-39,12,0
452936,48,18,51,0
452947,-25,30,80,0
452958,-5,-20,99,0
452969,14,-29,163,0
452980,11,12,229,0
452992,7,34,349,0
453003,78,7,402,0
453014,101,37,511,0
453025,67,147,511,0
453036,0,189,511,0
453047,25,122,457,0
453058,14,34,396,0
453069,-16,57,466,0
453080,-67,100,511,0
453091,-103,130,511,0
453102,-122,133,511,0
453113,-122,103,486,0
453124,-111,105,427,0
453135,-91,101,372,0
453146,-62,94,330,0
453158,-29,113,300,0
453169,-22,119,269,0
453180,-16,114,240,0
453191,12,104,185,0
453202,34,81,154,0
453213,51,57,144,0
453224,66,30,123,0
453235,77,42,119,0
453246,63,60,100,0
453257,58,30,66,0
453268,51,5,21,0
453279,44,3,-4,0
453290,38,-5,-25,0
453301,29,-15,-36,0
453312,26,-10,-40,1
453323,38,-13,-43,0
453334,63,-18,-55,0
453345,185,85,-71,0
453356,201,94,-39,0
453367,150,-47,50,0
453378,110,-219,116,0
453389,40,-241,181,0
453400,7,-122,276,0
453411,-78,-74,495,0
453422,-81,5,511,0
453433,41,228,511,0
453444,101,183,511,0
453455,81,93,511,0
453466,45,74,508,0
453477,-24,99,499,0
453488,-98,58,477,0
453499,-99,51,470,0
453510,-82,32,427,0
453521,-59,37,392,0
453532,-27,31,331,0
453543,-8,24,270,0
453554,7,4,214,0
453565,8,-5,196,0
453576,10,0,177,0
453587,22,13,151,0
453598,39,30,128,0
453609,50,52,109,0
453620,75,45,68,0
453632,108,30,49,0
453643,127,-12,22,0
453654,137,-17,-1,0
453665,144,8,-9,0
453676,155,-7,-9,0
453687,145,-24,-33,0
453698,107,-5,-38,1
453709,104,-5,-15,0
453720,134,-42,4,0
453731,107,-33,-9,0
453742,61,-5,-7,0
453753,62,-25,77,0
453764,87,-56,168,0
453775,-52,70,267,0
453786,-59,10,298,0
453797,-87,6,330,0
453808,-72,-51,425,0
453819,-104,-20,498,0
453830,-82,19,493,0
453841,-30,55,470,0
453852,-9,52,456,0
453863,-2,33,456,0
453874,-4,27,476,0
453885,-31,47,493,0
453896,-51,65,508,0
453907,-61,66,491,0
453918,-47,46,394,0
453929,-16,33,345,0
453940,14,42,332,0
453951,23,61,322,0
453962,33,82,319,0
453973,35,95,303,0
453984,41,75,258,0
453995,50,57,213,0
454006,35,43,180,0
454017,28,30,135,0
454028,13,23,103,0
454039,4,14,71,0
454050,-8,27,53,0
454061,-3,7,19,0
454072,-15,17,-37,0
454083,-21,4,-60,0
454094,-29,-20,-75,0
454105,-22,-34,-74,1
454116,-4,-32,-67,0
454127,7,-21,-33,0
454138,92,8,-13,0
454149,161,59,5,0
454160,174,19,58,0
454171,144,-69,135,0
454182,128,-150,219,0
454193,117,-110,280,0
454204,35,-24,458,0
454215,41,211,511,0
454226,89,155,511,0
454237,85,58,511,0
454248,57,38,488,0
454260,11,57,460,1
454271,-22,52,461,0
454282,-48,48,475,0
454293,-51,43,461,0
454304,-43,43,445,0
454315,-25,34,405,0
454326,-18,21,362,0
454337,-27,17,318,0
454348,-39,20,257,0
454359,-28,15,205,0
454370,0,13,174,0
454381,42,7,126,0
454392,44,65,97,0
454403,60,85,56,0
454414,98,-1,9,0
454425,132,-37,-35,0
454436,124,19,-56,1
454447,120,0,-76,0
454458,117,-21,-95,0
454469,123,-28,-100,0
454480,118,-6,-94,0
454491,120,-19,-85,0
454502,82,-30,-46,0
454513,45,-34,-29,0
454524,10,-27,1,0
454535,84,-109,66,0
454546,142,-62,239,0
454557,74,76,323,0
454568,-12,175,422,0
454579,-8,17,409,1
454590,-106,56,413,0
454601,-95,-57,477,0
454612,-129,-52,511,0
454623,-90,23,498,0
454634,-55,69,479,0
454645,6,64,464,0
454656,33,69,452,0
454667,17,78,457,0
454678,-18,94,467,0
454689,-54,95,452,0
454700,-76,100,439,0
454711,-84,71,369,0
454722,-63,56,321,0
454733,-34,43,276,0
454744,-12,50,254,0
454755,3,84,259,0
454766,12,109,266,0
454777,23,102,252,0
454788,21,97,227,0
454799,8,68,180,0
454810,9,28,144,0
454821,13,-2,127,0
454832,13,-9,102,0
454843,14,8,61,0
454854,20,29,24,0
454865,34,11,-4,0
454876,39,-10,-30,0
454887,24,-27,-56,0
454898,-3,-27,-69,0
454909,-28,-23,-83,0
454920,-35,-21,-73,1
454931,-32,-17,-44,0
454942,136,34,-38,0
454953,196,101,-10,0
454964,129,-23,94,0
454975,89,-207,222,0
454986,73,-184,258,0
454997,-23,-38,341,0
455008,-66,26,511,0
455019,-95,103,511,0
455030,49,234,511,0
455042,104,116,511,0
455053,104,53,511,0
455064,60,80,491,0
455075,-27,64,458,0
455086,-66,56,474,0
455098,-89,58,474,0
455109,-87,51,443,0
455120,-70,51,394,0
455131,-41,27,336,0
455142,-36,15,298,0
455153,-33,-5,258,0
455164,-19,-16,248,0
455175,22,-71,207,0
455186,35,2,146,0
455197,6,121,114,0
455208,97,31,40,0
455219,124,33,5,0
455230,129,23,-34,0
455241,126,-2,-56,0
455252,111,-22,-90,0
455263,99,-17,-88,0
455274,89,-23,-121,0
455285,76,-3,-87,0
455296,71,-5,-47,0
455307,67,-20,-24,0
455318,49,-39,-14,0
455329,14,-52,1,0
455340,82,-149,37,0
455351,111,-150,209,0
455362,-30,127,308,0
455373,-29,22,359,1
455384,-73,106,462,0
455395,-72,73,511,0
455406,-104,9,511,0
455417,-92,-2,457,0
455428,-53,6,385,0
455440,-10,-6,372,0
455451,28,-3,402,0
455462,65,27,428,0
455473,72,30,449,0
455484,62,36,445,0
455495,18,45,402,0
455506,1,40,365,1
455517,13,34,344,0
455528,20,29,326,0
455539,8,45,316,0
455550,4,55,304,0
455561,8,56,287,0
455572,13,56,271,0
455583,15,50,251,0
455594,19,36,230,0
455605,13,13,218,0
455616,15,-11,192,0
455627,14,-26,138,0
455638,7,-15,2,0
455649,-8,-4,-34,0
455660,-40,-9,-75,0
455671,-85,-34,-94,0
455682,-95,-49,-105,0
455693,-93,-35,-104,0
455704,-76,9,-86,0
455715,-39,23,-70,0
455726,75,37,-68,0
455737,169,86,-28,1
455748,128,3,66,0
455759,77,-168,199,0
455770,84,-172,311,0
455781,53,-27,418,0
455792,-15,51,511,0
455803,35,116,511,0
455815,24,-4,511,0
455826,20,5,511,0
455837,9,73,511,0
455848,-24,87,511,0
455859,-61,72,511,0
455870,-95,76,505,0
455881,-120,79,474,1
455892,-119,58,424,0
455903,-106,30,383,0
455914,-86,13,344,0
455925,-54,-10,232,0
455936,-59,13,184,0
455947,-56,15,143,0
455958,-40,4,109,0
455969,-11,3,76,0
455980,21,7,36,0
455991,52,14,17,0
456002,68,17,10,0
456014,82,-5,-24,0
456025,87,-22,-56,0
456036,90,-36,-64,0
456047,89,-36,-82,0
456058,103,-31,-66,0
456069,112,-10,-58,0
456080,102,2,-21,0
456091,64,5,-2,0
456102,0,40,-16,0
456113,-48,7,-6,0
456124,33,-127,9,0
456135,173,-316,248,0
456146,62,273,350,0
456157,76,120,511,0
456168,115,74,390,1
456179,-50,76,443,0
456190,-135,25,476,0
456201,-179,-38,450,0
456212,-131,4,371,0
456223,-93,36,417,0
456234,-52,62,466,0
456245,-20,91,511,0
456256,-4,112,507,0
456267,-14,107,473,0
456278,-25,92,434,0
456289,-52,74,406,0
456300,-57,67,361,0
456311,-46,42,313,0
456322,-32,34,281,0
456333,-16,30,260,0
456344,-6,24,258,0
456355,23,77,297,0
456366,19,87,276,0
456377,17,72,245,0
456388,28,45,205,0
456399,27,24,159,0
456410,15,13,99,0
456421,1,10,47,0
456432,-10,-1,13,0
456443,-15,-23,-18,0
456454,-10,-39,-45,0
456465,-23,-44,-61,0
456476,-38,-48,-72,0
456487,-50,-41,-79,0
456498,-56,-24,-78,0
456509,-11,28,-41,0
456520,117,48,-57,1
456531,228,120,-41,0
456543,184,11,63,0
456554,177,-208,195,0
456565,101,-271,267,0
456576,56,-120,341,0
456587,-57,23,511,0
456598,-81,154,511,0
456609,89,248,511,0
456620,132,107,511,0
456631,107,32,487,0
456642,-6,46,425,0
456653,-63,33,442,0
456664,-109,44,463,0
456675,-126,45,468,0
456686,-112,41,444,0
456697,-84,45,424,0
456708,-53,38,381,0
456719,-40,51,334,0
456730,-28,55,293,0
456741,-8,39,260,0
456752,2,13,219,0
456763,12,12,146,0
456774,-6,85,91,0
456785,-5,77,64,0
456796,76,-28,25,0
456807,93,-18,-5,0
456818,100,5,-30,0
456829,107,8,-41,0
456840,104,2,-61,0
456851,127,-13,-78,0
456862,123,8,-48,0
456873,121,0,-18,0
456884,115,-36,-2,0
456895,94,-59,-6,0
456906,61,-42,-13,1
456917,5,-7,2,0
456928,88,-53,67,0
456939,24,244,311,0
456950,25,55,450,0
456961,-13,38,284,0
456972,-49,-52,286,0
456983,-72,-11,342,0
456994,-87,-16,429,0
457005,-70,48,453,0
457016,-32,95,455,0
457027,-15,81,426,0
457038,1,86,433,0
457049,-5,87,439,0
457060,-29,101,463,0
457071,-59,111,486,0
457082,-92,107,488,0
457093,-110,67,402,0
457104,-84,47,352,0
457115,-43,35,312,0
457126,15,27,273,0
457137,66,45,270,0
457148,88,72,284,0
457159,84,102,290,0
457170,64,110,257,0
457181,29,113,233,0
457192,0,72,200,0
457203,-21,29,189,0
457214,-28,-11,177,0
457225,-35,-36,141,0
457236,-22,-4,41,0
457248,-6,5,3,0
457259,7,12,-21,0
457270,6,9,-33,0
457281,-3,-10,-47,0
457292,-4,-6,-40,0
457303,2,-18,-50,0
457314,18,-24,-62,1
457325,69,-19,-69,0
457336,179,54,-53,0
457347,193,43,9,0
457358,118,-88,134,0
457369,53,-80,256,0
457380,-2,49,360,0
457391,-54,75,511,0
457402,-46,98,511,0
457413,21,144,511,0
457424,27,59,511,0
457435,19,31,470,0
457446,-20,55,488,0
457457,-54,75,511,0
457468,-70,83,511,0
457479,-76,85,511,0
457490,-79,69,490,0
457501,-66,62,441,0
457512,-58,57,377,0
457523,-51,16,282,0
457534,-59,10,265,0
457545,-48,-7,249,0
457556,-15,-54,216,0
457567,9,-19,149,0
457578,-8,103,102,0
457589,17,82,64,0
457600,81,60,60,0
457611,124,13,47,0
457622,163,-11,2,0
457633,159,44,-48,0
457644,160,20,-72,0
457655,153,-34,-116,0
457666,127,10,-35,0
457677,120,-26,-11,0
457688,119,-57,-10,0
457699,104,-47,-5,0
457710,89,-52,4,1
457721,85,-49,100,0
457732,92,-3,238,0
457743,3,112,237,0
457754,-79,140,333,0
457765,-64,91,400,0
457776,-82,25,429,0
457787,-133,-41,437,0
457798,-129,-76,444,0
457809,-77,-44,359,0
457820,13,7,303,0
457831,28,25,341,0
457842,39,69,417,1
457853,14,90,453,0
457865,-29,97,465,0
457876,-80,88,458,0
457887,-120,77,431,0
457898,-143,61,375,0
457909,-120,41,322,0
457920,-78,22,287,0
457931,-46,23,266,0
457942,-12,45,282,0
457953,37,82,281,0
457964,39,97,263,0
457975,27,76,232,0
457986,16,43,207,0
457997,19,11,183,0
458008,8,-8,147,0
458019,-19,-11,105,0
458030,-24,-19,65,0
458041,-2,-9,15,0
458052,8,1,-34,0
458063,-2,3,-72,0
458074,-24,1,-96,0
458085,-38,-14,-112,0
458096,3,-27,-122,1
458107,75,-5,-84,0
458118,207,47,-56,0
458129,155,6,36,0
458140,124,-195,146,0
458151,82,-240,193,0
458162,18,-90,244,0
458173,7,117,490,0
458184,17,164,511,0
458195,101,175,511,0
458206,237,100,511,0
458217,230,-19,482,0
458228,183,18,417,0
458239,115,31,400,0
458250,-40,32,422,0
458261,-87,51,459,0
458272,-106,64,472,0
458283,-103,70,476,0
458294,-94,73,462,0
458305,-63,63,426,0
458316,-33,32,379,0
458327,-19,5,333,0
458338,-16,-24,294,0
458349,-11,-50,251,0
458360,1,-52,179,0
458371,2,-23,128,0
458382,8,-9,85,0
458393,26,20,35,0
458404,33,9,-2,0
458415,28,12,-3,0
458426,26,-20,-49,0
458437,5,-13,-24,0
458448,1,-38,-24,0
458459,8,-39,-48,0
458470,18,-32,-49,0
458481,28,-25,-36,0
458492,33,-23,-33,0
458503,39,-11,-32,0
458514,55,-28,-34,1
458525,18,-71,8,0
458536,161,-128,27,0
458547,125,162,46,0
458558,138,-26,164,0
458569,138,74,237,0
458580,91,4,455,0
458591,106,-44,511,0
458602,89,123,511,0
458613,91,70,511,0
458624,41,19,504,0
458635,73,-20,320,1
458646,74,-97,234,0
458657,58,-52,254,0
458668,76,10,329,0
458679,100,49,413,0
458690,90,115,511,0
458701,65,112,483,0
458712,56,88,438,0
458723,54,82,390,0
458734,46,74,339,0
458745,33,78,322,0
458756,25,72,310,0
458767,28,71,313,0
458778,26,67,293,0
458789,22,59,256,0
458800,6,73,232,0
458811,-8,76,191,0
458822,-18,73,147,0
458833,-28,61,103,0
458844,-21,42,58,0
458855,-13,43,33,0
458866,-5,40,13,0
458877,6,28,2,0
458888,35,20,-12,0
458899,66,23,-28,0
458910,89,29,-49,0
458921,98,39,-65,0
458932,95,48,-72,1
458943,97,62,-82,0
458954,78,68,-68,0
458965,74,55,-55,0
458976,76,64,-20,0
458987,41,7,86,0
458998,33,-28,154,0
459009,11,-80,263,0
459020,6,-99,380,0
459031,-71,-123,480,0
459042,-264,-73,511,0
459053,-254,128,511,0
459064,-83,180,511,0
459075,-24,73,511,0
459086,0,10,495,0
459097,-15,-25,405,0
459108,-40,0,437,0
459119,-48,-26,417,0
459130,-39,-24,415,0
459141,25,41,448,0
459152,48,45,409,0
459163,54,16,342,0
459174,34,-11,295,0
459185,38,-18,283,0
459196,26,-13,247,0
459207,-4,-23,221,0
459218,-1,-35,217,0
459229,1,-13,190,0
459240,-3,-10,161,0
459251,-9,-12,127,0
459262,-2,-22,111,0
459273,-1,-6,109,0
459284,11,-11,85,0
459295,27,-8,64,0
459306,41,5,57,0
459317,52,15,54,0
459328,58,13,25,0
459339,55,42,1,0
459350,42,69,-4,0
459361,41,52,-1,0
459372,33,59,-12,1
459383,21,88,-18,0
459394,27,69,-16,0
459405,38,63,8,0
459416,44,51,30,0
459427,67,28,44,0
459438,74,33,110,0
459449,89,40,150,0
459460,109,44,233,0
459471,107,49,332,0
459482,81,99,432,0
459493,35,127,511,0
459504,-17,145,511,0
459515,-54,129,511,0
459526,-91,108,474,0
459537,-123,88,390,0
459548,-159,85,382,0
459559,-171,94,436,0
459570,-166,102,487,0
459581,-128,105,502,0
459592,-98,95,462,0
459603,-72,97,450,0
459614,-47,94,426,0
459625,-19,79,390,0
459636,4,67,371,0
459647,15,53,357,0
459658,12,54,348,0
459669,-8,53,335,0
459680,-45,82,337,0
459691,-72,77,303,0
459702,-88,59,254,0
459713,-95,43,220,0
459724,-105,35,174,0
459735,-104,3,80,0
459746,-78,19,46,0
459757,-44,5,12,0
459768,-4,-22,-24,0
459779,20,-24,-37,0
459790,39,-34,-46,1
459801,43,-24,-41,0
459812,38,-15,-36,0
459824,40,3,-17,0
459835,60,5,-2,0
459846,136,12,-4,0
459857,180,21,9,0
459868,120,-86,107,0
459879,67,-147,128,0
459890,33,-98,128,0
459901,-69,-44,204,0
459912,-89,3,325,0
459923,-127,28,482,0
459934,-134,62,511,0
459945,-67,123,511,0
459956,2,110,511,0
459967,27,75,511,0
459978,18,65,511,0
459989,4,46,491,0
460000,-6,21,464,0
460011,-20,8,445,0
460022,-15,14,405,0
460033,-12,12,357,0
460044,-1,-5,323,0
460055,6,-63,270,0
460066,6,-76,230,0
460077,-21,2,193,0
460088,-46,34,157,0
460099,-41,41,148,0
460110,-15,35,124,0
460121,17,33,89,0
460132,60,18,49,0
460143,80,17,26,0
460154,84,11,2,0
460165,85,-22,-31,0
460176,92,-9,-35,0
460187,102,-3,-36,0
460198,119,-40,-35,0
460209,114,-49,-31,0
460220,104,-31,-11,0
460231,85,-15,-23,1
460242,93,-63,16,0
460253,126,-72,127,0
460264,46,42,142,0
460275,-7,38,153,0
460286,-41,5,183,0
460297,-66,-74,260,0
460308,-78,-67,369,0
460319,-163,36,511,0
460330,-92,70,511,0
460341,-37,72,492,0
460352,-29,38,453,0
460363,-33,34,432,0
460374,-38,49,449,1
460385,-58,74,481,0
460396,-80,84,492,0
460407,-83,86,461,0
460418,-65,76,420,0
460429,-39,66,382,0
460440,-30,69,366,0
460451,-5,78,351,0
460462,6,74,321,0
460473,7,69,274,0
460484,12,64,232,0
460495,-2,53,184,0
460506,-8,17,145,0
460517,-11,-7,121,0
460528,2,-21,95,0
460539,14,-18,55,0
460550,24,-1,10,0
460561,34,3,-22,0
460572,26,-14,-57,0
460583,8,-23,-83,0
460595,-21,-38,-133,0
460606,-22,-42,-114,0
460617,-11,-34,-101,0
460628,54,-44,-76,0
460639,148,-24,-53,0
460650,117,-35,24,1
460661,109,-136,101,0
460672,96,-163,172,0
460683,61,-116,231,0
460694,36,26,336,0
460705,41,124,511,0
460716,37,119,511,0
460727,119,79,511,0
460738,114,15,505,0
460749,67,40,482,0
460760,17,58,464,0
460771,-24,58,478,0
460782,-68,63,510,0
460793,-81,63,511,0
460804,-78,55,511,0
460815,-77,57,465,0
460826,-69,34,398,0
460837,-53,7,357,0
460849,-53,-3,331,0
460860,-32,-63,235,0
460871,-41,8,169,0
460882,-34,16,115,0
460893,-6,4,79,0
460904,20,23,61,0
460915,41,41,32,0
460926,51,42,-2,0
460937,48,21,-10,0
460948,52,-26,-32,0
460959,59,-39,-51,0
460970,67,-35,-70,0
460981,69,-47,-61,0
460992,76,-47,-63,0
461003,73,-18,-40,0
461014,58,-6,1,1
461025,43,-21,7,0
461036,38,-70,12,0
461047,19,-51,6,0
461058,11,-17,9,0
461069,30,-103,94,0
461080,100,-74,157,0
461091,131,-56,341,0
461102,183,21,511,0
461113,153,160,511,0
461124,43,187,511,0
461135,74,80,511,0
461146,69,1,386,0
461157,-32,-39,295,1
461168,-67,-9,349,0
461179,-67,25,440,0
461190,-63,53,508,0
461201,-54,75,507,0
461212,-57,83,480,0
461223,-56,85,444,0
461234,-46,80,418,0
461245,-51,84,398,0
461256,-67,83,373,0
461267,-87,72,340,0
461278,-86,61,294,0
461289,-100,45,251,0
461300,-88,14,200,0
461311,-67,-14,139,0
461322,-55,-10,125,0
461333,-35,-1,107,0
461344,-12,0,78,0
461355,6,4,48,0
461366,20,5,24,0
461377,26,5,-4,1
461388,16,9,-30,0
461399,1,1,-49,0
461410,-5,-27,-58,0
461421,-6,-46,-59,0
461432,-12,-36,-48,0
461443,-12,-29,-43,0
461454,2,-32,-24,0
461465,141,-22,-6,0
461476,137,-74,46,0
461487,58,-206,180,0
461498,97,-191,250,0
461509,33,-69,291,0
461520,31,45,511,0
461531,10,89,511,0
461542,32,195,511,0
461553,92,127,511,0
461564,95,4,511,0
461575,46,4,445,0
461586,3,32,458,0
461597,-40,46,485,0
461608,-91,64,468,0
461619,-74,43,434,0
461630,-55,28,389,0
461641,-46,11,355,0
461652,-35,-8,312,0
461663,-19,-18,264,0
461675,-2,-15,228,0
461686,-1,-3,194,0
461697,6,-2,168,0
461708,28,-3,142,0
461719,35,33,101,0
461730,47,33,73,0
461741,80,-2,46,0
461752,120,-5,-45,0
461763,121,-6,-84,0
461774,115,-20,-98,0
461785,123,-28,-88,0
461796,127,-25,-102,0
461807,110,2,-94,0
461818,95,8,-83,0
461829,90,-14,-44,0
461840,79,-30,-9,1
461851,58,-14,24,0
461862,37,-14,48,0
461873,3,23,63,0
461884,12,-56,231,0
461895,-24,40,461,0
461906,-27,60,511,0
461917,-86,34,511,0
461928,-115,54,511,0
461939,-36,-38,438,0
461950,-35,-69,330,0
461961,-57,-69,341,0
461972,-38,-12,403,0
461983,-43,10,493,0
461994,-75,50,511,0
462005,-121,62,511,0
462016,-127,72,487,0
462027,-119,73,433,0
462038,-118,72,377,0
462049,-57,54,341,0
462060,-33,52,344,0
462071,0,49,340,0
462083,22,58,328,0
462094,27,47,289,0
462105,21,16,218,0
462116,17,-2,177,0
462127,14,-21,120,0
462138,10,-31,60,0
462149,8,-37,9,0
462160,-1,-47,-21,0
462171,0,-58,-41,0
462182,11,-30,-89,0
462193,7,-10,-93,0
462204,4,5,-96,0
462215,0,11,-84,1
462226,10,-5,-75,0
462237,51,-24,-65,0
462248,75,-34,-50,0
462259,97,-70,-24,0
462270,97,-110,41,0
462281,65,-127,127,0
462292,68,-82,212,0
462303,81,-1,350,0
462314,64,16,511,0
462325,26,101,511,0
462336,170,170,511,0
462347,146,43,511,0
462358,88,-6,475,0
462369,38,-24,402,0
462380,-19,9,400,0
462391,-35,31,449,0
462402,-43,52,495,0
462413,-39,52,486,0
462424,-35,32,434,0
462435,-28,20,369,0
462446,-30,0,304,0
462457,-19,-14,274,0
462468,-12,-13,238,0
462479,5,-5,159,0
462490,23,29,139,0
462501,34,38,81,0
462512,27,62,6,0
462523,29,47,-10,0
462534,38,-9,-15,0
462545,54,-37,-43,0
462556,70,-26,-81,0
462567,70,-10,-118,0
462578,53,-7,-122,0
462589,45,-31,-121,0
462600,42,-33,-116,0
462611,48,-15,-86,0
462622,57,-4,-27,1
462633,30,20,20,0
462644,13,22,49,0
462655,44,-74,86,0
462666,155,-253,227,0
462677,54,193,250,0
462688,-15,126,368,0
462699,28,23,337,0
462710,14,80,383,0
462721,-41,20,511,0
462732,-114,39,511,0
462743,-81,97,511,0
462754,-54,21,450,0
462765,-26,-14,416,0
462776,21,24,473,0
462787,11,52,473,0
462798,-3,58,461,0
462809,-26,65,436,0
462820,-65,78,396,0
462831,-79,77,346,0
462842,-77,63,316,0
462854,-67,56,308,0
462865,-68,66,320,0
462876,-75,82,330,0
462887,-70,69,321,0
462898,-47,47,289,0
462909,-21,15,194,0
462920,-13,-10,139,0
462931,-11,-34,78,0
462942,-1,-41,28,0
462953,2,-45,-7,0
462964,15,-52,-51,0
462975,21,-55,-83,0
462986,21,-54,-97,0
462997,25,-57,-101,0
463008,24,-57,-97,1
463019,22,-32,-86,0
463030,30,-9,-78,0
463041,63,1,-64,0
463052,153,53,-60,0
463063,128,-38,90,0
463074,110,-207,233,0
463085,63,-166,273,0
463096,-7,4,417,0
463107,-53,81,511,0
463118,-4,202,511,0
463129,125,136,511,0
463140,157,15,511,0
463151,125,21,502,0
463162,53,62,493,0
463173,-17,58,497,0
463184,-76,63,511,0
463195,-111,56,511,0
463206,-107,66,511,0
463217,-61,45,423,0
463228,-41,28,350,0
463239,-41,-7,287,0
463250,-32,-34,262,0
463261,-34,-38,196,0
463272,-45,-11,182,0
463283,-26,-34,129,0
463294,-5,2,70,0
463305,-2,71,54,0
463316,15,59,37,0
463327,36,25,3,0
463338,53,22,-26,0
463349,54,27,-53,0
463360,71,-4,-88,0
463371,88,-31,-119,0
463382,97,-34,-117,0
463393,101,-17,-93,0
463404,102,-9,-69,1
463415,95,-2,-45,0
463426,74,-9,-17,0
463437,21,-1,-14,0
463448,22,-22,2,0
463459,167,-222,195,0
463470,158,18,281,0
463481,11,176,449,0
463492,40,86,389,0
463503,-44,57,370,0
463514,-211,-17,442,0
463525,-220,-29,472,0
463536,-166,26,459,1
463547,-134,27,456,0
463558,-90,26,470,0
463569,-60,62,487,0
463580,-68,71,495,0
463591,-94,68,481,0
463602,-110,64,453,0
463613,-109,50,410,0
463624,-95,49,354,0
463635,-77,50,307,0
463646,-46,32,251,0
463657,-19,18,228,0
463668,17,46,249,0
463679,37,73,267,0
463690,46,79,272,0
463701,41,69,245,0
463712,38,34,198,0
463723,44,-2,164,0
463734,31,0,152,0
463745,11,-15,100,0
463756,7,-3,65,0
463767,7,3,18,0
463778,4,-5,-28,0
463789,-10,-18,-61,0
463800,-18,-28,-73,1
463811,-24,-46,-95,0
463822,-12,-27,-96,0
463833,48,5,-87,0
463844,159,103,-60,0
463855,145,58,22,0
463866,101,-120,151,0
463877,106,-198,243,0
463888,88,-85,272,0
463899,20,46,416,0
463910,1,56,511,0
463921,20,107,511,0
463932,96,119,511,0
463943,81,25,441,0
463954,51,27,400,0
463965,-64,28,400,0
463976,-103,32,438,0
463987,-128,48,470,0
463998,-134,76,484,0
464009,-122,71,451,0
464020,-109,44,399,0
464031,-83,30,354,0
464042,-61,22,313,0
464053,-41,19,301,0
464064,-24,21,290,0
464075,44,-43,269,0
464086,58,-4,176,0
464097,-11,135,97,0
464108,45,-12,38,0
464119,67,22,18,0
464130,77,15,-2,0
464141,79,-28,-21,0
464152,88,-48,-39,0
464163,106,-33,-53,1
464174,117,-32,-46,0
464185,117,-31,-47,0
464196,114,-19,-6,0
464207,123,-40,10,0
464218,126,-33,-11,0
464229,90,17,1,0
464240,48,44,16,0
464251,186,-10,236,0
464262,131,140,433,0
464273,87,161,511,0
464284,64,72,385,0
464295,-39,1,308,0
464306,-60,-56,276,0
464317,-60,-91,285,0
464328,-87,-36,290,0
464339,-118,7,348,0
464350,-98,67,439,1
464361,-83,100,489,0
464372,-98,113,511,0
464383,-120,113,511,0
464394,-151,98,511,0
464405,-184,71,474,0
464416,-195,46,381,0
464427,-177,47,355,0
464438,-143,44,310,0
464450,-101,46,262,0
464461,-61,54,231,0
464472,-20,69,219,0
464483,3,100,222,0
464494,8,127,224,0
464505,25,117,212,0
464516,53,100,210,0
464527,62,93,191,0
464538,66,73,162,0
464549,59,33,97,0
464560,52,1,60,0
464571,61,-26,20,0
464583,69,-10,-8,0
464594,67,16,-27,0
464605,60,19,-40,0
464616,40,-2,-64,0
464627,17,-19,-87,1
464638,9,-22,-100,0
464649,14,-12,-101,0
464660,91,2,-115,0
464671,184,133,-100,0
464682,122,-139,129,0
464693,98,-312,273,0
464704,-29,-193,350,0
464715,-143,-11,511,0
464726,-196,194,511,0
464737,-3,383,511,0
464748,101,153,511,0
464759,79,22,456,0
464770,6,79,449,1
464781,-58,112,459,0
464792,-115,90,482,0
464803,-144,91,502,0
464814,-143,83,489,0
464825,-123,69,456,0
464836,-65,65,356,0
464847,-45,67,318,0
464858,-24,83,290,0
464869,0,72,266,0
464880,19,45,254,0
464891,55,-16,195,0
464902,63,-28,114,0
464913,28,23,98,0
464924,2,67,63,0
464935,19,76,41,0
464946,67,51,39,0
464957,104,25,48,0
464968,145,-12,59,0
464979,191,18,37,0
464990,188,26,45,0
465001,173,11,48,0
465012,152,28,60,0
465023,131,7,53,1
465034,94,-21,26,0
465045,53,-1,5,0
465056,13,-13,-16,0
465067,-5,-24,-25,0
465078,31,-87,20,0
465089,68,-53,117,0
465100,33,18,218,0
465111,-8,114,308,0
465122,2,41,388,0
465133,-49,1,511,0
465144,-64,-16,511,0
465155,-49,29,467,0
465166,-33,52,390,0
465177,-44,29,359,0
465188,-50,27,389,1
465199,-37,50,431,0
465210,-55,78,473,0
465221,-85,82,511,0
465232,-121,93,511,0
465243,-141,85,490,0
465254,-138,47,386,0
465265,-120,24,307,0
465276,-38,38,262,0
465287,-19,82,260,0
465298,-4,106,266,0
465309,21,120,264,0
465320,45,98,235,0
465331,56,67,176,0
465342,64,57,181,0
465353,58,41,142,0
465364,50,31,104,0
465375,41,22,70,0
465387,47,12,40,0
465398,50,10,-1,0
465409,32,29,-21,0
465420,-5,8,-62,0
465431,-14,6,-65,0
465442,-1,-12,-64,1
465453,62,5,-41,0
465464,117,40,-12,0
465475,108,7,35,0
465486,97,-63,87,0
465497,71,-92,137,0
465508,41,-69,190,0
465519,40,-1,267,0
465530,9,28,439,0
465541,-40,17,511,0
465552,-35,110,511,0
465563,55,97,511,0
465574,44,78,509,0
465585,5,88,480,0
465596,-27,76,457,0
465607,-57,63,461,0
465618,-75,54,461,0
465629,-80,57,454,0
465640,-69,58,429,0
465651,-54,59,392,0
465662,-39,62,355,0
465673,-30,49,318,0
465684,-15,20,284,0
465695,9,-21,248,0
465706,39,-53,199,0
465717,29,64,108,0
465728,57,40,65,0
465739,76,65,42,0
465750,87,75,22,0
465761,106,22,19,0
465772,126,14,-33,0
465783,108,39,-37,0
465794,110,-14,-57,0
465805,124,-33,-62,0
465816,124,-22,-39,0
465827,107,-33,-12,0
465838,93,-47,7,0
465849,73,-36,1,1
465860,53,-53,-4,0
465871,93,-112,39,0
465882,93,-2,238,0
465893,65,78,265,0
465904,-20,138,256,0
465915,-42,63,324,0
465926,-117,33,408,0
465937,-68,-52,506,0
465948,-51,-46,492,0
465959,-50,-29,424,0
465970,-35,14,386,0
465981,-23,42,401,0
465992,-18,36,412,0
466003,-19,65,463,0
466014,-95,126,511,0
466025,-133,134,511,0
466036,-156,126,488,0
466047,-155,106,436,0
466058,-129,75,363,0
466069,-86,51,304,0
466080,-42,43,273,0
466091,-7,49,265,0
466102,42,77,267,0
466113,64,114,274,0
466124,77,89,241,0
466135,82,79,210,0
466146,87,48,166,0
466157,70,37,129,0
466168,44,10,65,0
466179,39,16,41,0
466190,27,15,10,0
466201,11,4,-16,0
466212,-17,3,-55,0
466223,-35,-4,-73,0
466234,-32,-25,-84,0
466245,-14,-33,-90,0
466256,0,-23,-72,1
466267,95,-10,-71,0
466278,147,55,-47,0
466289,136,9,8,0
466300,112,-129,87,0
466311,40,-94,222,0
466323,8,30,362,0
466334,-2,81,511,0
466345,4,113,511,0
466356,58,159,511,0
466367,68,83,511,0
466378,51,40,471,0
466389,14,48,443,1
466400,-21,54,427,0
466411,-51,40,425,0
466422,-67,41,451,0
466433,-69,44,467,0
466444,-58,50,465,0
466455,-47,55,402,0
466466,-25,37,351,0
466477,-7,28,296,0
466488,1,5,257,0
466499,31,-34,229,0
466510,34,-29,174,0
466521,15,30,135,0
466532,9,51,97,0
466543,25,46,89,0
466554,63,11,59,0
466565,91,31,33,0
466576,92,55,22,0
466588,91,-21,-29,0
466599,88,-31,-45,0
466610,94,-28,-51,0
466621,93,-18,-29,0
466632,95,-27,-25,0
466643,97,-27,-31,1
466655,93,-25,-31,0
466666,80,-38,-44,0
466677,140,-89,40,0
466688,157,3,152,0
466699,103,66,236,0
466710,29,64,262,0
466721,1,43,300,0
466732,-102,-48,450,0
466743,-161,-41,511,0
466754,-158,16,486,1
466765,-117,28,411,0
466776,-104,35,410,0
466788,-77,28,428,0
466799,-49,48,454,0
466810,-50,66,481,0
466821,-72,78,494,0
466832,-88,84,486,0
466844,-93,73,440,0
466855,-56,47,331,0
466866,-23,41,323,0
466877,-5,59,338,0
466888,3,82,344,0
466899,23,99,313,0
466910,25,99,262,0
466921,18,76,203,0
466932,7,50,177,0
466943,11,20,156,0
466954,28,-12,134,0
466965,32,-13,109,0
466976,29,10,71,0
466987,34,32,24,0
466998,30,8,-49,0
467009,16,-9,-78,0
467020,-2,-22,-102,0
467031,-13,-31,-94,0
467042,-14,-37,-94,0
467053,-8,-18,-67,0
467064,84,-5,-56,1
467075,153,60,-30,0
467086,142,11,40,0
467097,122,-164,123,0
467108,72,-197,189,0
467119,52,-82,229,0
467130,-4,67,402,0
467141,13,103,511,0
467152,96,123,511,0
467163,88,31,511,0
467174,57,25,471,0
467185,4,50,453,0
467196,-39,60,438,0
467207,-70,63,453,0
467218,-96,75,479,0
467229,-103,89,498,0
467240,-104,89,483,0
467251,-94,87,446,0
467262,-84,57,385,0
467273,-70,51,342,0
467284,-64,30,295,0
467295,12,-103,238,0
467306,17,-44,172,0
467317,-28,52,98,0
467328,-17,19,99,0
467339,16,19,111,0
467350,60,20,60,0
467361,89,33,37,0
467372,117,12,10,0
467383,142,-11,-27,0
467394,134,1,-50,1
467405,124,-16,-72,0
467416,116,-28,-72,0
467427,108,-8,-47,0
467438,101,18,-25,0
467449,57,-38,-9,0
467460,20,-37,-28,0
467471,63,-119,-2,0
467482,193,-247,180,0
467493,99,81,209,0
467504,47,40,286,0
467515,26,41,274,0
467526,-34,23,395,0
467537,-73,-17,511,0
467548,-142,10,511,0
467559,-129,8,511,0
467570,-108,15,402,0
467581,-74,9,375,0
467592,-64,-6,396,0
467603,-25,46,442,0
467614,-44,56,447,0
467625,-53,65,442,0
467636,-64,72,432,0
467647,-66,63,382,0
467658,-56,45,327,0
467669,-42,30,291,0
467680,-34,16,294,0
467691,-29,38,298,0
467702,-29,57,279,0
467713,-16,49,228,0
467724,-8,52,217,0
467735,-12,46,187,0
467746,26,-11,138,0
467757,41,-20,123,0
467768,47,-23,90,0
467779,50,-15,62,0
467790,53,2,21,0
467801,47,12,-19,0
467812,27,-3,-57,0
467823,-1,-30,-87,0
467834,-17,-54,-112,0
467845,-31,-45,-104,0
467856,-17,-20,-84,1
467867,71,-1,-62,0
467878,122,25,-13,0
467889,111,-14,66,0
467900,71,-96,197,0
467911,40,-12,242,0
467922,10,39,427,0
467933,2,58,511,0
467944,39,155,511,0
467955,85,150,511,0
467966,72,36,494,0
467977,38,49,460,0
467988,-15,80,457,0
467999,-40,67,454,0
468010,-55,61,461,0
468021,-78,75,477,0
468032,-101,83,489,0
468043,-110,63,434,0
468054,-97,48,398,0
468065,-76,27,358,0
468076,-45,9,305,0
468087,-34,-11,259,0
468098,-28,-6,167,0
468109,-44,36,98,0
468120,-35,11,67,0
468131,-6,-3,36,0
468142,17,22,30,0
468153,48,26,3,0
468164,64,43,6,0
468175,74,32,-20,0
468186,88,6,-30,0
468197,122,-37,-56,0
468208,130,-16,-43,0
468219,139,1,-28,0
468230,141,18,0,0
468241,145,-20,31,0
468252,212,-102,78,1
468263,262,-73,171,0
468274,143,183,244,0
468285,70,12,229,0
468296,39,95,205,0
468307,-84,-13,249,0
468318,-134,-26,365,0
468329,-148,-53,437,0
468340,-232,-65,420,0
468351,-152,-7,366,0
468362,-97,13,390,0
468373,-59,25,429,1
468384,-53,65,474,0
468395,-63,83,490,0
468406,-88,68,476,0
468417,-113,57,443,0
468428,-118,49,404,0
468439,-107,41,365,0
468450,-81,32,327,0
468461,-47,35,308,0
468472,-23,37,303,0
468483,-3,54,311,0
468494,12,85,304,0
468505,24,79,239,0
468516,8,84,217,0
468527,-12,76,187,0
468538,-11,33,154,0
468549,0,6,137,0
468560,16,-25,99,0
468571,30,-19,72,0
468582,38,1,41,0
468593,40,11,-6,0
468604,49,2,-39,1
468615,42,-15,-71,0
468626,28,-27,-94,0
468637,8,-35,-116,0
468648,12,-18,-110,0
468659,140,33,-105,0
468670,176,123,-60,0
468681,130,10,50,0
468692,92,-219,145,0
468703,29,-267,215,0
468714,21,-64,269,0
468725,-53,105,510,0
468736,-53,160,511,0
468747,58,235,511,0
468758,127,126,511,0
468769,87,-3,446,0
468780,38,31,429,0
468791,-10,61,435,0
468802,-68,37,426,0
468813,-80,45,452,0
468824,-81,60,466,0
468835,-77,64,446,0
468846,-60,58,408,0
468857,-39,45,368,0
468868,-36,33,316,0
468879,-39,45,307,0
468890,-44,45,276,0
468901,-45,45,258,0
468912,-31,20,218,0
468923,4,-28,152,0
468934,28,-1,114,0
468945,2,74,73,0
468956,58,32,9,0
468967,79,18,-19,0
468978,101,-5,-49,0
468989,123,-23,-61,0
469000,139,-35,-65,0
469011,131,-28,-42,0
469022,131,-4,-14,1
469033,143,-3,3,0
469044,145,-31,17,0
469055,145,-40,22,0
469066,166,-72,65,0
469077,160,-48,202,0
469088,101,77,269,0
469099,-65,65,262,0
469110,-103,-13,304,0
469121,-142,2,343,0
469132,-167,-63,409,0
469143,-229,-30,428,0
469154,-180,-2,415,0
469165,-91,49,411,0
469176,-41,65,421,0
469187,-10,72,424,0
469198,-2,75,444,0
469209,-30,76,465,0
469220,-62,74,454,0
469231,-81,49,432,0
469242,-82,38,396,0
469253,-52,30,314,0
469264,-23,25,267,0
469275,5,25,241,0
469286,27,43,250,0
469297,38,76,273,0
469308,38,100,278,0
469319,26,97,262,0
469330,16,67,227,0
469341,-1,58,202,0
469352,-4,35,193,0
469363,7,1,168,0
469374,10,13,135,0
469385,14,21,108,0
469396,16,31,75,0
469407,31,-7,-15,0
469418,15,-11,-55,0
469429,-10,-18,-69,0
469440,-22,-19,-86,0
469451,-21,-7,-85,1
469462,35,3,-79,0
469473,153,81,-68,0
469484,180,106,-20,0
469495,142,-42,92,0
469506,125,-173,162,0
469517,75,-134,190,0
469528,23,-27,271,0
469539,-28,45,459,0
469550,-42,76,511,0
469561,77,119,511,0
469572,84,46,459,0
469583,67,48,423,0
469594,26,68,445,0
469605,-11,58,440,1
469616,-36,54,448,0
469627,-48,54,472,0
469638,-40,62,483,0
469649,-46,69,463,0
469660,-48,67,430,0
469671,-44,46,371,0
469682,-40,45,337,0
469693,-48,46,305,0
469704,-48,-8,251,0
469715,12,-95,193,0
469726,29,-37,95,0
469737,-52,149,88,0
469748,-26,39,60,0
469759,40,-44,64,0
469770,61,31,10,0
469781,74,62,-24,0
469792,100,30,-18,0
469803,115,-20,-44,0
469814,113,-13,-52,1
469825,111,31,-33,0
469836,122,21,-9,0
469847,132,-19,-13,0
469858,114,-39,-5,0
469869,154,-109,39,0
469881,211,-69,194,0
469892,172,46,312,0
469903,70,132,361,0
469914,55,67,318,0
469925,-42,50,319,0
469936,-88,-30,333,0
469947,-110,-86,378,0
469958,-171,-66,386,0
469969,-159,-17,329,0
469980,-107,7,307,0
469991,-70,5,322,0
470002,-5,54,393,0
470013,-7,76,448,0
470024,-22,97,479,0
470035,-57,86,462,0
470046,-84,68,411,0
470057,-93,51,358,0
470068,-78,48,309,0
470079,-55,36,272,0
470090,-28,29,257,0
470101,5,31,250,0
470112,34,31,228,0
470123,57,46,221,0
470134,64,48,211,0
470145,37,63,171,0
470156,11,73,156,0
470167,6,65,147,0
470178,5,38,150,0
470189,4,20,150,1
470200,-9,33,139,0
470211,-25,47,121,0
470222,-21,27,88,0
470233,-6,12,63,0
470244,-7,5,37,0
470255,-25,-7,5,0
470266,-47,-24,-13,0
470277,-58,-38,-19,0
470288,-21,-51,-28,0
470299,101,-24,24,0
470310,72,-104,115,0
470322,53,-158,212,0
470333,9,-88,234,0
470344,1,-16,271,0
470355,-3,87,388,0
470366,36,108,511,0
470377,80,55,511,0
470388,137,84,511,0
470399,201,71,511,0
470410,188,25,447,0
470421,134,36,388,0
470432,37,38,373,0
470443,-3,43,372,0
470454,-28,55,374,0
470465,-48,66,372,0
470476,-56,69,362,0
470487,-55,66,337,0
470498,-49,52,307,0
470509,-51,23,272,0
470520,-57,-6,251,0
470531,-50,-40,215,0
470542,-36,-51,159,0
470553,-32,-20,138,0
470564,-19,-24,92,0
470575,2,-35,58,0
470586,64,-84,36,0
470597,87,-58,34,0
470608,77,6,28,0
470619,65,-20,-14,0
470630,75,-44,-49,0
470641,74,-23,-60,0
470652,49,-15,-77,1
470663,60,-3,-75,0
470674,26,29,-45,0
470685,44,24,-39,0
470696,66,6,8,0
470707,91,-19,41,0
470718,125,-41,77,0
470729,152,126,86,0
470740,224,-10,319,0
470751,188,63,444,0
470762,173,20,511,0
470773,155,90,511,0
470784,96,61,511,0
470795,-15,75,503,0
470806,-44,8,356,0
470817,-52,-34,288,0
470828,-35,-25,297,0
470839,15,0,342,0
470850,62,45,424,0
470861,83,91,506,0
470872,84,128,511,0
470883,63,108,491,0
470894,10,76,411,0
470905,-4,72,387,0
470916,-12,63,358,0
470927,-20,57,328,0
470938,-27,56,307,0
470949,-25,46,264,0
470960,-9,42,244,0
470971,-1,40,222,0
470982,8,36,198,0
470993,16,38,190,0
471004,18,46,176,0
471015,24,65,157,0
471026,28,85,140,0
471037,34,56,109,0
471048,26,48,86,0
471059,8,32,62,0
471070,1,29,43,0
471081,3,24,27,0
471092,-1,32,16,1
471103,2,53,22,0
471114,11,55,12,0
471125,20,45,1,0
471136,38,42,-8,0
471147,26,31,-2,0
471158,46,47,5,0
471169,56,73,32,0
471180,52,91,71,0
471191,2,80,146,0
471202,-31,-87,270,0
471213,-43,-213,400,0
471224,-147,-62,438,0
471235,-311,108,511,0
471246,-248,232,511,0
471257,-117,169,511,1
471268,-61,62,501,0
471279,-56,29,435,0
471290,-59,65,431,0
471301,-56,60,420,0
471312,-54,40,388,0
471323,-60,43,395,0
471334,-85,11,365,0
471345,-102,-10,317,0
471356,-116,-30,289,0
471367,-105,-47,259,0
471378,-94,-43,222,0
471389,-80,-43,193,0
471400,-59,-45,174,0
471411,-43,-35,155,0
471422,-33,-18,144,0
471433,-26,-11,129,0
471444,-12,-14,119,0
471455,15,-33,104,0
471466,47,-51,66,0
471477,63,-46,49,0
471488,105,-36,6,0
471499,105,-21,-9,0
471510,112,-17,-30,0
471521,105,11,-28,0
471532,104,13,-23,1
471543,100,5,-28,0
471554,114,-23,6,0
471565,135,-50,59,0
471576,127,12,90,0
471587,56,95,112,0
471598,47,51,119,0
471609,51,89,168,0
471620,19,95,267,0
471631,-3,82,382,0
471642,-133,69,511,0
471653,-160,48,511,0
471664,-127,19,387,0
471675,-87,25,328,0
471686,-59,24,334,0
471698,-35,39,365,0
471709,-30,59,413,0
471720,-52,75,444,0
471731,-89,80,457,0
471742,-123,90,450,0
471753,-154,89,426,0
471764,-170,89,404,0
471775,-162,74,346,0
471786,-136,56,311,0
471797,-101,34,272,0
471808,-59,17,240,0
471819,-5,0,211,0
471830,47,-5,211,0
471841,75,21,224,0
471852,74,37,219,0
471863,63,47,223,0
471874,32,65,241,0
471885,1,31,224,0
471896,-27,-4,216,0
471907,-53,-19,192,0
471918,-73,-27,129,0
471929,-81,-45,26,0
471940,-72,-43,-4,1
471951,-66,-40,-34,0
471962,-48,-30,-47,0
471973,-20,-21,-36,0
471984,33,-12,-24,0
471995,144,22,-33,0
472006,126,-30,6,0
472017,107,-103,103,0
472028,68,-111,191,0
472039,60,-54,205,0
472050,35,7,220,0
472061,34,42,289,0
472072,96,59,511,0
472083,118,74,511,0
472094,104,84,511,0
472105,67,70,511,0
472116,30,82,511,0
472127,-1,77,511,0
472138,-34,64,490,0
472149,-58,52,467,0
472160,-65,50,445,0
472171,-66,56,424,0
472182,-64,50,397,0
472193,-46,21,352,0
472204,-33,10,294,0
472215,-36,7,258,0
472226,-20,-37,158,0
472237,-22,-37,109,0
472248,-21,-10,89,0
472259,0,-1,63,0
472270,35,9,62,0
472281,73,0,43,0
472292,103,0,8,0
472303,98,10,-18,0
472314,90,28,-42,0
472325,96,19,-47,0
472336,114,-1,-58,0
472347,100,-36,-48,0
472358,106,7,-54,1
472369,79,4,-35,0
472380,125,-79,76,0
472391,144,-65,150,0
472402,60,41,208,0
472413,20,22,210,0
472424,-2,-7,222,0
472435,-24,-61,323,0
472446,-57,-28,435,0
472457,-97,7,511,0
472468,-149,30,511,0
472479,-135,9,457,0
472490,-104,-22,415,0
472501,-73,-44,392,1
472512,-60,-29,406,0
472523,-63,0,433,0
472534,-49,48,462,0
472546,-35,51,434,0
472557,-14,41,398,0
472568,-25,434,367,0
472579,40,-31,328,0
472590,33,91,323,0
472601,40,29,304,0
472612,32,71,277,0
472623,28,80,249,0
472634,18,56,215,0
472645,-6,29,177,0
472656,-27,10,160,0
472667,-21,-1,139,0
472678,-29,2,112,0
472689,-30,1,74,0
472701,-18,-3,30,0
472712,-25,10,-13,0
472723,-34,-10,-33,0
472734,-38,-46,-70,0
472745,-38,-56,-92,0
472756,-49,-42,-89,0
472768,-43,-37,-96,1
472779,-39,-30,-96,0
472790,160,30,-37,0
472801,273,123,6,0
472812,194,-57,140,0
472823,184,-300,273,0
472834,113,-215,290,0
472845,-7,14,381,0
472856,-30,187,511,0
472867,63,242,511,0
472878,188,144,511,0
472889,205,-9,497,0
472900,160,15,418,0
472911,92,65,426,0
472922,22,78,445,0
472933,-37,80,489,0
472944,-91,96,508,0
472955,-85,75,475,0
472966,-80,71,424,0
472977,-76,63,389,0
472988,-63,37,329,0
472999,-60,43,320,0
473010,-62,6,296,0
473021,-43,-48,254,0
473032,14,-134,187,0
473043,0,-2,121,0
473054,-49,74,80,0
473065,-28,21,73,0
473076,9,-3,38,0
473087,49,-24,-59,0
473098,49,-27,-89,0
473109,39,-29,-102,0
473120,33,-42,-109,0
473131,17,-18,-98,0
473142,14,5,-83,0
473153,25,-23,-54,0
473164,58,-73,-46,0
473175,107,-95,-43,1
473186,151,-166,17,0
473197,162,-44,-8,0
473208,94,82,87,0
473219,145,-67,182,0
473230,142,19,251,0
473241,33,59,511,0
473252,63,54,511,0
473263,50,62,511,0
473274,11,12,511,0
473285,16,-52,381,0
473296,14,-96,294,0
473307,8,-71,307,0
473318,23,-39,353,0
473329,34,-14,407,0
473340,28,6,445,0
473351,6,33,445,0
473362,-24,46,453,0
473373,-43,62,451,0
473384,-60,66,434,0
473395,-72,64,377,0
473406,-79,46,335,0
473417,-79,34,293,0
473428,-74,29,264,0
473439,-68,20,215,0
473450,-58,18,179,0
473461,-52,11,150,0
473472,-31,-23,123,0
473483,-4,-43,109,0
473494,20,-38,98,0
473505,25,-20,66,0
473516,36,-16,39,0
473527,50,-11,13,0
473538,30,-4,-62,0
473549,12,-16,-78,0
473560,4,-30,-96,0
473571,0,-23,-96,0
473582,0,0,-77,0
473593,9,11,-57,0
473604,60,-11,-42,1
473615,113,-33,-21,0
473627,170,-105,22,0
473638,102,-199,105,0
473649,49,-199,170,0
473660,2,-99,304,0
473671,-52,43,511,0
473682,26,299,511,0
473693,99,44,511,0
473704,85,-60,472,0
473715,49,-21,459,0
473726,-9,6,469,0
473737,-64,9,494,0
473748,-113,32,511,0
473759,-131,49,511,0
473770,-124,47,511,0
473781,-98,37,452,0
473792,-74,22,386,0
473803,-63,8,337,0
473814,-55,-14,311,0
473825,-39,-81,204,0
473836,-37,-48,144,0
473847,-46,1,133,0
473858,-42,-1,106,0
473869,-21,-4,88,0
473880,5,5,65,0
473891,63,14,22,0
473902,68,42,-15,0
473913,86,31,-48,0
473924,86,-2,-65,0
473935,95,-28,-81,0
473946,104,-34,-92,0
473957,106,-29,-88,0
473968,79,-8,-46,0
473979,82,5,-20,0
473990,69,14,12,0
474001,50,5,27,0
474012,16,21,38,0
474023,21,-79,107,0
474034,83,-140,178,0
474045,91,-62,238,0
474056,12,93,406,0
474067,9,137,511,1
474078,-49,124,511,0
474089,-66,60,511,0
474100,-6,4,467,0
474111,48,-78,294,0
474122,64,-97,253,0
474133,38,-21,407,0
474144,14,1,472,0
474155,-13,40,491,0
474166,-58,56,484,0
474177,-87,82,490,0
474188,-123,90,464,0
474199,-135,74,418,0
474210,-129,63,381,0
474221,-121,50,347,0
474232,-99,50,336,0
474243,-81,66,326,0
474254,-54,55,299,0
474265,-36,47,256,0
474276,-21,27,169,0
474287,-19,18,129,0
474298,11,-19,94,0
474309,31,-44,66,0
474320,36,-46,28,0
474331,36,-31,-6,0
474342,38,-19,-45,0
474353,42,-17,-73,0
474364,31,-24,-86,0
474375,8,-30,-86,0
474386,-5,-42,-96,0
474397,-13,-50,-89,0
474408,-14,-43,-61,0
474419,4,-34,-29,0
474430,123,19,36,0
474441,110,-58,91,1
474452,76,-146,173,0
474463,61,-136,215,0
474474,19,-23,282,0
474485,-13,74,480,0
474496,-16,102,511,0
474507,69,200,511,0
474518,154,103,511,0
474529,139,-3,511,0
474540,90,28,494,0
474551,36,51,487,0
474562,-28,49,505,0
474573,-75,46,511,0
474584,-94,57,511,0
474595,-87,63,484,0
474606,-71,57,440,0
474617,-54,39,381,0
474628,-43,12,339,0
474639,-21,-39,298,0
474650,-10,-64,233,0
474661,-27,-28,192,0
474672,-41,-29,129,0
474683,-43,-24,76,0
474694,-27,12,60,0
474705,-16,35,59,0
474716,11,12,28,0
474727,64,33,-7,0
474738,65,19,-37,0
474749,68,1,-63,0
474760,79,-30,-78,0
474771,88,-46,-94,0
474782,73,-20,-85,0
474793,63,-7,-75,0
474804,58,1,-28,0
474815,55,-4,2,0
474826,60,-35,18,0
474837,51,-22,14,1
474848,35,-58,25,0
474859,8,-6,35,0
474870,56,-125,100,0
474881,113,24,286,0
474892,132,85,441,0
474903,57,133,495,0
474914,-43,125,511,0
474925,-65,64,511,0
474936,-28,24,511,0
474947,-24,-52,375,0
474958,-68,-74,337,0
474969,-85,-42,378,0
474980,-63,-14,448,0
474991,-46,11,483,0
475002,-55,41,484,0
475013,-75,64,480,0
475024,-89,70,430,0
475035,-92,77,399,0
475046,-99,68,379,0
475057,-97,67,362,0
475068,-86,55,344,0
475079,-70,53,311,0
475090,-56,56,281,0
475101,-50,52,243,0
475112,-53,42,201,0
475123,-41,24,163,0
475134,-21,17,147,0
475145,-4,-6,126,0
475156,23,-31,100,0
475167,41,-22,58,0
475178,57,2,-23,0
475189,53,9,-53,1
475200,19,-1,-71,0
475211,-10,-19,-77,0
475222,-29,-38,-89,0
475233,-29,-41,-99,0
475244,-16,-26,-89,0
475255,21,-11,-65,0
475266,115,4,-31,0
475277,121,4,22,0
475288,123,-110,84,0
475299,100,-179,157,0
475310,84,-149,198,0
475321,39,3,280,0
475332,-7,99,511,0
475343,66,157,511,0
475354,114,90,511,0
475365,79,-20,508,0
475376,30,13,469,0
475387,-24,54,470,0
475398,-77,53,487,0
475409,-106,42,476,0
475420,-117,41,466,0
475431,-114,49,466,0
475443,-101,41,447,0
475454,-77,31,406,0
475465,-23,-17,303,0
475476,-4,-17,269,0
475487,1,-13,213,0
475498,-9,0,163,0
475509,-23,6,133,0
475520,-16,2,112,0
475531,-1,15,100,0
475542,20,36,72,0
475553,28,46,38,0
475564,42,27,-1,0
475575,66,5,-38,0
475586,85,-16,-50,1
475597,105,-34,-61,0
475608,96,-31,-59,0
475619,110,-1,-37,0
475630,120,19,-11,0
475641,115,-7,-12,0
475652,89,-7,-1,0
475663,91,-35,6,0
475674,152,-98,149,0
475685,170,-58,214,0
475696,-18,127,236,0
475707,12,-23,273,0
475718,-24,35,286,0
475729,-73,-25,425,0
475740,-149,4,511,0
475751,-201,-25,511,0
475762,-116,21,409,0
475773,-92,-4,388,0
475784,-60,5,411,0
475795,-47,33,454,0
475806,-74,47,481,0
475817,-99,41,479,0
475828,-109,37,452,0
475839,-104,28,397,0
475850,-88,17,332,0
475861,-59,3,281,0
475872,-31,-2,244,0
475883,-6,-2,238,0
475894,7,25,255,0
475906,20,60,249,0
475917,34,52,245,0
475928,46,47,213,0
475939,38,55,182,0
475950,42,18,146,0
475961,50,5,131,0
475972,40,25,101,0
475983,38,20,67,0
475994,37,21,36,0
476005,39,14,0,0
476016,25,0,-36,0
476027,2,-13,-63,0
476038,-12,-42,-86,1
476049,0,-13,-91,0
476060,116,44,-111,0
476071,136,95,-74,0
476082,83,-41,27,0
476093,31,-215,138,0
476104,8,-178,174,0
476115,-5,-42,273,0
476126,-30,70,497,0
476137,-41,74,511,0
476148,15,139,511,0
476159,72,71,511,0
476170,71,-7,431,0
476181,21,3,390,0
476192,-26,30,391,0
476203,-85,28,433,0
476214,-87,40,455,0
476225,-74,56,453,0
476236,-61,59,430,0
476247,-47,48,382,0
476258,-34,43,352,0
476269,-17,41,328,0
476280,-14,41,304,0
476291,-16,39,273,0
476302,4,16,235,0
476313,12,-13,197,0
476324,14,-42,135,0
476335,-4,23,98,0
476346,-14,61,62,0
476357,31,0,30,0
476368,57,3,-1,0
476379,63,35,-8,1
476390,77,36,-22,0
476401,108,-4,-20,0
476412,135,-21,-10,0
476423,146,-6,17,0
476434,159,-2,50,0
476445,184,-22,68,0
476456,186,-4,65,0
476467,176,-20,59,0
476478,185,-27,116,0
476489,199,60,267,0
476500,-3,149,243,0
476511,3,-8,229,0
476522,-59,-11,270,0
476533,-92,-71,349,0
476544,-154,-111,388,0
476555,-160,-69,410,0
476566,-84,2,390,0
476577,-37,22,408,0
476588,-19,30,428,0
476599,-12,33,439,0
476610,-25,35,465,0
476621,-61,49,484,0
476632,-101,44,477,0
476643,-126,33,445,0
476654,-118,20,359,0
476665,-98,14,312,0
476676,-71,13,274,0
476687,-37,24,252,0
476698,-8,53,239,0
476709,10,74,231,0
476720,15,94,238,0
476731,17,105,240,0
476742,20,87,217,0
476753,18,80,209,0
476764,18,59,190,0
476775,7,47,171,0
476786,2,38,125,0
476797,0,42,78,0
476808,28,18,-25,0
476819,26,22,-44,0
476830,8,8,-63,1
476841,-3,-27,-80,0
476852,-4,-23,-83,0
476863,12,2,-68,0
476874,116,7,-68,0
476885,190,56,-61,0
476896,214,0,7,0
476907,187,-205,116,0
476918,109,-203,188,0
476929,4,-91,258,0
476940,-80,40,447,0
476951,-28,225,511,0
476962,76,176,511,0
476973,81,26,434,0
476984,47,9,386,0
476995,7,18,366,0
477006,-27,12,385,0
477017,-51,10,412,0
477028,-66,23,435,0
477039,-70,27,445,0
477050,-48,32,444,0
477061,-32,38,417,0
477072,-20,42,381,0
477083,-11,50,349,0
477094,-1,55,312,0
477105,22,39,213,0
477116,15,20,178,0
477127,5,-1,141,0
477138,1,-14,111,0
477149,6,-3,86,0
477160,17,34,76,0
477171,35,58,44,0
477182,52,59,34,0
477193,85,13,40,0
477204,115,31,34,0
477215,125,16,43,1
477226,139,-19,30,0
477237,144,-3,35,0
477249,124,7,62,0
477260,109,17,62,0
477271,86,-4,40,0
477282,80,-14,46,0
477293,91,7,111,0
477304,104,13,204,0
477315,23,28,236,0
477326,23,11,280,0
477337,-1,-6,258,0
477348,-30,-50,284,0
477359,-21,-64,340,0
477370,-44,-38,390,0
477381,-40,-12,426,0
477392,-55,50,439,0
477403,-50,51,436,0
477414,-41,49,462,0
477425,-61,65,498,0
477436,-89,77,491,0
477447,-99,65,451,0
477458,-80,57,407,0
477469,-59,58,362,0
477480,-35,55,320,0
477491,-5,45,275,0
477502,24,52,256,0
477513,53,68,251,0
477524,68,87,263,0
477535,68,104,255,0
477546,30,90,217,0
477557,12,74,208,0
477568,-3,64,201,0
477579,-6,51,190,0
477590,0,37,151,0
477601,0,50,117,0
477612,7,43,80,0
477623,21,16,43,0
477634,32,-1,15,0
477645,14,-5,-14,0
477656,-10,-17,-24,0
477667,-23,-16,-27,0
477678,14,-7,-50,1
477689,144,34,-33,0
477700,113,-26,68,0
477711,82,-128,135,0
477722,71,-107,153,0
477733,48,-31,208,0
477744,14,38,302,0
477755,-18,21,454,0
477766,-54,35,511,0
477777,-10,144,511,0
477788,54,134,511,0
477799,48,59,490,0
477810,18,53,458,0
477821,-9,66,471,0
477832,-31,66,467,0
477843,-63,66,441,0
477854,-65,67,413,0
477865,-59,58,372,0
477876,-52,48,332,0
477887,-40,44,292,0
477898,-30,31,254,0
477909,-18,6,223,0
477920,-15,-21,179,0
477931,1,6,170,0
477942,13,37,100,0
477953,23,52,73,0
477964,67,21,53,0
477975,112,8,28,0
477986,132,11,6,0
477997,120,31,-22,0
478008,120,18,-14,0
478019,125,-8,2,0
478030,140,-5,1,0
478041,146,-18,0,0
478052,140,-32,-5,0
478063,169,-74,11,0
478074,206,-38,97,0
478085,176,43,170,0
478096,75,54,152,1
478107,9,14,167,0
478118,-91,34,183,0
478129,-115,-76,287,0
478140,-155,-104,495,0
478151,-178,2,511,0
478162,-113,70,511,0
478173,-69,51,459,0
478184,-40,20,435,0
478195,-36,25,419,0
478206,-53,47,440,0
478217,-82,58,474,1
478228,-112,71,480,0
478239,-126,73,453,0
478250,-109,58,397,0
478261,-73,43,339,0
478272,-42,40,305,0
478283,-5,45,306,0
478294,35,93,314,0
478305,42,84,288,0
478316,64,75,248,0
478327,58,72,213,0
478338,39,43,160,0
478349,27,20,119,0
478360,21,14,92,0
478371,17,9,65,0
478382,17,21,38,0
478393,19,43,3,0
478404,31,20,-35,0
478415,26,6,-53,0
478426,13,-5,-81,0
478437,-4,-5,-96,1
478448,-4,-26,-85,0
478459,71,-25,-78,0
478470,143,23,-71,0
478481,146,-26,-10,0
478492,125,-126,91,0
478503,85,-112,163,0
478514,71,-66,238,0
478525,31,64,403,0
478536,8,123,511,0
478547,23,141,511,0
478558,80,150,511,0
478569,83,39,511,0
478580,56,1,452,0
478591,-10,45,432,0
478602,-23,63,459,0
478613,-29,61,484,0
478624,-37,55,511,0
478635,-41,57,510,0
478646,-48,45,472,0
478657,-54,34,427,0
478668,-61,30,387,0
478679,-61,12,331,0
478690,-40,-3,291,0
478701,0,-79,221,0
478712,3,-42,161,0
478723,-32,12,111,0
478734,-43,3,54,0
478745,26,25,10,0
478756,49,22,7,0
478767,75,9,5,0
478778,95,3,-22,0
478789,103,13,-34,0
478800,123,9,-53,0
478811,93,15,-43,0
478822,167,21,-53,0
478833,170,-8,-27,1
478844,169,-2,-19,0
478855,129,33,-14,0
478866,149,-44,12,0
478877,192,-52,111,0
478888,46,60,249,0
478899,-15,17,253,0
478910,-53,-26,293,0
478921,-58,-95,365,0
478932,-115,-84,422,0
478943,-183,-44,450,0
478954,-196,-34,415,0
478965,-169,-2,376,1
478976,-152,-12,388,0
478987,-146,5,437,0
478998,-125,28,498,0
479009,-119,48,511,0
479020,-103,60,511,0
479031,-82,57,466,0
479042,-34,39,356,0
479053,4,20,302,0
479064,47,24,277,0
479075,80,48,322,0
479086,86,88,355,0
479097,78,103,350,0
479108,72,91,322,0
479119,46,72,270,0
479130,16,49,218,0
479141,-14,18,170,0
479152,-36,-10,149,0
479163,-48,-30,122,0
479174,-48,-22,96,0
479185,-36,-11,58,0
479196,-23,22,-35,0
479207,-21,8,-66,1
479218,-19,-17,-90,0
479229,-17,-31,-125,0
479240,-20,-17,-122,0
479251,-8,-14,-132,0
479262,25,-9,-104,0
479273,151,29,-67,0
479284,208,47,7,0
479295,165,-44,129,0
479306,117,-182,192,0
479317,96,-168,233,0
479328,24,-27,317,0
479339,30,88,511,0
479350,133,171,511,0
479361,182,67,511,0
479372,139,20,494,0
479383,80,69,451,0
479394,26,113,471,0
479405,-13,77,447,0
479416,-51,69,449,0
479427,-70,54,455,0
479438,-79,43,447,0
479449,-85,45,418,0
479460,-100,45,377,0
479471,-64,31,325,0
479482,-50,13,265,0
479493,-33,-9,228,0
479504,-6,-25,162,0
479515,21,8,126,0
479526,22,31,84,0
479537,21,30,34,0
479548,46,18,-4,0
479559,88,-14,-48,0
479570,119,-18,-63,0
479582,121,2,-92,0
479593,109,33,-100,1
479604,101,15,-119,0
479615,116,-5,-115,0
479626,133,-16,-25,0
479637,127,-18,-3,0
479648,140,-101,5,0
479660,234,-164,161,0
479671,147,75,247,0
479682,16,63,261,0
479693,-71,80,249,0
479704,-147,33,235,0
479715,-158,-119,329,0
479726,-182,-94,464,0
479737,-236,-69,511,0
479748,-180,3,469,0
479759,-93,31,425,0
479770,-1,3,436,0
479781,16,23,450,0
479792,-12,30,447,0
479803,-34,46,460,0
479814,-59,58,454,0
479825,-73,51,420,0
479836,-75,50,373,0
479847,-53,43,344,0
479858,-36,31,308,0
479869,18,42,332,0
479880,-2,95,347,0
479891,4,98,321,0
479902,24,98,267,0
479913,14,41,164,0
479924,23,3,148,0
479935,38,-28,138,0
479946,44,-35,114,0
479957,41,-26,67,0
479968,46,-13,25,0
479979,41,7,-25,1
479990,25,7,-63,0
480001,4,-19,-90,0
480012,-8,-49,-111,0
480023,-10,-57,-129,0
480034,2,-49,-130,0
480045,76,-17,-123,0
480056,133,-12,18,0
480067,102,-138,115,0
480078,54,-173,170,0
480089,31,-68,227,0
480100,17,120,375,0
480111,22,168,511,0
480122,71,130,511,0
480133,156,149,511,0
480144,154,22,511,0
480155,112,-13,463,0
480166,51,7,453,0
480177,-5,23,439,0
480188,-27,29,444,0
480199,-51,48,473,0
480210,-65,61,490,0
480221,-72,40,443,0
480232,-73,22,394,0
480243,-58,-1,362,0
480254,-47,-27,308,0
480265,-28,-52,263,0
480276,-25,-30,200,0
480287,-36,38,157,0
480298,-28,47,98,0
480309,-12,13,46,0
480320,18,16,19,0
480331,46,19,-11,0
480342,47,26,-29,0
480353,56,10,-58,0
480364,65,-29,-115,0
480375,76,-32,-117,1
480386,91,-15,-95,0
480397,121,-16,-59,0
480408,135,-27,-31,0
480419,140,-17,-13,0
480430,135,-21,16,0
480441,135,-25,-5,0
480452,212,-71,188,0
480463,197,92,292,0
480474,59,163,310,0
480485,31,88,290,0
480496,-24,20,274,0
480507,-89,-7,370,0
480518,-241,-44,511,0
480529,-193,-9,477,0
480540,-132,14,436,0
480551,-74,17,439,0
480562,-12,54,459,0
480573,-11,72,500,0
480584,-43,111,511,0
480595,-91,99,511,0
480606,-124,83,468,0
480617,-141,68,415,0
480628,-135,59,361,0
480639,-107,37,300,0
480650,-72,26,260,0
480661,-44,36,260,0
480672,3,97,266,0
480683,33,95,249,0
480694,48,90,213,0
480705,48,73,168,0
480716,51,53,143,0
480727,45,24,107,0
480738,39,0,72,0
480749,40,-6,35,0
480760,34,4,0,0
480771,27,17,-32,0
480782,28,12,-64,0
480793,15,13,-82,0
480804,-1,-15,-95,0
480815,-21,-34,-101,0
480826,35,-16,-112,1
480837,148,37,-118,0
480848,222,140,-109,0
480860,203,46,-13,0
480871,154,-209,160,0
480882,49,-281,293,0
480893,8,-89,359,0
480904,-77,93,511,0
480915,-73,212,511,0
480926,18,244,511,0
480937,64,89,511,0
480948,37,-7,464,0
480959,-58,108,475,0
480970,-65,92,465,0
480981,-67,85,479,0
480992,-74,95,483,0
481003,-57,75,473,0
481014,-43,74,475,0
481025,-32,66,435,0
481036,-7,33,394,0
481047,26,-54,347,0
481058,31,-16,291,0
481069,8,103,241,0
481080,4,62,180,0
481091,14,15,143,0
481102,28,-8,80,0
481113,60,28,38,0
481124,79,35,9,0
481135,94,27,-38,0
481146,96,12,-72,1
481157,90,-10,-87,0
481168,85,-14,-92,0
481179,86,-1,-93,0
481190,94,-13,-66,0
481201,116,-52,-51,0
481212,123,-46,-24,0
481223,124,-34,2,0
481235,151,-64,13,0
481246,118,21,224,0
481257,58,72,257,0
481268,5,65,229,0
481279,-61,27,242,0
481290,-84,-36,329,0
481301,-110,-29,481,0
481312,-219,-3,511,0
481323,-199,41,511,0
481334,-93,64,454,0
481345,-48,32,413,0
481356,-5,19,417,0
481367,22,48,432,0
481378,7,67,455,0
481389,-24,78,474,0
481400,-63,77,429,0
481411,-63,62,378,0
481422,-46,48,334,0
481433,-28,36,311,0
481444,-12,36,315,0
481455,-8,67,319,0
481466,5,93,313,0
481477,30,97,279,0
481488,29,86,229,0
481499,25,61,178,0
481510,20,23,154,0
481521,16,-2,132,0
481532,1,-2,108,0
481543,-13,-3,43,0
481554,-14,17,4,0
481565,-20,20,-20,1
481576,-29,5,-47,0
481587,-30,-6,-65,0
481598,-25,-13,-92,0
481609,-16,-18,-98,0
481620,48,-23,-109,0
481631,154,48,-107,0
481642,156,72,-44,0
481653,105,-57,57,0
481664,62,-186,132,0
481675,36,-147,187,0
481686,6,5,297,0
481697,-43,75,511,0
481708,32,161,511,0
481719,100,105,511,0
481730,96,31,447,0
481741,55,11,401,0
481752,-4,64,424,0
481763,-43,82,441,0
481774,-61,62,430,0
481785,-70,75,466,0
481796,-68,75,472,0
481807,-76,65,448,0
481818,-83,52,392,0
481829,-87,37,323,0
481840,-77,21,281,0
481851,-10,-74,220,0
481862,-1,-12,163,0
481873,-20,62,119,0
481884,-6,20,98,0
481895,29,0,101,0
481906,70,14,89,0
481917,101,46,62,0
481928,118,42,13,0
481939,130,36,-22,0
481950,135,31,-41,0
481961,138,7,-59,0
481972,145,-6,-63,1
481983,140,-2,-46,0
481994,127,-1,-40,0
482005,112,-27,-3,0
482016,155,-78,17,0
482027,269,-171,181,0
482038,248,54,349,0
482049,146,87,385,0
482060,-5,115,237,0
482071,-49,48,206,0
482082,-163,-15,245,0
482093,-158,-127,326,0
482104,-261,-109,394,0
482115,-282,-65,362,0
482126,-190,-38,357,0
482137,-106,10,414,0
482148,20,62,491,0
482159,21,64,486,0
482170,-10,51,455,0
482181,-51,40,419,0
482192,-105,21,379,0
482203,-118,15,344,0
482214,-110,20,317,0
482225,-88,29,299,0
482236,-58,25,279,0
482247,-22,35,264,0
482258,16,51,259,0
482269,50,67,253,0
482280,70,93,251,0
482291,69,103,248,0
482302,10,105,229,0
482313,-21,83,219,0
482324,-30,43,189,0
482335,-13,17,155,0
482346,-3,15,112,0
482357,5,18,67,0
482368,16,28,26,0
482379,29,11,0,0
482390,34,-20,-23,1
482401,21,-35,-30,0
482412,9,-45,-33,0
482423,-2,-41,-32,0
482434,-2,-30,-58,0
482445,13,9,-71,0
482456,225,167,-90,0
482467,198,139,-30,0
482478,122,-252,149,0
482489,72,-409,246,0
482500,14,-182,263,0
482511,-72,-10,511,0
482522,-53,121,511,0
482533,63,225,511,0
482544,118,83,511,0
482555,92,-4,495,0
482567,22,7,437,0
482578,-62,74,479,0
482589,-134,82,468,0
482600,-125,94,470,0
482611,-94,98,455,0
482622,-72,98,422,0
482633,-57,93,385,0
482644,-32,79,340,0
482655,-20,66,305,0
482666,-16,67,279,0
482677,-9,79,266,0
482688,-1,84,229,0
482699,5,74,169,0
482710,3,67,120,0
482721,3,64,85,0
482732,-2,61,56,0
482743,-1,34,3,0
482754,21,21,11,0
482765,51,17,32,0
482776,75,-24,32,1
482787,115,14,40,0
482798,132,118,-11,0
482809,94,96,-33,0
482820,103,-51,7,0
482831,117,-3,14,0
482842,136,4,33,0
482853,155,-1,55,0
482864,168,24,106,0
482875,136,42,121,0
482886,98,-17,128,0
482897,111,-18,133,0
482908,65,38,190,0
482919,93,1,316,0
482930,114,-2,366,0
482941,118,27,511,0
482952,28,236,511,0
482963,-23,228,511,0
482974,12,116,464,0
482985,2,48,356,0
482996,-2,26,352,0
483007,-16,30,396,0
483018,-35,74,464,0
483029,-60,101,510,0
483040,-51,96,445,0
483051,-35,102,374,0
483062,-8,87,317,0
483073,-2,82,269,0
483084,-5,88,242,0
483095,2,96,207,0
483106,4,106,201,0
483117,8,110,182,0
483128,8,116,161,0
483139,22,99,146,0
483150,46,112,150,0
483161,58,107,146,0
483172,64,86,139,0
483183,75,91,131,0
483194,82,54,70,0
483205,77,41,48,0
483216,67,38,26,0
483227,45,35,17,0
483238,28,14,8,1
483249,6,-7,2,0
483260,-1,-15,-4,0
483272,22,0,-13,0
483283,45,20,-17,0
483294,65,23,-11,0
483305,94,7,9,0
483316,91,-1,48,0
483327,150,-68,205,0
483338,86,-192,408,0
483349,-89,-265,511,0
483360,-144,2,511,0
483371,-1,293,511,0
483382,81,208,511,0
483393,84,77,467,0
483404,35,62,403,0
483415,-4,46,378,0
483426,-42,41,412,0
483437,-66,40,437,0
483448,-69,54,457,0
483459,-50,45,446,0
483470,-6,24,415,0
483481,42,39,349,0
483492,41,53,311,0
483503,36,51,262,0
483514,19,45,235,0
483525,-7,24,196,0
483536,-37,35,176,0
483547,-50,60,129,0
483558,-44,75,94,0
483569,-32,86,71,0
483580,-14,49,44,0
483591,16,43,13,0
483602,28,75,-4,0
483613,42,58,6,0
483624,67,9,17,0
483635,70,22,15,0
483646,75,-12,16,0
483657,64,5,11,1
483668,79,-23,4,0
483679,131,-95,38,0
483690,175,-36,104,0
483701,169,21,198,0
483712,130,44,247,0
483723,101,19,247,0
483734,73,10,296,0
483745,42,-24,370,0
483756,10,-28,407,0
483767,-46,-49,438,0
483778,-62,11,389,0
483789,-64,6,364,0
483800,-53,3,370,0
483811,-36,25,385,0
483823,-21,56,400,0
483834,-22,65,404,0
483845,-29,61,390,0
483856,-29,62,361,0
483867,-19,51,323,0
483878,2,32,292,0
483889,31,21,271,0
483900,56,24,263,0
483911,66,55,277,0
483922,56,63,275,0
483933,32,61,250,0
483944,0,58,228,0
483955,-28,37,200,0
483966,-41,13,187,0
483977,-45,2,175,0
483988,-50,17,161,0
483999,-51,28,129,0
484010,-43,42,96,0
484021,-29,33,59,0
484032,-27,22,21,1
484043,-33,8,-12,0
484054,-41,2,-30,0
484065,21,-16,-54,0
484076,72,1,-47,0
484087,62,-41,15,0
484098,52,-89,107,0
484109,22,-84,159,0
484120,7,-46,181,0
484131,0,-6,217,0
484142,24,47,302,0
484153,64,53,434,0
484164,96,35,511,0
484175,146,100,511,0
484186,192,127,511,0
484197,178,75,508,0
484208,135,56,441,0
484219,37,35,409,0
484230,3,32,416,0
484241,-30,40,417,0
484252,-70,63,426,0
484263,-69,59,440,0
484274,-64,65,410,0
484285,-50,23,359,0
484296,-35,-3,317,0
484307,-45,37,237,0
484318,-56,49,208,0
484329,-57,-3,154,0
484340,-66,10,108,0
484351,-40,-4,78,0
484362,22,27,38,0
484373,44,38,23,0
484384,51,27,3,0
484395,51,13,-15,0
484406,53,-1,-30,0
484417,60,-32,-38,1
484428,69,-50,-24,0
484439,89,-62,-26,0
484450,86,-25,-34,0
484461,66,9,-9,0
484472,50,-12,19,0
484483,83,-106,22,0
484494,156,-255,186,0
484505,26,192,270,0
484516,69,-67,220,0
484527,31,49,301,0
484538,35,31,418,0
484549,-52,-36,507,0
484560,-123,45,511,0
484571,-74,21,511,0
484582,-35,12,389,0
484593,3,-14,338,0
484604,48,-11,347,0
484615,75,21,382,0
484626,67,34,424,0
484637,48,46,446,0
484648,19,55,429,0
484659,-10,49,394,0
484670,-40,39,305,0
484681,-33,31,268,0
484692,-38,18,250,0
484703,-35,21,243,0
484714,-32,23,249,0
484725,-24,15,230,0
484736,-18,20,228,0
484747,-19,19,218,0
484758,-41,35,209,0
484769,-69,42,196,0
484780,-77,16,176,0
484791,-74,10,145,0
484802,-74,26,112,0
484813,-65,24,33,0
484824,-44,5,5,1
484835,-19,-11,-15,0
484846,-3,-17,-21,0
484857,-3,-18,-30,0
484868,1,-22,-35,0
484879,14,-30,-40,0
484890,107,-55,-66,0
484901,169,-40,-61,0
484912,142,-85,7,0
484923,74,-214,117,0
484934,9,-257,198,0
484945,9,-65,251,0
484956,-29,127,425,0
484967,84,70,511,0
484978,182,98,511,0
484989,189,13,511,0
485000,156,1,502,0
485011,91,38,483,0
485022,16,27,472,0
485033,-45,27,488,0
485045,-65,27,495,0
485056,-62,37,474,0
485067,-53,54,440,0
485078,-38,62,389,0
485089,-33,44,336,0
485100,-41,25,298,0
485111,-37,-16,235,0
485122,-42,-28,182,0
485133,-55,-8,145,0
485144,-63,-6,102,0
485155,-62,-15,51,0
485166,-35,-10,31,0
485177,5,0,19,0
485188,40,-5,-14,0
485199,64,-7,-53,0
485211,74,-8,-82,0
485222,78,-6,-84,0
485233,77,-9,-77,0
485244,80,-24,-65,0
485255,78,-8,-50,0
485266,72,7,-23,0
485277,59,12,5,1
485288,42,-5,26,0
485299,117,-122,49,0
485310,269,-246,298,0
485321,187,287,284,0
485332,41,108,381,0
485343,40,145,325,0
485354,1,68,397,0
485365,-64,39,464,0
485376,-136,51,511,0
485387,-136,28,448,0
485398,-73,7,340,0
485409,-26,19,384,0
485420,16,43,444,0
485431,26,45,455,0
485442,4,43,447,0
485453,-26,49,447,0
485464,-71,59,438,0
485475,-113,58,421,0
485486,-134,58,392,0
485497,-136,51,356,0
485508,-131,44,324,0
485519,-113,26,295,0
485530,-73,30,285,0
485541,-14,51,287,0
485552,-4,53,256,0
485563,-15,56,202,0
485574,-26,48,185,0
485585,-30,13,155,0
485596,-18,-24,122,0
485607,-7,-43,94,0
485618,0,-50,46,0
485629,4,-48,4,0
485640,12,-38,-26,0
485651,7,-28,-41,0
485662,-6,-22,-56,0
485673,-14,-29,-67,0
485684,-7,-26,-54,0
485695,126,-19,-38,0
485706,105,-53,30,0
485717,82,-136,122,0
485728,29,-167,169,0
485739,6,-89,191,1
485750,-16,38,259,0
485761,-3,112,418,0
485772,37,79,511,0
485783,82,62,511,0
485794,145,109,511,0
485805,159,47,511,0
485816,122,21,485,0
485827,56,20,452,0
485838,4,29,451,0
485849,-42,24,482,0
485860,-43,37,466,0
485871,-46,57,447,0
485882,-46,54,408,0
485893,-49,33,368,0
485904,-46,8,322,0
485915,-44,-30,279,0
485926,-47,-55,237,0
485937,-52,-65,197,0
485948,-55,-73,159,0
485959,-35,-53,114,0
485970,-15,8,70,0
485981,5,35,29,0
485992,34,48,15,0
486003,43,39,-50,0
486014,40,19,-68,0
486025,42,-1,-71,0
486036,48,-26,-85,0
486047,61,-41,-107,0
486058,70,-41,-94,0
486069,76,-17,-48,0
486080,78,10,-16,1
486091,81,20,17,0
486102,63,12,42,0
486113,63,-18,37,0
486124,154,-159,185,0
486135,259,-119,389,0
486146,48,78,313,0
486157,17,154,284,0
486168,-62,-45,330,0
486179,-105,3,361,0
486190,-136,-15,376,0
486201,-131,-39,386,0
486212,-113,-7,410,0
486223,-83,33,470,0
486235,-55,44,511,0
486246,-23,59,511,0
486257,-33,49,497,0
486268,-53,45,459,0
486279,-66,36,421,0
486290,-106,37,374,0
486301,-101,41,349,0
486312,-83,29,322,0
486323,-65,29,308,0
486334,-45,34,289,0
486345,-16,35,276,0
486356,8,40,261,0
486367,13,39,216,0
486378,0,31,195,0
486389,-13,3,179,0
486400,0,-36,151,0
486411,2,-15,113,0
486422,-10,6,64,0
486433,1,-9,-7,0
486444,4,-8,-33,0
486455,1,-20,-56,0
486466,-7,-31,-57,0
486477,-20,-48,-66,0
486488,-15,-56,-70,0
486499,-9,-36,-55,0
486510,56,-35,-53,1
486521,135,4,-36,0
486532,120,-17,18,0
486543,90,-151,108,0
486554,68,-191,175,0
486565,37,-82,196,0
486576,-6,73,330,0
486587,9,93,511,0
486599,85,178,511,0
486610,131,77,511,0
486621,104,10,465,0
486632,39,36,443,0
486643,-10,28,428,0
486654,-49,22,435,0
486665,-78,41,463,0
486676,-99,56,480,0
486687,-109,71,469,0
486698,-109,67,435,0
486709,-103,49,386,0
486720,-96,24,329,0
486731,-82,-36,242,0
486742,-66,-63,199,0
486753,-55,-54,143,0
486764,-51,-20,100,0
486775,-38,0,77,0
486786,0,-9,74,0
486797,44,1,67,0
486808,74,29,21,0
486819,84,47,-17,0
486830,88,29,-47,0
486841,91,-11,-58,0
486852,93,-32,-66,0
486863,97,-34,-60,0
486874,115,-18,-24,0
486885,119,-2,-12,1
486896,100,3,-1,0
486907,78,0,21,0
486918,115,-66,40,0
486929,215,-166,238,0
486940,211,118,302,0
486951,55,132,324,0
486962,27,127,277,0
486973,-13,83,288,0
486984,-74,19,376,0
486995,-143,13,451,0
487006,-176,6,451,0
487017,-173,-41,381,0
487028,-69,-20,405,1
487039,-32,-6,446,0
487050,-10,38,483,0
487061,-32,55,497,0
487072,-76,61,491,0
487083,-117,72,469,0
487094,-149,73,433,0
487105,-166,67,384,0
487117,-151,60,342,0
487128,-119,45,309,0
487139,-82,32,283,0
487150,-41,26,279,0
487161,45,42,295,0
487172,58,48,289,0
487183,58,37,236,0
487194,34,59,222,0
487205,10,29,174,0
487216,0,-5,135,0
487227,-9,-12,86,0
487238,-11,-19,23,0
487249,-1,-35,-23,0
487260,9,-39,-51,0
487271,5,-35,-74,0
487282,-12,-36,-91,0
487293,-31,-38,-97,0
487304,-42,-48,-108,0
487315,-27,-11,-55,0
487326,48,7,-30,1
487337,171,65,-8,0
487348,170,67,65,0
487359,115,-81,146,0
487370,107,-203,226,0
487381,61,-135,234,0
487392,0,33,414,0
487403,-22,75,511,0
487414,10,163,511,0
487425,117,155,511,0
487436,112,13,490,0
487447,50,18,458,0
487458,-10,58,455,0
487469,-113,66,469,0
487480,-142,66,471,0
487491,-156,67,468,0
487502,-137,50,443,0
487513,-122,56,407,0
487524,-97,36,378,0
487535,-69,23,355,0
487546,-57,7,312,0
487557,-44,-3,275,0
487568,-28,-20,218,0
487579,-23,-4,141,0
487590,-28,6,82,0
487601,-25,1,57,0
487612,-10,12,58,0
487623,48,22,15,0
487634,66,12,-3,0
487645,82,-13,-45,0
487656,90,-33,-47,0
487667,106,-56,-54,0
487678,122,-52,-56,0
487689,133,-16,-42,0
487700,146,8,-24,0
487711,148,3,14,0
487722,137,-27,22,0
487733,182,-79,52,1
487744,202,6,176,0
487755,170,121,263,0
487766,57,38,232,0
487777,-64,2,207,0
487788,-140,-39,297,0
487799,-202,-44,390,0
487810,-271,-69,423,0
487821,-246,-22,416,0
487832,-154,19,397,0
487843,-93,29,398,0
487854,-29,42,427,0
487865,-4,75,474,0
487876,-20,83,494,0
487887,-63,72,463,0
487898,-106,58,435,0
487909,-126,53,412,0
487920,-117,48,350,0
487931,-91,35,315,0
487942,-73,35,292,0
487953,-47,42,286,0
487964,-18,57,281,0
487975,6,77,268,0
487986,22,87,259,0
487997,25,83,243,0
488008,18,68,195,0
488019,12,54,181,0
488030,15,16,146,0
488041,29,-4,108,0
488052,27,11,72,0
488063,35,7,36,0
488074,52,6,0,0
488085,48,2,-41,0
488096,29,0,-54,0
488107,3,-23,-84,0
488118,-11,-25,-89,1
488129,4,-11,-80,0
488141,59,14,-67,0
488152,203,105,-61,0
488163,219,148,-11,0
488174,130,-59,121,0
488185,114,-255,217,0
488196,33,-211,261,0
488207,-93,78,511,0
488218,-75,113,511,0
488229,35,170,511,0
488240,53,32,463,0
488251,16,1,399,0
488262,-39,49,411,0
488273,-81,98,478,0
488284,-106,70,477,0
488295,-128,79,494,0
488306,-131,91,497,0
488317,-122,84,481,0
488328,-107,82,450,0
488339,-84,68,395,0
488350,-64,62,345,0
488361,-22,65,270,0
488372,-5,58,239,0
488383,8,37,182,0
488394,10,23,152,0
488405,11,-1,121,0
488416,21,-3,122,0
488427,49,-11,96,0
488438,80,2,46,0
488449,82,63,36,0
488460,123,23,25,0
488471,147,65,1,0
488482,154,51,1,0
488493,166,13,-16,0
488504,151,23,-15,0
488515,109,-1,10,0
488526,86,-11,12,1
488537,71,-24,2,0
488548,68,-34,10,0
488559,65,-6,20,0
488570,36,-19,46,0
488581,6,-31,60,0
488593,62,-75,126,0
488604,54,-33,181,0
488615,44,-3,303,0
488626,131,-18,458,0
488637,104,60,511,0
488648,-52,58,511,0
488659,-74,34,424,0
488670,-83,-20,372,0
488681,-82,-9,392,0
488692,-98,14,433,0
488703,-97,48,504,0
488714,-100,73,511,0
488725,-92,75,511,0
488736,-81,67,505,0
488747,-70,58,437,0
488758,-45,42,378,0
488769,-23,56,334,0
488780,-14,66,314,0
488791,-10,87,306,0
488802,-4,116,266,0
488813,-5,107,246,0
488824,1,80,206,0
488835,17,61,164,0
488846,21,50,141,0
488857,35,40,126,0
488868,50,49,111,0
488879,56,58,98,0
488890,63,33,60,0
488901,74,9,10,0
488912,59,14,-27,0
488923,37,9,-51,0
488934,21,1,-66,1
488945,19,-2,-68,0
488956,109,28,-67,0
488967,183,83,-67,0
488978,167,58,-18,0
488989,144,-85,61,0
489000,126,-166,114,0
489011,63,-150,155,0
489023,13,-52,246,0
489034,-63,-4,455,0
489045,-102,32,511,0
489056,-39,185,511,0
489067,44,166,511,0
489078,59,55,502,1
489089,-18,70,462,0
489100,-43,63,448,0
489111,-57,56,447,0
489122,-50,47,439,0
489133,-43,54,434,0
489144,-28,60,419,0
489155,-23,61,379,0
489166,-13,53,332,0
489177,3,52,284,0
489188,22,44,249,0
489199,32,20,218,0
489210,34,-6,177,0
489221,32,-22,124,0
489232,38,-10,107,0
489243,53,33,85,0
489254,64,48,75,0
489265,89,56,44,0
489276,108,42,29,0
489287,125,-10,22,0
489299,114,13,-1,0
489310,81,-8,-11,0
489321,75,-36,-15,0
489332,79,-38,-10,1
489343,68,-19,-6,0
489354,66,-37,3,0
489365,82,-48,3,0
489376,145,34,192,0
489387,99,50,249,0
489398,-13,71,194,0
489409,-54,-14,203,0
489420,-120,22,246,0
489431,-103,-86,347,0
489442,-83,-76,434,0
489453,-123,-12,498,0
489464,-99,43,491,0
489476,-44,62,478,0
489487,-12,48,464,0
489498,3,36,466,0
489509,-4,42,462,0
489520,-47,45,481,0
489531,-58,47,465,0
489542,-56,37,417,0
489553,-36,28,363,0
489564,-8,26,319,0
489575,17,29,293,0
489586,36,39,286,0
489597,48,65,287,0
489608,45,86,277,0
489619,27,95,261,0
489630,4,92,234,0
489641,-2,68,199,0
489653,-7,38,156,0
489664,-1,7,131,0
489675,6,24,105,0
489686,3,55,68,0
489697,17,35,22,0
489708,41,8,-25,0
489719,40,5,-54,0
489730,23,-4,-80,0
489742,-2,-14,-90,0
489753,-18,-19,-81,1
489764,-15,-28,-76,0
489775,78,-18,-80,0
489786,117,32,-61,0
489797,100,-110,85,0
489808,87,-129,141,0
489819,67,-60,207,0
489830,47,45,322,0
489841,19,58,511,0
489852,-3,60,511,0
489863,44,173,511,0
489874,52,95,511,0
489885,22,18,471,0
489896,-18,60,483,0
489907,-59,80,491,0
489918,-85,67,495,0
489929,-94,70,510,0
489941,-78,72,482,0
489952,-64,54,436,0
489963,-43,39,380,0
489974,-24,19,305,0
489985,-23,29,275,0
489996,-16,8,240,0
490007,-9,-4,229,0
490018,7,-43,177,0
490029,13,-19,134,0
490040,14,39,78,0
490051,26,61,76,0
490062,66,22,56,0
490073,109,41,22,0
490084,136,33,-37,0
490095,133,18,-48,0
490106,130,1,-50,0
490117,124,0,-52,0
490128,123,-10,-32,0
490139,120,-20,-14,0
490150,100,-16,-4,0
490161,84,-39,-2,1
490172,68,-55,-3,0
490183,97,-101,15,0
490194,192,-102,179,0
490205,153,65,275,0
490216,68,51,266,0
490227,-6,66,261,0
490238,-103,-65,370,0
490249,-154,-84,457,0
490260,-186,-44,476,0
490271,-136,23,456,0
490282,-99,46,445,0
490293,-68,41,463,0
490304,-28,44,466,0
490315,-14,55,475,0
490326,-26,65,484,0
490337,-43,70,493,0
490348,-58,70,476,0
490359,-58,56,417,0
490370,-48,42,372,0
490381,-9,19,304,0
490392,14,23,309,0
490403,26,58,314,0
490414,23,78,294,0
490425,9,94,271,0
490436,-12,90,247,0
490447,-22,66,218,0
490458,-28,47,174,0
490469,-29,20,160,0
490480,-22,-1,126,0
490491,-12,19,102,0
490502,-7,34,48,0
490513,4,44,6,0
490524,8,42,-27,0
490535,1,-7,-78,1
490547,-10,-20,-108,0
490558,-18,-20,-110,0
490569,-2,-11,-88,0
490580,30,1,-58,0
490591,140,18,-43,0
490602,186,58,-10,0
490613,160,-15,72,0
490624,146,-148,172,0
490635,103,-175,217,0
490646,65,-78,254,0
490657,10,46,393,0
490668,11,80,511,0
490679,90,111,511,0
490690,75,28,511,0
490701,37,47,509,0
490712,1,95,511,0
490723,-26,93,494,0
490734,-46,75,496,0
490745,-60,66,500,0
490756,-67,56,491,0
490767,-78,56,466,0
490778,-64,41,427,0
490790,-61,29,358,0
490801,-60,3,318,0
490812,-5,-106,258,0
490823,-24,-14,183,0
490834,-64,72,120,0
490845,-33,15,102,0
490856,23,2,70,0
490867,59,37,34,0
490878,87,32,10,0
490889,113,12,-24,0
490900,117,16,-63,0
490911,112,6,-82,0
490922,115,-6,-91,0
490933,122,-9,-65,1
490944,131,-8,-42,0
490955,127,-7,-28,0
490966,71,-21,-8,0
490977,53,-42,-5,0
490988,127,-118,113,0
490999,141,-27,238,0
491010,55,69,286,0
491021,-1,78,322,0
491032,-5,49,298,0
491043,-54,-28,348,0
491054,-120,-38,417,0
491065,-155,-38,448,0
491076,-135,-44,407,0
491087,-99,-10,367,0
491098,-67,-7,379,0
491109,-37,32,461,0
491120,-45,60,490,0
491131,-65,65,490,0
491142,-92,75,469,0
491153,-116,74,418,0
491164,-124,67,369,0
491175,-99,59,336,0
491186,-67,43,309,0
491197,-31,33,300,0
491208,-4,41,309,0
491219,15,72,318,0
491230,32,83,300,0
491241,32,77,257,0
491252,13,62,193,0
491263,9,-5,143,0
491274,11,-35,119,0
491285,12,-34,80,0
491296,15,-20,38,0
491307,23,-3,-10,0
491318,28,6,-53,0
491329,22,-5,-79,0
491340,10,-13,-99,0
491351,-5,-28,-119,0
491362,-14,-45,-125,1
491373,-7,-27,-91,0
491384,75,-15,-80,0
491395,165,31,-49,0
491406,162,20,48,0
491417,73,-180,240,0
491428,47,-60,261,0
491439,-5,125,435,0
491450,28,112,511,0
491461,75,105,511,0
491472,153,109,511,0
491483,133,2,493,0
491494,87,2,442,0
491505,37,62,465,0
491516,-7,55,444,1
491527,-38,60,457,0
491538,-58,71,481,0
491549,-75,66,500,0
491560,-83,67,494,0
491571,-90,37,385,0
491582,-70,5,329,0
491593,-52,-38,299,0
491604,-21,-87,276,0
491615,-19,-32,223,0
491626,-43,42,150,0
491637,-34,-4,113,0
491648,6,-25,94,0
491659,31,15,74,0
491670,55,41,51,0
491681,75,30,6,0
491692,88,23,-41,0
491703,86,1,-72,0
491714,82,-23,-91,0
491725,98,-34,-109,0
491736,114,-14,-79,0
491747,127,-2,-36,1
491758,123,0,-18,0
491769,118,-28,-3,0
491780,115,-48,-1,0
491791,194,-131,112,0
491802,250,-34,311,0
491813,134,116,328,0
491824,14,135,270,0
491835,-42,101,259,0
491846,-116,-29,302,0
491857,-143,-40,377,0
491868,-271,-71,392,0
491879,-199,-16,415,0
491890,-127,19,456,0
491901,-60,42,507,0
491912,-15,73,511,0
491923,-34,69,498,0
491934,-70,59,480,0
491945,-101,55,459,0
491956,-131,56,426,0
491967,-144,54,385,0
491978,-124,42,338,0
491989,-86,31,304,0
492000,-55,25,281,0
492011,-22,17,287,0
492022,23,56,267,0
492033,31,66,250,0
492044,35,52,218,0
492055,26,27,158,0
492066,33,13,152,0
492077,39,-5,119,0
492088,35,12,82,0
492099,33,17,38,0
492110,34,2,-2,0
492121,31,3,-35,0
492132,26,0,-60,0
492143,6,-16,-84,0
492154,-13,-25,-102,0
492165,-21,-30,-112,0
492176,86,7,-87,1
492187,103,7,-22,0
492198,80,-68,56,0
492209,68,-119,118,0
492220,64,-84,157,0
492231,37,10,239,0
492242,37,88,405,0
492253,41,72,511,0
492264,39,99,511,0
492275,77,124,511,0
492286,59,21,502,0
492297,19,3,457,0
492308,-25,63,486,0
492319,-58,58,473,0
492330,-110,62,496,0
492341,-109,66,494,0
492352,-105,63,464,0
492363,-110,64,423,0
492374,-90,22,365,0
492385,-64,-3,330,0
492396,-41,-22,283,0
492407,-45,24,232,0
492418,-56,31,193,0
492429,-43,-23,135,0
492440,-9,-24,91,0
492451,21,4,61,0
492462,38,47,53,0
492473,62,54,32,0
492484,98,40,-35,0
492495,108,6,-61,0
492506,114,-18,-79,0
492517,125,-28,-86,0
492528,128,-23,-77,0
492539,132,-20,-63,0
492550,133,-32,-35,0
492561,128,-28,-3,0
492572,112,-29,20,1
492583,118,-23,2,0
492594,234,-151,185,0
492605,267,33,359,0
492616,136,108,414,0
492627,73,107,292,0
492638,-113,-51,305,0
492649,-173,-56,399,0
492660,-264,-56,437,0
492671,-244,-21,398,0
492682,-189,13,382,0
492693,-125,31,419,0
492704,-66,65,469,0
492715,-30,77,511,0
492727,-29,82,511,0
492738,-49,62,511,0
492749,-63,29,450,0
492760,-79,12,387,0
492771,-64,10,297,0
492782,-39,10,264,0
492793,-19,17,255,0
492804,-8,47,263,0
492815,-2,87,276,0
492826,10,93,273,0
492837,0,95,247,0
492849,-11,91,232,0
492860,-11,49,194,0
492871,-6,23,187,0
492882,-2,6,172,0
492893,2,23,127,0
492904,15,35,16,0
492915,23,19,-32,0
492926,34,13,-64,0
492937,30,3,-92,0
492948,16,1,-111,0
492959,3,-5,-115,1
492970,9,2,-92,0
492981,51,7,-79,0
492992,210,58,-80,0
493003,237,129,-27,0
493014,172,-52,91,0
493025,138,-283,161,0
493036,59,-264,197,0
493047,16,-44,304,0
493058,-64,110,511,0
493069,55,212,511,0
493080,77,76,503,0
493091,44,4,427,0
493102,-13,11,437,0
493113,-70,61,462,0
493124,-108,71,491,0
493135,-124,67,493,0
493146,-111,91,511,0
493157,-84,83,507,0
493168,-59,70,470,0
493179,-31,65,425,0
493190,-8,48,358,0
493201,-1,37,314,0
493212,-15,26,247,0
493223,-22,7,215,0
493234,-25,-6,185,0
493245,-16,-16,135,0
493256,-1,23,106,0
493267,7,66,81,0
493278,32,52,28,0
493289,78,-10,10,0
493300,125,-33,-34,0
493311,129,17,-62,0
493322,126,-7,-60,0
493333,124,-39,-64,0
493344,118,-22,-40,0
493355,114,-6,-8,0
493366,125,-29,14,1
493377,115,-29,-5,0
493388,63,3,-32,0
493399,87,-81,-24,0
493410,182,-135,157,0
493421,173,31,305,0
493433,57,170,375,0
493444,45,100,364,0
493455,-42,56,373,0
493466,-64,-32,385,0
493477,-106,-84,367,0
493488,-124,-75,349,0
493499,-118,7,339,0
493510,-89,23,371,0
493521,-39,43,421,0
493532,-22,73,484,0
493543,-44,85,511,0
493554,-75,80,511,0
493565,-110,73,485,0
493576,-136,62,423,0
493587,-136,48,358,0
493598,-122,35,305,0
493609,-101,25,270,0
493620,-69,31,266,0
493631,-27,42,258,0
493642,15,57,252,0
493653,19,90,244,0
493664,8,67,224,0
493675,8,47,211,0
493686,2,38,199,0
493697,0,22,167,0
493708,4,8,113,0
493719,7,5,69,0
493730,10,15,31,0
493741,17,25,-4,0
493752,12,19,-30,0
493763,-9,9,-49,0
493774,-36,1,-57,0
493785,-39,-16,-70,0
493796,-10,-31,-76,0
493807,131,27,-59,1
493818,138,-8,-3,0
493829,99,-112,76,0
493840,65,-155,131,0
493851,38,-107,184,0
493862,5,-2,278,0
493873,-3,49,448,0
493884,12,68,511,0
493895,32,132,511,0
493906,68,159,511,0
493917,62,66,511,0
493928,22,51,464,0
493939,-19,63,435,0
493950,-80,57,430,0
493961,-105,63,459,0
493972,-119,71,475,0
493983,-119,81,454,0
493994,-116,79,418,0
494005,-120,85,378,0
494017,-95,54,342,0
494028,-82,47,294,0
494039,-37,-10,241,0
494050,12,-61,192,0
494061,-21,33,101,0
494072,-66,49,57,0
494083,-68,-14,39,0
494094,-11,-17,39,0
494105,5,16,36,0
494116,27,19,30,0
494127,45,9,22,0
494138,61,-2,15,0
494149,68,-19,6,0
494160,66,-19,-3,0
494171,72,-21,10,0
494182,88,-39,29,1
494193,112,-21,26,0
494204,110,28,20,0
494215,81,9,25,0
494226,43,-5,-10,0
494237,23,-32,-3,0
494248,349,-259,378,0
494259,136,467,511,0
494270,196,-20,511,0
494281,135,83,313,0
494292,-52,-27,237,0
494303,-100,5,288,0
494314,-151,37,381,0
494325,-192,-25,424,0
494336,-189,23,385,0
494347,-132,12,355,0
494358,-41,45,413,0
494369,47,69,471,0
494380,107,69,459,0
494391,87,21,362,0
494402,27,-2,318,0
494414,-24,-4,300,0
494425,-68,3,300,0
494436,-113,25,296,0
494447,-139,34,281,0
494458,-150,36,250,0
494469,-151,31,221,0
494480,-134,32,186,0
494491,-118,41,156,0
494502,-94,36,135,0
494513,-77,45,114,0
494524,-41,36,101,0
494535,28,49,172,0
494546,39,30,177,0
494557,59,7,180,0
494568,65,1,156,0
494579,68,0,121,0
494590,75,-13,88,0
494601,67,-18,42,0
494613,43,-15,-2,0
494624,45,-28,-48,1
494635,59,-26,-66,0
494646,49,-37,-38,0
494657,15,-71,45,0
494668,-49,-52,187,0
494679,-73,14,246,0
494690,-69,72,341,0
494701,-56,80,480,0
494712,-27,75,511,0
494723,-20,80,511,0
494734,16,98,511,0
494745,58,38,511,0
494756,52,21,457,0
494767,30,36,437,0
494778,6,43,425,0
494789,-21,50,412,0
494800,-44,50,397,0
494811,-64,40,373,0
494822,-81,12,299,0
494833,-84,3,252,0
494844,-90,-7,221,0
494855,-96,-18,186,0
494866,-99,-22,161,0
494877,-90,-14,149,0
494888,-67,-9,143,0
494899,-35,-15,132,0
494910,3,-23,110,0
494921,33,-16,77,0
494932,57,5,46,0
494943,76,4,16,0
494954,82,1,-16,0
494965,83,-2,-52,0
494976,73,-40,-52,0
494987,101,-56,-49,0
494998,93,30,-70,1
495009,48,97,-44,0
495021,55,-8,10,0
495032,65,-9,30,0
495043,152,-80,29,0
495054,405,-245,367,0
495065,409,101,511,0
495076,113,279,511,0
495087,293,8,511,0
495098,94,-16,266,0
495109,-98,-34,345,0
495120,-257,-69,345,0
495131,-272,-52,386,0
495142,-138,24,464,0
495153,-25,42,474,0
495164,95,24,484,0
495175,149,62,471,0
495186,154,58,455,0
495197,129,31,416,0
495208,92,11,365,0
495219,48,5,313,0
495230,16,-14,251,0
495241,-21,-13,218,0
495252,-48,-11,191,0
495263,-69,6,172,0
495274,-66,14,174,0
495285,-48,20,171,0
495296,-30,19,168,0
495307,-5,11,163,0
495318,19,6,156,0
495329,45,14,152,0
495340,59,15,156,0
495351,65,6,157,0
495362,70,6,153,0
495373,68,9,157,0
495384,61,9,156,0
495395,55,13,154,0
495406,52,19,165,0
495417,50,25,208,0
495428,47,28,227,0
495439,47,23,247,0
495450,35,32,253,0
495461,24,22,255,0
495472,14,18,252,0
495483,2,12,245,0
495494,-4,9,236,0
495505,-6,9,231,0
495516,0,11,235,0
495527,5,15,237,0
495538,15,22,238,0
495549,21,24,234,0
495560,35,21,221,0
495571,42,21,223,0
495582,48,16,227,0
495593,47,15,227,0
495604,42,18,227,0
495615,39,16,228,0
495626,36,23,229,0
495637,33,23,236,0
495648,26,28,238,0
495659,19,24,241,0
495670,14,23,243,0
495681,7,20,243,0
495692,2,19,240,0
495703,2,17,232,0
495714,6,18,222,0
495725,10,22,221,0
495736,14,23,224,0
495747,16,21,224,0
495758,19,22,223,0
495769,23,22,223,0
495780,22,24,223,0
495791,20,26,222,0
495802,18,24,225,0
495813,16,23,229,0
495824,18,24,229,0
495835,20,21,231,0
495846,19,18,232,0
495857,22,14,237,0
495868,31,18,234,0
495879,31,21,227,0
495890,32,18,225,0
495901,32,18,223,0
495912,28,18,220,0
495923,26,17,221,0
495934,25,18,223,0
495945,22,18,225,0
495956,17,14,226,0
495967,14,10,232,0
495978,11,13,233,0
495989,10,18,235,0
496000,10,21,235,0
496011,11,21,233,0
496022,9,18,231,0
496033,10,17,230,0
496044,9,23,226,0
496056,6,23,229,0
496067,4,20,232,0
496078,3,18,234,0
496089,6,18,234,0
496100,6,19,234,0
496111,8,18,233,0
496122,8,19,230,0
496133,11,19,231,0
496144,13,23,231,0
496155,15,19,230,0
496166,18,19,231,0
496178,21,17,232,0
496189,20,16,231,0
496200,20,12,230,0
496211,19,14,230,0
496222,14,16,227,0
496233,12,17,224,0
496244,13,19,223,0
496255,11,21,225,0
496266,9,22,224,0
496277,7,20,230,0
496288,6,22,233,0
496299,3,21,234,0
496310,0,22,233,0
496321,-4,21,231,0
496333,-2,14,228,0
496344,-7,16,227,0
496355,-13,15,228,0
496366,-14,15,232,0
496377,-14,18,238,0
496388,-11,21,241,0
496399,-9,24,243,0
496410,-8,25,238,0
496421,-6,25,236,0
496432,-6,18,232,0
496443,-5,14,232,0
496454,-1,11,229,0
496465,1,15,230,0
496476,4,19,234,0
496487,9,20,235,0
496498,9,20,230,0
496509,4,22,228,0
496520,2,19,227,0
496531,-2,14,225,0
496542,-1,17,229,0
496553,1,23,231,0
496564,1,25,234,0
496575,0,30,235,0
496586,1,36,239,0
496597,-5,37,236,0
496608,-10,28,234,0
496619,-12,24,229,0
496631,-17,24,229,0
496642,-20,24,229,0
496653,-21,25,229,0
496664,-20,29,230,0
496675,-16,33,231,0
496686,-15,36,231,0
496697,-17,38,231,0
496708,-19,35,230,0
496719,-17,36,231,0
496730,-17,41,232,0
496741,-20,37,234,0
496753,-17,34,233,0
496764,-17,33,231,0
496775,-16,32,231,0
496786,-14,32,230,0
496797,-10,30,233,0
496808,-10,32,231,0
496819,-12,39,231,0
496830,-13,44,237,0
496841,-12,46,241,0
496852,-12,39,237,0
496863,-12,33,223,0
496874,-11,37,229,0
496885,-10,33,229,0
496896,-7,32,223,0
496907,-8,37,226,0
496918,-10,40,228,0
496929,-8,35,229,0
496940,-10,36,228,0
496951,-11,37,231,0
496962,-13,38,232,0
496973,-14,35,227,0
496984,-14,37,229,0
496995,-13,42,230,0
497006,-12,45,230,0
497017,-18,44,231,0
497028,-19,41,233,0
497039,-21,40,233,0
497050,-17,36,235,0
497061,-18,39,230,0
497072,-16,37,228,0
497083,-13,40,227,0
497094,-10,37,224,0
497105,-8,35,221,0
497116,-9,36,225,0
497127,-11,39,231,0
497138,-12,42,235,0
497149,-13,42,232,0
497160,-15,42,231,0
497171,-20,39,230,0
497182,-20,39,230,0
497193,-18,39,227,0
497204,-20,40,226,0
497215,-22,46,237,0
497226,-20,41,234,0
497237,-19,41,233,0
497248,-20,44,235,0
497259,-19,39,229,0
497270,-19,39,230,0
497281,-18,40,231,0
497292,-19,41,234,0
497303,-20,43,237,0
497314,-24,40,232,0
497325,-25,39,232,0
497336,-22,40,230,0
497347,-21,45,236,0
497358,-21,43,234,0
497369,-19,43,231,0
497380,-16,40,233,0
497391,-12,39,235,0
497402,-10,36,230,0
497414,-8,35,226,0
497425,-5,35,224,0
497436,-9,36,221,0
497447,-8,41,228,0
497458,-12,37,233,0
497469,-15,41,234,0
497480,-17,39,234,0
497491,-17,41,236,0
497502,-14,40,235,0
497513,-10,43,237,0
497524,-7,40,232,0
497535,-6,42,235,0
497546,-9,36,227,0
497557,-10,37,228,0
497568,-8,35,230,0
497579,-6,35,227,0
497590,-9,39,232,0
497601,-8,36,229,0
497612,-10,39,232,0
497623,-11,37,231,0
497634,-15,40,233,0
497645,-16,41,234,0
497656,-13,38,232,0
497667,-11,37,229,0
497678,-10,39,230,0
497689,-9,39,230,0
497700,-6,39,232,0
497711,-7,39,230,0
497722,-10,38,229,0
497733,-13,37,229,0
497745,-16,34,226,0
497756,-16,35,227,0
497767,-13,36,227,0
497778,-11,37,224,0
497789,-9,39,229,0
497800,-8,39,230,0
497811,-8,42,234,0
497822,-8,41,233,0
497833,-7,37,231,0
497844,-10,36,227,0
497855,-12,35,226,0
497866,-13,35,225,0
497877,-12,34,229,0
497888,-13,36,230,0
497899,-15,40,232,0
497910,-13,36,234,0
497921,-16,37,234,0
497932,-16,39,232,0
497943,-17,41,234,0
497954,-16,38,232,0
497965,-18,36,230,0
497976,-20,36,229,0
497987,-20,37,233,0
