timestamp,accX,accY,accZ,step
549586,-18,135,187,0
549597,-20,140,189,0
549608,-20,139,189,0
549618,-14,138,190,0
549629,-12,140,188,0
549640,-11,139,189,0
549651,-10,140,188,0
549662,-6,141,191,0
549672,-5,144,192,0
549683,-8,142,191,0
549693,-7,144,192,0
549703,-7,142,192,0
549714,-8,139,192,0
549725,-13,134,190,0
549736,-16,134,188,0
549746,-17,140,189,0
549757,-20,139,189,0
549768,-19,140,190,0
549779,-18,139,189,0
549790,-17,139,189,0
549801,-17,139,192,0
549812,-16,140,191,0
549823,-14,143,191,0
549834,-14,141,191,0
549845,-16,141,191,0
549856,-14,142,191,0
549867,-11,141,193,0
549878,-10,143,195,0
549889,-10,140,196,0
549900,-7,141,196,0
549911,-6,141,194,0
549922,-6,141,192,0
549933,-8,141,191,0
549944,-6,139,190,0
549955,-7,138,192,0
549966,-7,139,194,0
549977,-5,138,191,0
549988,-3,137,193,0
549999,-1,139,190,0
550010,-1,136,189,0
550021,0,139,190,0
550032,3,140,188,0
550043,5,138,188,0
550054,5,142,187,0
550065,4,143,189,0
550076,2,143,190,0
550087,0,142,189,0
550098,-4,141,190,0
550109,-6,139,191,0
550120,-10,141,190,0
550131,-13,141,187,0
550142,-15,142,188,0
550153,-18,143,188,0
550164,-18,145,186,0
550175,-18,143,188,0
550187,-16,143,189,0
550197,-14,142,190,0
550208,-10,142,191,0
550219,-8,143,189,0
550230,-7,142,188,0
550241,-7,142,188,0
550252,-8,142,188,0
550263,-8,142,190,0
550274,-6,142,192,0
550285,-5,140,191,0
550296,-6,140,191,0
550307,-5,142,190,0
550318,-6,142,189,0
550329,-4,143,189,0
550341,-3,144,193,0
550352,-2,146,191,0
550363,-1,143,192,0
550374,0,144,191,0
550385,-2,142,191,0
550396,-5,140,189,0
550407,-6,139,189,0
550418,-8,138,187,0
550429,-8,141,190,0
550440,-9,142,190,0
550451,-9,142,191,0
550462,-9,142,190,0
550473,-10,145,190,0
550484,-9,143,190,0
550495,-9,140,192,0
550506,-11,140,192,0
550517,-11,141,192,0
550528,-12,141,191,0
550539,-12,139,191,0
550550,-12,139,190,0
550561,-13,140,190,0
550572,-13,140,191,0
550583,-14,139,191,0
550594,-15,138,190,0
550605,-15,140,191,0
550616,-13,137,192,0
550628,-14,137,191,0
550639,-15,138,191,0
550650,-16,140,191,0
550661,-15,142,191,0
550672,-14,142,191,0
550683,-12,141,191,0
550694,-11,141,192,0
550705,-11,140,192,0
550716,-10,139,192,0
550727,-11,138,190,0
550738,-12,139,192,0
550749,-12,138,191,0
550760,-14,141,191,0
550771,-14,139,190,0
550782,-14,139,191,0
550793,-15,138,189,0
550804,-15,138,192,0
550816,-16,137,190,0
550826,-19,138,192,0
550837,-18,137,192,0
550848,-19,137,192,0
550859,-20,136,191,0
550870,-19,138,190,0
550881,-20,139,190,0
550892,-19,139,191,0
550903,-20,139,192,0
550914,-19,138,192,0
550925,-18,136,192,0
550936,-20,133,194,0
550947,-17,131,194,0
550958,-17,133,192,0
550969,-18,135,193,0
550980,-12,133,192,0
550991,-12,132,195,0
551002,-11,132,194,0
551013,-11,132,194,0
551025,-13,133,196,0
551036,-15,133,194,0
551047,-17,133,193,0
551058,-22,132,190,0
551069,-24,132,188,0
551080,-29,131,188,0
551091,-32,131,189,0
551102,-32,133,191,0
551113,-32,133,193,0
551124,-31,135,191,0
551135,-30,133,191,0
551146,-31,135,190,0
551157,-31,138,190,0
551168,-29,141,187,0
551179,-32,147,187,0
551190,-32,150,186,0
551201,-33,152,186,0
551212,-30,151,188,0
551223,-29,149,189,0
551234,-28,146,190,0
551245,-27,143,189,0
551256,-28,138,187,0
551267,-30,138,184,0
551278,-28,139,184,0
551289,-27,139,186,0
551300,-31,146,184,0
551311,-34,147,185,0
551322,-30,145,185,0
551333,-28,142,189,0
551344,-28,139,191,0
551355,-33,139,192,0
551366,-36,137,190,0
551377,-39,134,186,0
551388,-44,133,185,0
551399,-50,136,183,0
551411,-50,137,180,0
551421,-50,138,181,0
551432,-52,138,182,0
551443,-54,139,184,0
551454,-50,135,186,0
551465,-48,134,185,0
551476,-46,132,186,0
551487,-46,132,186,0
551498,-46,131,187,0
551509,-46,131,187,0
551520,-44,129,188,0
551531,-45,131,182,0
551542,-48,131,181,0
551553,-52,133,180,0
551564,-58,132,181,0
551575,-60,131,182,0
551586,-61,128,181,0
551597,-63,129,181,0
551608,-61,129,178,0
551619,-58,129,177,0
551630,-52,129,175,0
551641,-50,132,176,0
551652,-50,131,177,0
551663,-55,131,176,0
551674,-59,129,177,0
551685,-59,128,175,0
551696,-55,133,173,0
551707,-50,137,172,0
551718,-45,140,177,0
551729,-40,143,178,0
551740,-38,141,172,0
551751,-40,137,170,0
551762,-42,142,166,0
551773,-41,145,177,0
551784,-38,154,183,0
551795,-50,171,194,0
551806,-56,172,199,0
551817,-65,173,206,0
551828,-70,173,206,0
551839,-71,172,207,0
551850,-75,170,209,0
551861,-69,161,203,0
551872,-64,163,198,0
551883,-69,175,201,0
551894,-76,185,195,0
551905,-78,180,193,0
551916,-96,164,198,1
551927,-118,170,209,0
551938,-140,194,202,0
551949,-103,198,195,0
551961,21,221,298,0
551972,-37,198,261,0
551983,-63,161,247,0
551994,-68,166,221,0
552005,-55,140,203,0
552016,-15,108,210,0
552027,4,128,199,0
552038,8,121,176,0
552049,3,127,162,0
552060,5,144,156,0
552071,9,169,153,0
552082,0,196,182,0
552093,-2,195,203,0
552104,7,174,212,0
552115,22,150,195,0
552126,26,130,192,0
552137,25,126,197,0
552148,25,124,197,0
552159,20,118,185,0
552170,9,112,171,0
552181,-5,106,155,0
552192,-19,111,148,0
552203,-24,103,133,0
552214,-36,100,128,0
552225,-49,98,129,0
552236,-51,96,134,0
552247,-53,86,138,0
552258,-54,77,144,0
552269,-48,70,148,0
552280,-27,71,144,0
552291,-21,74,131,0
552302,-35,87,144,0
552313,-49,101,183,0
552324,-43,111,224,0
552335,-31,121,252,0
552346,-24,129,268,0
552357,-23,149,293,0
552368,-36,151,309,0
552379,-41,137,299,0
552390,-46,123,272,0
552401,-55,99,258,0
552412,-20,140,271,0
552423,56,272,321,0
552434,39,206,289,1
552445,75,134,200,0
552456,57,117,180,0
552467,57,128,174,0
552478,64,144,193,0
552489,65,148,206,0
552500,45,160,218,0
552511,39,129,197,0
552522,39,115,185,0
552533,30,114,187,0
552544,24,106,186,0
552555,4,118,192,0
552566,-9,121,183,0
552577,-8,104,154,0
552588,1,98,118,0
552599,5,105,116,0
552610,5,107,101,0
552621,-2,115,108,0
552632,-1,128,119,0
552643,-1,136,125,0
552654,5,131,126,0
552665,5,134,130,0
552676,-4,132,141,0
552687,-8,130,151,0
552698,-6,136,158,0
552709,-11,140,165,0
552720,-13,145,184,0
552731,-15,140,197,0
552742,-23,134,203,0
552753,-32,131,212,0
552764,-54,126,219,0
552775,-129,137,231,0
552786,-166,151,220,0
552797,-160,157,199,0
552808,-126,180,232,0
552819,-80,179,250,0
552830,-39,155,219,1
552841,1,134,204,0
552852,41,108,170,0
552863,33,148,175,0
552874,41,162,182,0
552885,53,184,240,0
552896,46,206,286,0
552907,30,222,292,0
552918,6,217,290,0
552929,-21,221,303,0
552940,-59,196,300,0
552951,-42,166,261,0
552962,-49,173,247,0
552973,-42,149,207,0
552984,-41,136,185,0
552995,-28,121,186,0
553006,0,111,168,0
553017,32,98,138,0
553028,46,61,118,0
553039,38,43,117,0
553050,30,57,151,0
553061,18,43,149,0
553072,5,51,175,0
553083,-11,52,180,0
553094,-38,56,170,0
553105,-64,68,166,0
553116,-78,68,151,0
553127,-63,67,141,0
553138,-33,67,123,0
553149,8,59,94,0
553160,46,76,90,0
553171,73,84,97,0
553182,101,136,193,0
553193,106,176,259,0
553204,35,264,318,1
553215,15,173,281,0
553226,2,151,206,0
553237,-10,190,232,0
553248,5,173,218,0
553259,3,182,209,0
553270,-18,166,199,0
553281,-34,170,229,0
553292,-12,149,228,0
553303,-2,129,235,0
553314,-8,127,242,0
553325,-28,128,242,0
553336,-52,140,252,0
553347,-67,136,221,0
553358,-72,135,201,0
553369,-65,109,164,0
553380,-64,106,144,0
553391,-60,109,118,0
553402,-65,116,109,0
553413,-62,114,105,0
553424,-60,129,118,0
553435,-61,152,145,0
553446,-65,171,165,0
553457,-62,144,158,0
553468,-58,154,181,0
553479,-47,153,183,0
553490,-50,154,184,0
553501,-63,159,182,0
553512,-83,162,169,0
553523,-112,160,158,0
553534,-130,154,145,0
553545,-136,140,134,0
553556,-116,131,120,0
553567,-72,116,107,0
553578,-8,102,92,0
553589,52,81,78,0
553600,100,64,75,0
553611,178,55,101,0
553622,208,63,112,1
553633,229,52,164,0
553644,151,107,289,0
553655,45,126,224,0
553666,-11,209,227,0
553677,-40,274,309,0
553688,-60,323,390,0
553699,-81,346,429,0
553710,-88,310,405,0
553721,-78,253,369,0
553732,-75,247,343,0
553743,-95,216,307,0
553754,-101,193,281,0
553765,-89,189,279,0
553776,-76,146,221,0
553788,-60,165,225,0
553799,-46,159,206,0
553810,-44,147,174,0
553821,-36,117,138,0
553833,-17,102,129,0
553844,-7,106,122,0
553855,-9,106,128,0
553866,-7,105,136,0
553877,15,79,108,0
553888,14,74,101,0
553899,13,60,74,0
553910,16,53,61,0
553921,43,61,55,0
553932,38,79,88,0
553943,47,88,90,0
553954,38,111,113,0
553965,59,173,126,0
553976,44,191,132,0
553987,16,169,139,0
553998,11,218,197,0
554009,-1,189,189,0
554020,-2,222,206,0
554031,-31,221,197,0
554042,-32,175,182,0
554053,-30,159,188,1
554064,-59,176,200,0
554075,-49,158,197,0
554086,1,153,248,0
554097,0,171,293,0
554108,-19,173,296,0
554119,-38,175,291,0
554130,-28,163,284,0
554141,-43,140,262,0
554152,-68,155,254,0
554163,-93,157,239,0
554174,-114,166,229,0
554185,-127,177,219,0
554196,-120,201,196,0
554207,-103,182,148,0
554218,-104,228,165,0
554229,-77,231,171,0
554240,-61,263,218,0
554251,-20,222,228,0
554262,-10,206,232,0
554273,-4,171,194,0
554284,-2,156,166,0
554295,-11,152,154,0
554306,-8,136,135,0
554317,-13,130,122,0
554328,-13,104,114,0
554339,-28,80,108,0
554350,-23,66,103,0
554361,-5,48,88,0
554372,7,47,68,0
554383,23,44,49,0
554394,33,39,38,1
554405,101,49,19,0
554416,170,149,107,0
554427,138,174,197,0
554439,106,119,175,0
554450,34,129,188,0
554461,-33,117,180,0
554472,-91,133,226,0
554483,-105,210,313,0
554494,-113,246,352,0
554505,-104,244,366,0
554516,-85,260,376,0
554527,-78,284,385,0
554538,-79,311,383,0
554549,-67,287,352,0
554560,-58,238,321,0
554571,-51,206,290,0
554582,-56,195,264,0
554593,-42,162,222,0
554604,-26,137,185,0
554615,-39,149,188,0
554626,-24,130,165,0
554637,-15,127,163,0
554648,-7,116,153,0
554659,-1,112,159,0
554670,11,94,152,0
554682,35,71,141,0
554693,40,67,130,0
554704,39,58,121,0
554715,47,47,68,0
554726,37,35,34,0
554737,40,31,21,0
554748,50,35,32,0
554759,58,37,52,0
554770,92,83,59,0
554782,126,171,104,0
554792,77,116,98,1
554803,28,170,180,0
554814,-22,165,194,0
554825,-24,213,197,0
554836,-57,196,232,0
554847,-39,229,246,0
554858,7,198,256,0
554869,0,165,228,0
554880,-7,116,241,0
554891,11,141,266,0
554902,16,155,282,0
554913,-2,171,289,0
554924,-29,175,275,0
554935,-55,170,261,0
554946,-77,171,247,0
554957,-97,163,233,0
554968,-97,151,215,0
554979,-93,148,201,0
554990,-75,145,185,0
555001,-63,163,180,0
555012,-50,190,191,0
555023,-55,189,189,0
555034,-64,190,206,0
555045,-33,173,216,0
555056,-29,155,200,0
555067,-36,136,189,0
555078,-39,115,171,0
555089,-50,97,152,0
555100,-55,88,137,0
555111,-56,68,121,0
555122,-54,35,100,0
555133,-43,-2,69,0
555144,-31,-5,55,0
555155,-6,2,34,0
555166,42,40,10,1
555177,56,88,53,0
555188,68,119,135,0
555199,66,113,144,0
555210,17,139,189,0
555221,19,155,213,0
555232,27,171,282,0
555243,43,209,343,0
555254,30,232,375,0
555265,1,247,400,0
555276,-26,272,434,0
555287,-45,305,420,0
555298,-47,262,358,0
555309,-55,221,307,0
555320,-60,206,283,0
555331,-69,185,254,0
555342,-75,164,229,0
555353,-77,147,218,0
555364,-70,135,213,0
555375,-66,122,198,0
555386,-65,102,224,0
555397,-42,107,233,0
555408,-22,83,226,0
555419,2,102,208,0
555430,50,78,116,0
555441,38,54,70,0
555452,33,62,71,0
555463,50,74,62,0
555474,60,69,51,0
555485,55,74,63,0
555496,61,46,44,0
555507,43,63,56,0
555518,37,89,69,0
555529,45,118,90,0
555540,-4,123,184,1
555551,-32,142,193,0
555562,-60,168,186,0
555573,-84,200,216,0
555584,-69,132,160,0
555595,-25,141,204,0
555606,12,135,192,0
555617,-10,177,239,0
555628,9,165,253,0
555639,29,156,275,0
555650,55,144,295,0
555661,62,147,300,0
555672,36,128,279,0
555683,-2,124,267,0
555694,-37,139,268,0
555705,-60,139,253,0
555716,-76,142,208,0
555727,-69,146,181,0
555738,-59,156,169,0
555749,-57,172,165,0
555760,-58,190,187,0
555771,-62,194,202,0
555782,-58,187,215,0
555793,-44,167,219,0
555804,-29,165,215,0
555815,-10,150,193,0
555826,-18,141,167,0
555837,-21,117,144,0
555848,-46,84,110,0
555859,-50,71,97,0
555870,-59,33,67,0
555881,-24,21,35,0
555892,-5,24,25,0
555903,19,54,51,0
555914,46,85,120,1
555925,55,117,156,0
555936,56,133,169,0
555947,60,142,209,0
555958,60,140,195,0
555969,59,133,198,0
555980,39,171,267,0
555991,14,193,321,0
556002,-24,223,380,0
556013,-45,225,397,0
556024,-68,243,423,0
556035,-65,238,403,0
556046,-27,175,315,0
556057,-42,166,294,0
556068,-41,140,259,0
556079,-57,140,254,0
556090,-60,122,248,0
556101,-57,120,236,0
556112,-50,109,213,0
556123,-51,107,198,0
556134,-37,97,163,0
556145,-41,101,175,0
556156,-21,100,163,0
556167,-9,110,166,0
556178,24,66,131,0
556189,23,80,132,0
556200,35,84,111,0
556211,32,44,56,0
556222,23,42,36,0
556233,44,20,18,0
556244,77,28,51,0
556255,102,63,86,1
556266,108,80,112,0
556277,89,84,127,0
556288,32,132,217,0
556299,10,172,261,0
556310,-15,180,227,0
556321,-46,162,217,0
556332,-52,234,242,0
556343,-57,241,250,0
556354,-25,209,237,0
556365,-29,173,247,0
556376,-25,176,271,0
556387,22,169,279,0
556398,47,156,280,0
556409,43,146,273,0
556420,22,146,262,0
556431,-3,154,248,0
556442,-24,161,236,0
556453,-37,168,237,0
556464,-48,167,214,0
556475,-53,167,199,0
556486,-72,168,186,0
556497,-68,172,178,0
556508,-66,169,177,0
556519,-67,151,173,0
556530,-85,142,185,0
556541,-68,106,166,0
556552,-71,132,184,0
556563,-63,128,166,0
556574,-78,120,143,0
556585,-72,118,141,0
556596,-63,110,132,0
556607,-65,99,119,0
556618,-56,95,113,0
556629,-52,72,94,0
556640,-50,52,67,0
556651,-31,65,59,0
556662,7,61,41,1
556673,82,69,28,0
556684,186,106,77,0
556695,191,138,179,0
556706,104,129,218,0
556718,45,152,217,0
556729,2,193,285,0
556740,-9,206,327,0
556751,-24,239,350,0
556762,-46,230,356,0
556773,-70,206,344,0
556784,-98,218,355,0
556795,-112,215,330,0
556806,-118,202,316,0
556817,-130,190,301,0
556828,-127,163,271,0
556839,-114,148,257,0
556850,-106,136,242,0
556861,-55,126,227,0
556872,-36,112,225,0
556883,-18,98,223,0
556894,-20,91,213,0
556905,-34,93,201,0
556916,-36,88,187,0
556927,-33,85,160,0
556938,-29,85,147,0
556949,-27,90,149,0
556960,-17,67,130,0
556971,-20,77,138,0
556982,5,40,100,0
556993,15,46,98,0
557004,19,63,110,0
557015,36,53,100,0
557026,27,47,114,0
557037,47,42,98,0
557048,55,31,74,0
557059,59,32,84,0
557070,85,107,114,1
557081,56,197,162,0
557092,71,243,142,0
557103,56,278,230,0
557114,16,210,251,0
557125,-9,243,342,0
557136,14,184,247,0
557147,-28,201,264,0
557158,-29,183,218,0
557169,-88,149,221,0
557180,-118,224,266,0
557191,-48,203,277,0
557202,-25,192,282,0
557213,-20,184,277,0
557224,-23,184,261,0
557236,-37,172,251,0
557246,-60,173,238,0
557257,-79,166,230,0
557268,-84,158,218,0
557279,-80,140,199,0
557290,-76,127,178,0
557301,-62,117,156,0
557312,-50,112,142,0
557323,-35,111,142,0
557334,-31,127,147,0
557345,-29,130,140,0
557356,-18,134,133,0
557367,-14,128,116,0
557378,-24,138,125,0
557389,-29,141,130,0
557400,-42,154,147,0
557411,-41,132,144,0
557422,-55,119,157,0
557433,-59,108,157,0
557444,-67,109,159,0
557455,-75,97,142,1
557466,-75,95,134,0
557477,-72,107,115,0
557488,-48,114,99,0
557499,18,144,79,0
557510,86,202,7,0
557521,172,160,107,0
557532,140,83,247,0
557543,39,185,310,0
557555,-3,239,346,0
557565,-1,261,379,0
557576,0,278,408,0
557587,-20,256,354,0
557598,-40,224,297,0
557609,-57,196,269,0
557620,-66,198,256,0
557631,-72,184,233,0
557642,-85,168,219,0
557653,-87,151,201,0
557664,-82,159,202,0
557675,-58,140,182,0
557686,-40,141,176,0
557697,-11,146,177,0
557708,-1,147,171,0
557719,14,136,154,0
557730,11,142,147,0
557741,19,136,137,0
557752,16,136,140,0
557763,15,126,133,0
557774,19,120,135,0
557785,13,124,150,0
557796,15,109,164,0
557807,13,109,176,0
557818,12,108,177,0
557829,5,121,177,0
557840,-8,130,190,0
557851,-14,144,179,0
557862,-16,149,142,0
557873,-6,129,121,0
557884,-12,148,140,0
557895,-6,158,139,0
557906,-3,152,141,0
557917,-6,154,153,0
557928,2,150,152,0
557939,13,149,150,0
557950,14,143,161,0
557961,17,146,179,1
557972,18,150,191,0
557983,22,147,191,0
557994,19,145,207,0
558005,24,127,190,0
558016,30,165,188,0
558027,23,201,188,0
558038,23,195,191,0
558049,23,177,196,0
558060,13,155,196,0
558071,-3,153,199,0
558082,-19,151,192,0
558093,-34,159,189,0
558104,-37,174,188,0
558115,-33,179,179,0
558126,-23,178,176,0
558137,-11,174,173,0
558148,0,170,168,0
558159,4,168,162,0
558170,6,167,171,0
558181,10,169,174,0
558192,9,172,171,0
558203,3,173,168,0
558214,-1,176,168,0
558225,-6,179,170,0
558236,-8,186,174,0
558247,-9,191,176,0
558258,-7,194,172,0
558269,2,192,164,0
558280,10,192,158,0
558291,19,192,155,0
558302,22,191,157,0
558313,24,193,159,0
558324,23,194,163,0
558335,18,193,162,0
558346,12,191,160,0
558357,5,187,167,0
558368,4,192,172,0
558379,-1,191,166,0
558390,-9,190,162,0
558401,-15,186,153,0
558412,-20,183,153,0
558424,-22,185,155,0
558435,-21,184,151,0
558446,-23,183,143,0
558457,-23,184,141,0
558468,-15,182,134,0
558479,-15,190,132,0
558490,-13,192,132,0
558501,-9,195,137,0
558512,-16,198,153,0
558523,-18,195,152,0
558534,-29,187,156,0
558545,-48,174,155,0
558556,-52,164,154,0
558567,-41,175,145,0
558578,-36,178,126,1
558589,-37,169,131,0
558600,-20,157,129,0
558611,-3,196,125,0
558622,23,209,171,0
558633,21,217,213,0
558644,3,215,219,0
558655,-20,222,232,0
558666,-25,229,247,0
558677,-11,221,233,0
558688,16,189,216,0
558699,33,176,207,0
558710,40,163,189,0
558721,44,161,171,0
558732,40,169,167,0
558743,37,170,169,0
558754,29,163,172,0
558765,22,160,174,0
558776,14,166,184,0
558787,6,169,191,0
558798,-9,164,190,0
558809,4,161,200,0
558820,15,141,204,0
558831,18,137,213,0
558842,35,113,199,0
558853,35,107,187,0
558864,33,106,176,0
558875,29,118,181,0
558886,30,115,174,0
558897,25,112,169,0
558908,22,116,169,0
558919,20,117,170,0
558930,11,119,168,0
558941,6,120,172,0
558952,2,127,175,0
558963,0,130,178,0
558974,-3,132,180,0
558985,-7,136,182,0
558996,-9,135,186,0
559007,-15,130,181,0
559018,-16,130,183,0
559029,-18,128,181,0
559040,-16,125,185,0
559051,-17,119,185,0
559062,-8,112,172,0
559073,-7,104,168,0
559084,-4,96,162,0
559095,-6,100,164,0
559106,-9,104,174,0
559117,-11,104,186,0
559128,-10,105,188,0
559139,-8,110,185,0
559150,-20,114,190,0
559161,-28,117,193,0
559172,-52,129,189,0
559183,-64,128,191,0
559194,-73,132,196,0
559205,-76,135,206,0
559216,-79,125,219,0
559227,-79,120,226,0
559238,-77,123,234,0
559249,-67,124,231,1
559260,-31,171,254,0
559271,27,291,291,0
559282,45,259,294,0
559293,66,247,367,0
559304,88,232,364,0
559316,98,165,311,0
559327,76,96,198,0
559338,62,70,227,0
559349,57,89,167,0
559360,31,86,148,0
559371,17,97,135,0
559382,12,105,130,0
559393,3,108,128,0
559404,-6,120,130,0
559415,0,132,139,0
559426,8,137,146,0
559437,22,147,170,0
559448,40,153,188,0
559459,54,146,189,0
559470,59,133,188,0
559481,50,129,186,0
559492,18,136,180,0
559503,6,137,175,0
559514,-6,137,172,0
559525,-13,138,170,0
559536,-20,141,173,0
559547,-21,142,172,0
559558,-21,146,167,0
559569,-20,148,167,0
559580,-16,144,168,0
559591,-12,141,173,0
559602,-3,144,168,0
559613,3,151,164,0
559624,5,154,162,0
559635,5,154,164,0
559646,3,151,168,0
559657,-3,142,175,0
559668,-9,141,179,0
559679,-15,140,180,0
559690,-28,143,180,0
559701,-35,140,184,0
559712,-46,141,187,0
559723,-49,139,183,0
559734,-51,136,182,0
559745,-52,134,182,0
559756,-47,133,182,0
559767,-43,130,184,0
559778,-37,131,184,0
559789,-29,132,182,0
559800,-26,131,185,0
559811,-22,130,184,0
559822,-23,135,191,0
559833,-22,131,191,0
559844,-23,132,189,0
559855,-27,130,192,0
559866,-30,121,194,0
559877,-35,117,190,0
559888,-43,118,186,0
559900,-49,122,181,0
559911,-57,130,181,0
559922,-61,133,183,0
559933,-60,131,183,0
559944,-39,130,184,1
559955,-25,148,204,0
559966,-22,155,242,0
559977,-15,120,201,0
559988,-1,125,189,0
559999,0,146,216,0
560010,-4,168,259,0
560021,3,187,254,0
560032,-4,196,247,0
560043,6,213,254,0
560054,12,223,246,0
560065,38,208,246,0
560076,46,197,238,0
560087,46,175,226,0
560098,34,135,211,0
560109,21,140,194,0
560120,9,129,169,0
560132,-22,109,185,0
560142,-19,114,196,0
560153,-22,123,218,0
560164,-22,135,225,0
560175,-27,143,244,0
560186,-15,128,227,0
560197,-2,111,194,0
560208,7,110,181,0
560219,13,108,171,0
560230,15,108,164,0
560241,14,109,166,0
560252,14,110,173,0
560263,20,105,172,0
560274,20,108,177,0
560285,15,110,182,0
560296,16,109,183,0
560307,22,118,186,0
560318,26,125,187,0
560329,28,128,184,0
560340,29,132,184,0
560351,30,132,183,0
560362,26,136,183,0
560373,23,138,186,0
560384,13,141,192,0
560395,5,144,195,0
560406,2,144,196,0
560417,-1,143,194,0
560428,-6,141,194,0
560439,-7,133,190,0
560450,-12,131,180,0
560461,-18,132,180,0
560472,-34,131,180,0
560483,-41,133,180,0
560494,-40,133,183,0
560505,-37,132,186,0
560516,-34,132,186,0
560527,-28,129,187,0
560538,-22,126,189,0
560549,-19,126,189,0
560560,-16,126,192,0
560571,-10,126,191,0
560582,-8,124,191,0
560593,-9,126,192,0
560604,-8,127,193,0
560615,-6,129,195,0
560626,-1,133,199,0
560637,0,137,203,0
560648,0,136,208,0
560659,-4,135,205,0
560670,-10,135,203,0
560681,-17,136,201,0
560692,-22,139,198,0
560703,-26,142,199,0
560714,-30,142,201,0
560725,-32,142,206,1
560736,-31,136,205,0
560747,-33,132,208,0
560758,-35,130,213,0
560769,-21,141,217,0
560780,1,160,231,0
560791,14,152,234,0
560802,28,149,222,0
560813,15,125,230,0
560824,26,130,210,0
560835,38,141,191,0
560846,38,139,196,0
560857,32,138,197,0
560868,25,154,188,0
560879,27,163,175,0
560890,27,166,168,1
560901,25,169,168,0
560912,18,169,169,0
560923,8,165,166,0
560934,9,115,199,0
560945,31,159,162,0
560956,7,152,149,0
560967,11,158,173,0
560978,14,163,188,0
560989,11,161,187,0
561000,8,157,183,0
561011,12,157,183,0
561022,10,156,186,0
561033,12,151,179,0
561045,9,150,178,0
561055,4,150,174,0
561066,0,152,170,0
561077,-3,153,177,0
561088,-4,157,177,0
561099,-6,161,176,0
561110,-9,160,178,0
561121,-11,157,176,0
561132,-9,164,176,0
561143,-6,158,166,0
561154,-10,160,166,0
561165,-16,162,173,0
561176,-17,160,180,0
561187,-20,159,174,0
561198,-26,160,174,0
561209,-30,166,181,0
561220,-32,160,177,0
561231,-32,151,177,0
561242,-33,150,178,0
561253,-35,145,181,0
561264,-38,141,187,0
561275,-41,136,186,0
561286,-44,135,184,0
561297,-43,131,178,0
561308,-43,125,166,0
561319,-43,130,164,0
561330,-49,136,168,0
561341,-51,141,175,0
561352,-55,146,182,0
561363,-55,141,184,0
561374,-56,135,185,0
561385,-54,133,184,0
561396,-58,132,182,0
561407,-60,125,180,0
561418,-63,121,179,0
561429,-64,114,175,0
561440,-70,113,176,0
561451,-67,114,179,0
561462,-67,115,179,0
561473,-59,122,176,0
561484,-61,122,173,0
561495,-60,121,170,0
561506,-61,111,168,0
561517,-64,97,168,0
561528,-70,101,166,1
561539,-79,107,169,0
561550,-29,125,149,0
561561,-27,148,194,0
561572,21,177,270,0
561583,24,199,248,0
561594,0,171,256,0
561605,-28,210,321,0
561616,-24,233,301,0
561627,-1,220,261,0
561638,40,181,220,0
561649,38,179,199,0
561660,30,182,183,0
561671,8,183,170,0
561682,-3,186,185,0
561693,-1,178,203,0
561704,-6,177,209,0
561715,-25,167,191,0
561726,-42,159,190,0
561737,-58,151,208,0
561748,-45,157,200,0
561760,-29,155,183,0
561770,-22,154,187,0
561781,2,151,180,0
561792,19,140,170,0
561803,30,129,168,0
561814,26,129,167,0
561825,23,127,166,0
561836,21,123,163,0
561847,11,123,160,0
561858,4,122,162,0
561869,-3,126,169,0
561880,-3,123,166,0
561891,-8,128,171,0
561902,-9,128,171,0
561913,-12,133,179,0
561924,-10,134,182,0
561935,-7,134,189,0
561946,-9,134,191,0
561957,-14,134,192,0
561968,-21,123,187,0
561979,-25,118,182,0
561990,-27,116,178,0
562001,-29,113,178,0
562012,-27,108,174,0
562023,-26,105,174,0
562034,-27,105,179,0
562045,-26,102,177,0
562056,-29,98,179,0
562067,-30,93,178,0
562078,-30,91,181,0
562089,-29,93,180,0
562100,-25,100,178,0
562111,-27,106,178,0
562122,-30,115,181,1
562133,-34,120,191,0
562144,-35,121,194,0
562155,-37,123,195,0
562166,-38,127,201,0
562177,-40,133,207,0
562188,-42,139,209,0
562199,-50,144,219,0
562210,-60,151,237,0
562221,-75,148,245,0
562232,-88,140,247,0
562243,-86,143,234,0
562254,-64,197,246,0
562265,-15,226,279,0
562276,18,210,277,0
562287,57,195,257,0
562298,38,156,222,0
562309,49,163,217,0
562320,56,169,229,0
562332,57,143,223,0
562342,30,130,230,0
562353,29,134,176,0
562364,23,127,155,0
562375,19,121,149,0
562386,16,118,135,0
562397,16,114,130,0
562408,24,119,128,0
562419,39,120,131,0
562430,50,124,143,0
562441,55,136,166,0
562452,60,148,185,0
562463,58,150,193,0
562474,77,167,189,0
562485,61,168,184,0
562496,47,159,172,0
562507,35,158,159,0
562518,17,160,160,0
562529,5,154,158,0
562540,-2,153,153,0
562551,-7,147,152,0
562562,-11,151,147,0
562573,-16,154,142,0
562584,-23,151,148,0
562595,-29,150,153,0
562606,-20,156,155,0
562617,-20,156,156,0
562628,-15,159,158,0
562639,-8,153,169,0
562650,-19,151,173,0
562661,-25,141,171,0
562672,-30,134,176,0
562683,-39,137,166,0
562694,-50,141,170,0
562705,-58,148,173,0
562716,-64,148,182,0
562727,-64,155,192,0
562738,-65,165,206,0
562749,-59,172,222,0
562760,-53,171,235,0
562771,-44,180,245,0
562782,-49,183,249,0
562793,-57,180,240,0
562804,-67,169,231,0
562815,-59,150,198,0
562827,-59,166,180,0
562838,-40,159,155,0
562849,9,157,155,0
562860,47,136,152,1
562871,67,94,118,0
562882,79,46,98,0
562893,44,78,134,0
562904,60,60,111,0
562915,27,99,148,0
562926,7,144,176,0
562937,-2,163,194,0
562948,-36,191,247,0
562959,-62,198,279,0
562970,-77,197,299,0
562981,-87,187,306,0
562992,-103,189,308,0
563003,-118,193,310,0
563014,-118,186,296,0
563025,-101,183,296,0
563036,-57,142,295,0
563047,-54,132,309,0
563058,-28,96,274,0
563069,-11,77,264,0
563080,-17,81,269,0
563091,-38,92,264,0
563102,-61,105,249,0
563113,-64,105,229,0
563124,-71,107,187,0
563135,-58,98,159,0
563146,-44,86,128,0
563157,-23,75,99,0
563168,-1,65,82,0
563179,13,58,71,0
563190,13,46,55,0
563201,11,38,37,0
563212,19,36,33,0
563223,11,34,33,0
563234,3,31,30,0
563245,39,96,44,0
563256,89,108,66,0
563267,137,208,100,0
563278,143,198,186,0
563289,127,210,310,0
563301,91,128,242,0
563312,-22,131,274,0
563323,-96,150,288,0
563334,-134,133,278,0
563345,-152,125,261,0
563356,-156,125,269,0
563367,-154,138,279,0
563378,-139,167,298,0
563389,-127,190,307,0
563400,-123,211,307,1
563411,-97,182,274,0
563422,-83,163,254,0
563433,-65,145,219,0
563444,-15,122,159,0
563455,0,115,150,0
563466,19,119,145,0
563477,23,145,152,0
563488,21,151,165,0
563499,11,161,166,0
563510,3,155,167,0
563521,-6,156,179,0
563532,-19,150,184,0
563543,-32,141,175,0
563554,-51,146,167,0
563565,-59,130,145,0
563576,-66,114,130,0
563587,-69,105,116,0
563598,-59,94,96,0
563609,-61,94,101,0
563620,-45,91,106,0
563631,-56,92,96,0
563642,0,90,60,0
563653,70,145,23,0
563664,142,170,108,1
563675,182,109,179,0
563686,136,64,157,0
563697,94,94,142,0
563708,59,139,201,0
563719,67,160,254,0
563730,75,179,310,0
563741,62,201,322,0
563752,10,219,313,0
563763,-56,222,309,0
563774,-88,216,316,0
563785,-97,212,301,0
563796,-114,205,290,0
563807,-124,206,292,0
563818,-118,200,280,0
563829,-111,192,280,0
563840,-98,191,277,0
563851,-80,186,271,0
563862,-65,181,254,0
563873,-50,161,247,0
563884,-37,157,204,0
563895,-39,140,181,0
563906,-51,126,179,0
563917,-39,133,144,0
563928,-27,131,118,0
563939,3,140,96,0
563950,-12,126,101,0
563961,-11,124,92,0
563972,11,112,62,0
563983,31,94,6,0
563994,28,95,24,0
564005,48,96,43,0
564016,64,85,59,0
564027,64,88,69,0
564038,62,100,72,0
564049,65,135,89,0
564060,83,152,100,1
564071,41,130,85,0
564082,35,150,115,0
564093,69,261,173,0
564104,35,159,177,0
564115,43,180,191,0
564126,-2,166,183,0
564137,-31,156,187,0
564148,-76,189,238,0
564159,-107,243,303,0
564170,-106,293,347,0
564181,-85,325,370,0
564192,-65,340,378,0
564203,-34,309,335,0
564214,-8,266,280,0
564225,-4,232,249,1
564236,-5,218,233,0
564247,1,207,215,0
564258,10,195,199,0
564269,5,191,180,0
564280,-2,204,175,0
564291,-9,208,162,0
564302,-9,197,145,0
564313,-8,182,151,0
564324,5,167,134,0
564335,25,176,79,0
564346,-9,177,129,0
564357,-9,155,142,0
564368,17,145,104,0
564379,22,135,85,0
564390,23,130,71,0
564401,27,123,68,0
564412,34,109,65,0
564423,52,106,58,0
564434,87,56,48,0
564445,97,45,47,0
564456,100,31,57,0
564467,91,37,75,1
564478,77,46,79,0
564489,63,79,48,0
564500,-12,126,117,0
564511,-53,205,316,0
564522,-56,216,365,0
564533,-90,183,329,0
564544,-130,210,335,0
564555,-157,275,400,0
564566,-128,313,421,0
564577,-78,295,388,0
564588,-43,282,356,0
564599,-21,228,340,0
564610,-25,204,330,0
564621,-20,210,291,0
564632,-23,190,270,0
564643,-13,162,256,0
564654,-2,143,223,0
564665,-6,116,192,0
564676,-20,94,157,0
564687,-40,80,138,0
564698,-41,67,146,0
564709,-13,81,121,0
564720,1,76,76,0
564731,24,71,53,0
564742,83,73,27,0
564753,55,52,2,0
564764,73,57,0,0
564775,73,50,-13,0
564786,51,38,-8,1
564797,42,31,2,0
564808,36,47,24,0
564819,21,71,50,0
564830,32,125,93,0
564841,35,249,217,0
564852,45,250,283,0
564863,56,276,294,0
564874,132,256,301,0
564885,19,163,293,0
564896,-67,143,296,0
564907,-101,142,320,0
564918,-137,158,336,0
564929,-160,200,350,0
564940,-161,256,340,0
564951,-158,254,315,0
564962,-139,243,282,0
564973,-116,224,238,0
564984,-90,214,206,0
564995,-60,225,199,0
565006,-37,245,199,0
565017,-18,245,200,0
565028,-8,231,201,0
565039,-7,241,230,0
565050,-11,226,252,0
565061,-11,177,249,0
565072,-8,153,244,0
565083,-26,153,231,0
565094,-38,122,185,0
565105,-62,119,120,0
565116,-70,104,86,0
565127,-74,94,65,0
565138,-65,91,50,0
565149,-46,79,42,0
565160,-23,68,35,0
565171,-4,67,34,1
565182,6,62,32,0
565193,20,54,34,0
565204,35,59,48,0
565215,57,60,56,0
565226,69,69,68,0
565237,91,63,88,0
565248,124,70,92,0
565259,140,100,89,0
565270,106,101,280,0
565281,25,114,223,0
565292,-59,159,229,0
565303,-115,216,299,0
565314,-124,265,376,0
565325,-117,292,389,0
565336,-112,302,383,0
565347,-97,303,385,0
565358,-63,302,382,0
565369,-38,282,357,0
565380,-26,258,342,0
565391,-14,221,311,0
565402,0,188,289,0
565413,-2,184,286,0
565424,7,159,258,0
565435,-17,141,234,0
565446,-23,137,211,0
565457,-34,132,189,0
565468,-40,120,157,0
565479,-37,113,129,0
565490,-22,100,109,0
565501,15,93,92,0
565512,44,92,72,0
565523,66,83,61,0
565534,80,65,52,0
565545,96,48,51,0
565556,108,34,45,0
565567,112,49,24,0
565578,128,66,6,0
565589,131,86,45,1
565600,42,70,104,0
565611,22,113,88,0
565622,2,115,86,0
565633,-18,125,110,0
565645,-30,188,200,0
565655,16,192,195,0
565666,52,183,223,0
565677,29,163,233,0
565688,21,144,258,0
565699,12,143,294,0
565710,-6,156,310,0
565721,-27,169,320,0
565732,-57,188,331,0
565743,-79,193,330,0
565754,-100,193,324,0
565765,-103,202,290,0
565776,-95,205,268,0
565787,-94,215,254,1
565798,-89,228,250,0
565809,-89,226,236,0
565820,-69,237,239,0
565831,-63,222,234,0
565842,-47,206,228,0
565853,-29,186,223,0
565864,-26,168,208,0
565875,-27,132,195,0
565886,-10,146,206,0
565897,-8,72,136,0
565908,-10,85,116,0
565919,-6,58,69,0
565930,-11,47,28,0
565941,-36,39,12,0
565952,-45,23,-3,0
565963,-66,44,7,0
565974,-66,61,10,0
565985,-32,54,4,0
565996,83,82,-16,0
566007,155,109,22,1
566018,200,133,149,0
566029,201,96,136,0
566040,142,86,158,0
566051,78,114,200,0
566062,12,162,255,0
566073,-1,205,345,0
566084,-46,264,418,0
566095,-84,303,449,0
566106,-78,315,422,0
566117,-67,306,384,0
566128,-59,275,364,0
566139,-69,260,364,0
566150,-63,228,350,0
566161,-58,212,334,0
566172,-52,188,320,0
566183,-27,167,300,0
566194,-21,158,289,0
566205,-20,128,255,0
566216,-39,131,228,0
566227,-35,112,181,0
566238,-12,85,129,0
566249,5,103,129,0
566260,28,119,148,0
566271,56,111,107,0
566282,66,90,72,0
566293,79,40,29,0
566304,88,32,16,0
566315,100,9,-3,0
566326,103,18,-9,0
566337,104,13,-31,0
566348,104,33,-11,0
566359,93,61,10,0
566370,98,78,24,0
566381,112,88,35,0
566392,121,197,105,0
566403,121,124,132,0
566414,8,139,172,1
566425,76,132,180,0
566436,-23,206,276,0
566447,-15,187,252,0
566458,-33,160,261,0
566469,-63,168,294,0
566480,-81,185,322,0
566491,-94,181,324,0
566502,-96,193,338,0
566513,-90,193,340,0
566524,-81,189,331,0
566535,-81,191,318,0
566546,-78,205,301,0
566557,-70,207,277,1
566568,-59,219,259,0
566579,-56,230,246,0
566590,-53,240,251,0
566601,-32,225,260,0
566612,-21,197,249,0
566623,-14,168,231,0
566634,-3,135,203,0
566645,1,113,173,0
566656,-17,94,144,0
566667,-25,89,125,0
566678,-43,76,105,0
566689,-45,38,48,0
566700,-16,38,12,0
566711,-27,41,20,0
566722,-9,18,-21,0
566733,-13,8,-1,0
566744,-15,11,-13,0
566755,15,23,19,0
566766,93,49,75,1
566777,103,80,111,0
566788,118,81,175,0
566799,79,116,201,0
566810,51,114,219,0
566821,17,166,299,0
566832,12,155,317,0
566843,-25,243,408,0
566854,-40,262,435,0
566865,-45,263,439,0
566876,-33,260,413,0
566887,-51,261,393,0
566898,-25,221,347,0
566909,-28,201,315,0
566920,-27,190,303,0
566931,-29,181,294,0
566942,-25,161,276,0
566953,-4,147,265,0
566964,-1,128,247,0
566975,4,114,227,0
566986,7,100,215,0
566997,8,82,200,0
567008,16,60,171,0
567019,16,51,145,0
567030,23,42,120,0
567041,38,30,88,0
567052,47,21,59,0
567063,47,7,25,0
567074,39,0,3,0
567085,37,-1,-17,1
567096,31,2,-19,0
567107,33,7,-1,0
567118,41,31,29,0
567129,59,56,59,0
567140,64,89,89,0
567151,64,126,134,0
567162,87,165,185,0
567173,125,216,215,0
567184,65,253,260,0
567195,20,283,291,0
567206,7,264,310,0
567217,-4,255,323,0
567228,-29,243,332,0
567239,-33,219,318,0
567250,-16,180,302,0
567261,9,170,307,0
567272,16,171,328,0
567283,24,173,314,0
567294,8,180,297,0
567305,6,188,278,0
567316,-11,196,268,0
567327,-21,199,262,0
567338,-62,240,284,0
567349,-45,169,237,0
567360,-11,132,227,0
567371,-45,130,220,0
567382,-93,194,259,0
567393,-52,97,180,0
567404,-36,106,168,0
567415,-28,117,147,0
567426,6,61,80,0
567437,-10,27,41,0
567448,-7,-28,5,1
567459,-14,-22,0,0
567470,-33,-4,-2,0
567481,-39,-2,-13,0
567492,-6,6,-18,0
567503,51,52,5,0
567514,130,98,44,0
567525,144,77,127,0
567536,162,209,255,0
567547,38,263,240,0
567558,21,236,288,0
567569,-15,300,393,0
567580,-26,252,395,0
567591,-36,290,474,0
567602,-20,272,447,0
567613,-32,272,410,0
567624,-20,208,358,0
567635,-30,181,332,0
567646,-37,163,296,0
567657,-50,141,263,0
567668,-57,132,246,0
567679,-37,105,234,0
567690,-35,113,239,0
567701,-29,112,229,0
567712,-20,104,203,0
567723,-12,86,178,0
567734,-16,81,158,0
567745,12,85,145,0
567756,38,64,122,0
567767,38,48,65,0
567778,52,24,27,0
567789,67,5,-1,0
567800,68,19,-8,0
567811,72,7,-33,0
567822,57,14,-19,0
567833,57,55,22,0
567844,88,85,75,0
567855,78,101,100,0
567866,35,125,151,0
567877,37,171,195,0
567888,2,205,215,1
567899,-7,184,229,0
567910,-20,190,245,0
567921,-40,185,242,0
567932,-68,180,259,0
567943,-50,176,305,0
567954,-29,175,316,0
567965,-25,185,326,0
567976,-37,176,321,0
567987,-35,162,300,0
567998,-43,177,292,0
568009,-49,171,269,0
568020,-45,163,235,0
568031,-42,182,226,0
568042,-46,186,209,0
568053,-31,168,202,0
568064,-33,175,203,0
568075,-16,146,191,0
568086,-41,194,217,0
568097,-33,182,217,0
568108,4,70,131,0
568119,-5,109,162,0
568130,-6,100,160,0
568141,16,77,136,0
568152,16,25,63,0
568163,12,23,63,0
568174,8,-1,34,0
568185,7,-10,9,0
568196,18,-1,6,0
568207,25,12,5,0
568218,37,35,46,0
568229,67,41,83,0
568240,40,86,124,1
568251,45,165,198,0
568262,45,169,190,0
568273,54,181,289,0
568284,-6,278,392,0
568295,-24,267,424,0
568306,-44,248,461,0
568317,-52,271,496,0
568328,-46,269,441,0
568339,-50,248,391,0
568350,-30,208,350,0
568361,-25,199,338,0
568372,2,193,330,0
568383,18,161,288,0
568394,6,168,301,1
568405,0,133,272,0
568416,6,108,248,0
568427,-7,103,232,0
568438,-6,97,218,0
568449,0,87,181,0
568460,19,91,161,0
568471,17,67,119,0
568482,22,49,98,0
568493,23,41,68,0
568504,27,20,21,0
568515,40,4,-10,0
568526,46,-1,-36,0
568537,46,-18,-63,0
568548,44,-10,-57,0
568559,38,0,-47,0
568570,30,9,-26,0
568581,21,23,2,1
568592,19,41,36,0
568603,121,143,171,0
568614,194,191,269,0
568625,28,243,334,0
568636,2,281,350,0
568647,42,306,354,0
568658,50,183,307,0
568669,-11,249,311,0
568680,-45,256,314,0
568691,-45,178,258,0
568702,-33,148,248,0
568713,-11,174,299,1
568724,-1,188,328,0
568735,-1,198,339,0
568746,13,207,341,0
568757,6,210,331,0
568768,-12,198,295,0
568779,-13,206,276,0
568790,-25,201,255,0
568802,-27,175,216,0
568812,-41,149,193,0
568823,-51,206,232,0
568834,-44,114,164,0
568845,-77,190,218,0
568856,-46,80,128,0
568867,-13,6,102,0
568878,-21,65,137,0
568889,-4,57,99,0
568900,6,52,79,0
568911,19,63,86,0
568922,17,20,11,0
568933,7,10,-8,0
568944,12,4,-9,0
568955,20,19,1,0
568966,35,37,14,1
568977,65,31,15,0
568988,85,31,57,0
568999,89,94,115,0
569010,98,95,194,0
569021,67,226,274,0
569032,-13,174,235,0
569043,-33,258,329,0
569054,-61,272,385,0
569065,-79,231,398,0
569076,-59,232,441,0
569087,-72,226,459,0
569098,-33,210,405,0
569109,-25,188,384,0
569120,-42,179,373,0
569131,-39,172,360,0
569142,-37,156,339,0
569153,-41,138,314,0
569164,-44,129,304,0
569175,-33,112,285,0
569186,-28,105,271,0
569197,-15,93,247,0
569208,-21,87,214,0
569219,-26,69,181,0
569230,-12,55,157,0
569241,-5,77,160,0
569252,2,58,126,0
569263,16,53,115,0
569274,30,43,68,0
569285,43,40,54,0
569296,42,26,22,0
569307,34,6,-13,0
569318,34,-1,-20,0
569329,33,3,-15,0
569340,33,4,-24,0
569351,39,12,-19,0
569362,42,24,-4,1
569373,71,52,18,0
569384,90,57,34,0
569395,124,97,61,0
569406,143,175,148,0
569417,93,232,199,0
569428,5,279,270,0
569439,4,267,315,0
569450,-38,250,329,0
569461,-63,227,338,0
569472,-58,191,320,0
569483,-76,147,295,0
569494,-70,159,319,0
569505,-60,152,351,0
569516,-55,169,370,0
569527,-75,199,371,0
569538,-101,221,359,0
569549,-120,226,336,0
569560,-130,233,311,0
569571,-122,218,285,0
569582,-101,213,257,0
569593,-101,225,250,0
569604,-65,186,231,0
569615,-85,218,281,0
569626,-90,189,278,0
569637,-117,216,293,0
569648,-58,99,193,0
569659,-103,172,254,0
569670,-95,148,232,0
569681,-54,46,133,0
569692,-54,63,131,0
569703,-58,-3,11,0
569714,-51,25,27,0
569725,-38,19,-18,0
569736,-6,42,10,0
569747,19,25,-27,0
569758,29,41,-49,0
569769,92,34,0,1
569780,107,29,17,0
569791,131,43,28,0
569802,183,75,47,0
569813,170,105,76,0
569824,162,156,264,0
569835,79,-1,85,0
569846,-29,168,159,0
569857,-79,368,387,0
569868,-41,275,410,0
569879,-60,336,487,0
569890,-53,334,488,0
569901,-54,265,450,0
569912,-76,257,412,0
569923,-85,256,389,0
569934,-75,198,321,0
569945,-61,171,294,0
569956,-58,151,265,0
569967,-45,120,249,0
569978,-55,129,228,0
569989,-51,135,220,0
570000,-39,104,200,0
570011,-43,114,189,0
570023,-12,110,158,0
570034,5,110,136,0
570045,35,116,140,0
570056,61,96,123,0
570067,108,74,85,0
570078,104,78,47,0
570089,103,49,-6,0
570100,104,28,-27,0
570111,96,39,-19,0
570122,95,60,-5,1
570133,88,89,27,0
570144,98,115,54,0
570155,106,121,99,0
570166,81,112,136,0
570177,41,125,162,0
570188,63,115,135,0
570199,96,98,124,0
570210,8,210,252,0
570221,-5,179,233,0
570233,-54,197,266,0
570244,-103,195,314,0
570255,-103,201,340,0
570266,-95,206,351,0
570277,-85,216,354,0
570288,-91,207,341,1
570299,-107,186,308,0
570310,-120,197,289,0
570321,-121,194,266,0
570332,-109,207,262,0
570343,-111,221,258,0
570354,-106,220,249,0
570365,-91,198,236,0
570376,-76,194,221,0
570387,-52,180,200,0
570398,-18,143,176,0
570409,22,114,142,0
570420,16,126,153,0
570431,42,16,65,0
570442,17,54,76,0
570453,18,32,37,0
570464,8,24,16,0
570475,-6,35,9,0
570486,-8,30,9,0
570497,-49,-7,-46,0
570508,7,27,-7,1
570519,54,54,-11,0
570530,104,109,69,0
570541,128,128,150,0
570552,128,96,138,0
570563,101,109,154,0
570574,71,167,261,0
570585,52,199,317,0
570596,2,233,369,0
570607,-62,288,417,0
570618,-98,327,444,0
570629,-103,317,428,0
570640,-98,297,391,0
570651,-95,247,354,0
570662,-101,226,333,0
570673,-89,194,317,0
570684,-73,184,314,0
570695,-56,173,322,0
570706,-33,174,296,0
570718,-44,140,273,0
570728,-58,127,276,0
570739,-32,120,211,0
570750,-47,128,216,0
570761,-19,120,168,0
570772,12,85,132,0
570783,45,58,101,0
570794,58,46,86,0
570805,56,44,64,0
570816,42,40,35,0
570827,38,16,4,0
570838,39,15,-10,0
570849,52,-11,-45,0
570860,43,19,-27,0
570871,55,27,-18,0
570882,56,55,3,1
570893,67,66,28,0
570904,90,118,112,0
570915,122,214,208,0
570926,155,199,267,0
570937,37,255,348,0
570948,58,205,261,0
570959,42,195,258,0
570970,-18,245,315,0
570981,-33,228,309,0
570992,-68,180,302,0
571003,-70,169,281,0
571014,-51,155,277,0
571025,-46,169,307,0
571036,-66,185,326,0
571047,-83,209,336,0
571058,-98,225,336,0
571069,-93,198,300,0
571080,-85,189,268,0
571091,-80,171,238,0
571102,-60,144,205,0
571113,-48,142,182,0
571124,-41,119,153,0
571135,-37,115,140,0
571146,-28,124,142,0
571157,-25,121,137,0
571168,-19,114,126,0
571179,-15,106,117,0
571190,-17,101,118,0
571201,-16,79,108,0
571212,-11,68,110,0
571223,-6,63,107,0
571234,-21,65,95,0
571245,-38,74,90,0
571256,-49,78,87,0
571267,-64,73,74,0
571278,-69,67,69,0
571289,-77,63,72,0
571300,-58,64,86,0
571311,-13,82,73,1
571322,31,133,116,0
571333,78,165,220,0
571344,47,180,231,0
571355,5,188,265,0
571366,14,190,232,0
571377,35,223,286,0
571388,58,230,359,0
571399,78,216,392,0
571410,45,199,410,0
571421,31,197,385,0
571432,-15,222,367,0
571443,-44,177,315,0
571454,-78,178,282,0
571465,-106,173,263,0
571476,-118,173,251,0
571487,-110,163,225,0
571498,-86,153,211,0
571509,-70,150,205,0
571520,-51,141,198,0
571531,-24,128,162,0
571542,-8,133,154,0
571553,8,119,141,0
571564,17,116,148,0
571575,33,86,129,0
571586,31,94,144,0
571597,39,72,134,0
571608,50,70,134,0
571619,36,73,139,0
571630,22,87,149,0
571641,36,56,121,0
571652,12,78,141,0
571663,5,88,156,0
571674,-6,102,164,0
571685,-8,102,166,0
571696,-27,115,176,0
571707,-36,111,188,0
571718,-50,127,202,0
571729,-52,123,193,0
571740,-62,119,189,0
571751,-68,120,200,0
571762,-64,120,205,0
571773,-56,113,198,0
571784,-58,104,196,0
571795,-61,125,205,0
571806,-59,107,187,0
571817,-62,107,179,0
571828,-62,97,174,0
571839,-59,94,179,0
571850,-47,97,178,0
571861,-36,120,188,0
571872,-14,170,208,0
571883,-6,256,252,1
571894,-6,290,274,0
571905,31,215,289,0
571916,22,165,248,0
571927,12,113,200,0
571938,-3,90,172,0
571949,-9,87,158,0
571960,-14,91,151,0
571971,-12,91,144,0
571982,-12,112,144,0
571993,-8,126,147,0
572004,-2,137,165,0
572015,3,155,166,0
572026,8,167,166,0
572037,13,176,167,0
572048,16,174,172,0
572059,17,171,181,0
572070,9,169,177,0
572081,1,168,177,0
572092,0,168,178,0
572103,-5,169,177,0
572114,-9,169,179,0
572125,-13,171,184,0
572136,-17,182,187,0
572147,-14,185,183,0
572158,-12,180,177,0
572169,-7,176,182,0
572180,-17,170,185,0
572191,-35,146,175,0
572202,-23,143,151,0
572213,-13,141,160,0
572224,-15,155,184,0
572235,-23,178,175,0
572246,-21,180,173,0
572257,-16,180,172,0
572268,-12,171,172,0
572279,-9,164,173,0
572290,-8,162,175,0
572301,-10,164,178,0
572312,-2,164,175,0
572323,-1,160,169,0
572334,-3,155,170,0
572345,-3,153,172,0
572356,-7,160,172,0
572367,-13,163,171,0
572378,-21,162,173,0
572389,-25,159,175,0
572400,-30,163,170,0
572411,-32,165,173,0
572422,-34,167,177,0
572433,-42,165,183,0
572444,-45,166,181,0
572455,-46,166,178,0
572466,-46,166,176,0
572477,-41,160,177,0
572488,-36,154,179,0
572499,-33,151,178,0
572510,-32,152,172,0
572522,-33,155,171,0
572532,-37,160,177,0
572543,-39,165,178,0
572554,-37,165,179,0
572565,-33,159,178,0
572576,-31,162,182,0
572587,-31,159,185,0
572598,-28,162,177,0
572609,-29,163,174,0
572620,-29,160,175,0
572631,-26,158,176,0
572642,-26,157,172,0
572653,-23,158,172,0
572664,-20,160,175,0
572675,-17,162,177,0
572686,-16,163,179,0
572697,-6,166,179,0
572708,-4,165,182,0
572719,-2,159,182,0
572730,6,155,182,0
572741,13,151,183,0
572752,16,150,184,0
572763,17,149,188,0
572774,18,150,190,0
572785,19,154,188,0
572796,15,154,189,0
572807,16,156,188,0
572818,12,156,186,0
572829,10,154,189,0
572840,11,151,188,0
572851,7,152,187,0
572862,5,152,187,0
572873,1,152,187,0
572884,-2,151,188,0
572895,-6,149,190,0
572906,-11,146,187,0
572917,-14,144,186,0
572928,-19,144,185,0
572939,-22,144,186,0
572950,-26,146,188,0
572961,-27,146,188,0
572972,-26,147,188,0
572983,-24,148,187,0
572994,-22,146,187,0
573005,-20,147,185,0
573016,-21,147,186,0
573027,-19,149,186,0
573038,-19,149,186,0
573049,-17,150,188,0
573060,-18,147,184,0
573071,-15,145,187,0
573082,-15,148,187,0
573093,-10,145,189,0
573104,-8,144,188,0
573115,-8,145,187,0
573126,-11,148,188,0
573137,-14,148,187,0
573148,-15,147,187,0
573159,-14,145,190,0
573170,-9,144,189,0
573181,-10,144,186,0
573192,-10,147,187,0
573203,-14,147,188,0
573214,-18,143,187,0
573225,-23,147,189,0
573236,-26,150,186,0
573247,-25,152,186,0
573258,-23,148,185,0
573269,-20,148,185,0
573280,-18,150,187,0
573291,-15,147,187,0
573302,-16,149,189,0
573313,-18,151,190,0
573324,-21,150,191,0
573335,-21,148,189,0
573346,-20,146,184,0
573357,-15,143,186,0
573368,-12,130,182,0
573379,-14,141,189,0
573390,-14,142,185,0
573401,-18,143,187,0
573412,-20,143,188,0
573423,-22,147,189,0
573434,-21,148,185,0
573445,-20,147,185,0
573456,-19,148,187,0
573467,-18,146,185,0
573478,-18,147,185,0
573489,-21,147,188,0
573500,-22,149,190,0
573511,-20,148,191,0
573522,-18,147,189,0
573533,-15,145,186,0
573544,-15,143,184,0
573555,-15,142,184,0
573566,-18,143,184,0
573577,-18,146,187,0
573588,-20,146,188,0
573600,-23,147,186,0
573611,-25,148,187,0
573622,-24,148,187,0
573633,-25,146,187,0
573644,-21,143,186,0
573655,-20,143,186,0
573666,-16,140,186,0
573677,-17,141,184,0
573688,-19,144,184,0
573699,-20,146,184,0
573710,-21,151,188,0
573721,-21,152,188,0
573732,-16,151,187,0
573743,-16,154,186,0
573754,-14,152,188,0
573765,-11,152,189,0
