timestamp,accX,accY,accZ,step
721805,43,3,235,0
721816,44,-4,224,0
721827,45,-1,226,0
721838,43,-3,224,0
721848,46,-3,226,0
721859,43,-4,219,0
721870,43,-3,228,0
721880,46,-1,228,0
721891,46,-2,233,0
721902,47,-2,233,0
721913,46,-2,229,0
721924,47,-3,223,0
721935,44,0,223,0
721945,44,1,228,0
721956,43,1,229,0
721967,43,2,231,0
721978,44,1,231,0
721989,44,2,232,0
722000,45,1,230,0
722011,47,0,229,0
722022,47,1,229,0
722033,47,0,229,0
722044,47,0,227,0
722055,48,1,227,0
722066,49,-1,226,0
722077,49,1,226,0
722088,51,0,225,0
722099,51,0,226,0
722110,49,0,227,0
722121,48,0,228,0
722132,47,0,228,0
722143,46,0,230,0
722154,44,0,232,0
722165,44,-1,232,0
722176,43,-1,232,0
722187,43,-1,228,0
722198,42,-2,228,0
722209,44,-2,228,0
722220,46,-2,226,0
722231,47,-2,228,0
722242,48,-3,227,0
722253,48,-3,227,0
722264,48,-2,226,0
722275,46,-3,229,0
722286,44,-1,230,0
722297,46,-2,230,0
722308,45,-1,231,0
722319,46,-3,230,0
722330,47,-3,229,0
722341,47,-2,229,0
722352,46,-2,229,0
722363,45,-2,226,0
722374,46,-3,229,0
722385,47,-4,230,0
722396,47,-2,229,0
722407,49,-1,229,0
722418,50,-3,230,0
722429,48,-1,228,0
722440,48,-2,228,0
722451,49,-2,229,0
722462,51,-3,228,0
722473,52,-3,228,0
722484,51,-1,226,0
722495,53,-2,226,0
722506,53,-1,226,0
722517,52,-1,226,0
722528,50,-1,227,0
722539,49,-1,228,0
722550,49,0,228,0
722561,49,0,229,0
722572,50,0,228,0
722583,49,1,228,0
722594,51,1,227,0
722605,48,0,228,0
722616,50,0,227,0
722627,50,-1,229,0
722638,50,0,229,0
722649,51,-1,228,0
722660,51,-1,228,0
722671,48,-1,226,0
722682,49,-2,227,0
722693,47,-2,227,0
722704,49,-2,227,0
722715,49,-2,228,0
722726,47,-1,229,0
722737,49,-3,228,0
722748,47,-3,228,0
722759,48,-1,230,0
722770,47,-1,227,0
722781,47,0,229,0
722792,47,0,228,0
722803,47,0,228,0
722814,47,-2,229,0
722825,48,-1,228,0
722836,47,-1,228,0
722847,48,-2,228,0
722858,48,-1,228,0
722869,47,-1,229,0
722880,48,-2,230,0
722891,48,-1,229,0
722902,48,0,229,0
722913,48,-1,230,0
722924,48,0,227,0
722935,49,-1,228,0
722946,48,0,228,0
722957,50,0,228,0
722968,50,0,229,0
722979,52,0,227,0
722990,50,0,228,0
723001,52,0,227,0
723012,49,0,227,0
723023,50,-1,229,0
723034,50,-1,228,0
723045,49,-1,229,0
723056,49,-2,229,0
723067,48,-1,229,0
723078,48,0,230,0
723089,48,1,229,0
723100,48,-1,227,0
723111,47,0,228,0
723122,47,0,228,0
723133,46,0,228,0
723144,48,0,228,0
723155,47,0,228,0
723166,48,0,228,0
723177,49,0,227,0
723188,50,-1,226,0
723199,53,0,229,0
723210,52,0,229,0
723221,53,-1,228,0
723232,53,-1,227,0
723243,54,-1,228,0
723254,54,-1,226,0
723265,54,-1,227,0
723276,54,-2,228,0
723287,52,-2,228,0
723298,51,0,228,0
723309,51,-1,228,0
723320,50,0,228,0
723331,50,0,227,0
723342,50,-1,228,0
723353,49,-1,229,0
723364,48,-1,228,0
723375,49,-1,228,0
723386,49,-1,227,0
723397,48,-1,229,0
723408,49,-1,229,0
723419,50,-1,228,0
723430,51,-2,227,0
723441,53,-2,228,0
723452,53,-2,226,0
723463,52,-1,228,0
723474,52,-2,226,0
723485,51,-1,228,0
723496,50,-1,228,0
723507,51,-2,227,0
723518,50,-2,229,0
723529,52,-2,226,0
723540,52,-3,228,0
723551,52,-5,226,0
723562,51,-3,227,0
723573,51,-3,230,0
723584,51,-5,228,0
723596,51,-6,228,0
723607,51,-6,228,0
723618,52,-6,225,0
723629,51,-5,227,0
723640,51,-5,227,0
723651,51,-5,227,0
723662,53,-5,227,0
723673,52,-3,227,0
723684,51,-1,226,0
723695,50,-1,228,0
723706,50,0,227,0
723717,50,0,227,0
723728,50,-1,229,0
723739,53,-2,228,0
723750,52,-2,230,0
723761,54,-2,228,0
723772,53,-2,227,0
723783,51,-2,228,0
723794,54,-1,228,0
723805,52,-2,228,0
723816,52,-2,229,0
723827,53,-3,229,0
723838,52,-3,228,0
723849,50,-5,228,0
723860,47,-10,230,0
723871,50,-9,230,0
723882,48,-4,227,0
723893,45,-1,230,0
723904,44,-3,232,0
723915,44,-3,229,0
723926,45,-2,229,0
723937,46,-3,228,0
723948,48,-1,226,0
723959,51,-2,229,0
723970,52,-2,229,0
723981,54,-2,227,0
723992,56,-3,226,0
724003,56,-5,225,0
724014,55,-6,224,0
724025,55,-6,224,0
724036,54,-5,225,0
724047,55,-4,226,0
724058,53,-2,227,0
724069,52,-4,229,0
724080,51,-4,228,0
724091,52,-3,228,0
724102,51,-4,229,0
724113,50,-1,228,0
724124,49,0,229,0
724135,47,0,229,0
724146,45,-1,229,0
724157,42,-3,230,0
724168,46,-3,231,0
724179,48,0,228,0
724190,50,0,226,0
724201,50,0,228,0
724212,53,0,230,0
724223,56,-1,228,0
724234,54,0,226,0
724245,56,-2,227,0
724256,57,-2,228,0
724267,56,-3,228,0
724278,55,-1,226,0
724289,52,0,226,0
724300,50,2,227,0
724311,47,3,229,0
724322,44,4,227,0
724333,44,3,230,0
724344,42,3,230,0
724355,40,2,230,0
724366,41,1,232,0
724377,42,1,230,0
724388,44,0,229,0
724399,49,-1,227,0
724410,51,-3,227,0
724421,54,-2,226,0
724432,55,-4,224,0
724443,57,-5,224,0
724454,57,-3,228,0
724465,57,-1,230,0
724476,56,-2,230,0
724487,53,-3,231,0
724498,50,-3,230,0
724509,47,-4,230,0
724520,44,-2,231,0
724531,41,-2,230,0
724542,37,-1,227,0
724553,36,-1,226,0
724564,36,1,227,0
724575,39,0,228,0
724586,44,1,233,0
724597,54,-1,231,0
724608,57,-2,227,0
724619,56,0,225,0
724630,51,0,224,0
724641,47,0,226,0
724653,45,-2,225,0
724664,41,-2,225,0
724675,38,-2,225,0
724686,38,-3,226,0
724697,37,-2,230,0
724708,38,-1,230,0
724719,38,-1,230,0
724730,38,0,230,0
724741,38,1,229,0
724752,40,0,229,0
724763,40,0,228,0
724774,40,0,227,0
724785,39,0,229,0
724796,38,0,230,0
724807,37,0,230,0
724818,37,0,231,0
724829,36,1,233,0
724840,35,1,233,0
724851,36,1,231,0
724862,38,-1,229,0
724873,42,-1,229,0
724884,41,0,230,0
724895,39,0,229,0
724906,37,1,230,0
724917,34,1,230,0
724928,35,1,231,0
724939,35,1,231,0
724950,36,1,230,0
724961,37,0,229,0
724972,39,0,231,0
724983,38,0,230,0
724994,39,0,227,0
725005,38,2,228,0
725016,36,2,229,0
725027,34,3,229,0
725038,34,3,231,0
725049,34,3,232,0
725060,34,3,231,0
725071,35,3,232,0
725082,35,3,232,0
725093,36,2,231,0
725104,36,1,231,0
725115,40,1,229,0
725126,41,1,230,0
725137,41,1,229,0
725148,41,0,229,0
725159,39,1,229,0
725170,39,1,229,0
725181,38,1,230,0
725192,39,1,230,0
725203,40,0,229,0
725214,39,0,229,0
725225,40,0,227,0
725236,42,0,227,0
725247,44,0,226,0
725258,47,0,225,0
725269,47,1,226,0
725280,50,0,227,0
725291,51,-2,231,0
725302,52,-4,230,0
725313,53,-7,232,0
725324,52,-9,231,0
725335,49,-9,230,0
725346,48,-12,229,0
725357,50,-14,228,0
725368,52,-13,227,0
725379,53,-6,226,0
725390,53,-7,227,0
725401,51,-8,230,0
725412,48,-11,229,0
725423,45,-14,231,0
725434,42,-11,232,0
725445,40,-8,231,0
725456,40,-6,228,0
725467,43,-6,228,0
725478,49,-7,227,0
725489,56,-6,226,0
725500,64,-5,226,0
725511,70,-4,223,0
725522,74,-2,221,0
725533,76,-2,219,0
725544,82,-2,218,0
725555,84,-1,218,0
725566,88,-7,216,0
725577,86,-14,212,0
725588,82,-18,209,0
725599,80,-20,210,0
725610,78,-17,213,0
725621,69,-15,213,0
725632,51,-24,220,0
725643,25,-20,231,0
725654,4,-18,246,0
725665,10,-26,248,0
725676,30,-16,245,0
725687,38,2,237,0
725698,39,17,227,0
725709,45,8,214,0
725720,48,1,209,0
725731,55,-1,206,0
725742,56,-1,209,0
725753,47,-5,209,0
725764,42,-10,209,0
725775,37,-9,209,0
725786,27,-15,208,0
725797,18,-23,199,0
725808,25,-34,195,0
725819,36,-47,205,0
725830,50,-49,223,0
725841,63,-38,227,0
725852,75,-28,243,0
725863,75,-17,251,0
725874,43,-19,235,0
725885,37,-24,222,0
725896,31,-39,206,0
725907,50,-43,202,0
725918,70,-39,204,0
725929,86,-33,210,0
725940,95,-23,224,0
725951,103,-18,241,0
725962,102,-14,243,0
725973,86,-15,235,0
725984,71,-13,236,0
725995,54,-21,221,0
726006,51,-42,219,0
726017,60,-35,196,0
726028,68,-32,202,0
726039,105,-15,246,0
726050,111,-13,240,0
726061,110,-20,241,0
726072,105,-23,233,0
726083,95,-31,217,0
726094,92,-36,209,0
726105,92,-36,209,0
726116,97,-42,216,0
726127,104,-43,222,0
726138,107,-34,226,0
726149,106,-34,235,0
726160,105,-30,247,0
726171,102,-30,249,0
726182,104,-33,245,0
726193,109,-35,241,0
726204,114,-38,232,0
726215,118,-36,231,0
726226,116,-33,232,0
726237,111,-36,230,0
726248,110,-37,227,0
726259,104,-37,220,0
726270,99,-41,215,0
726281,101,-46,212,0
726292,103,-54,210,0
726303,117,-50,208,0
726314,127,-48,207,0
726325,140,-45,208,0
726336,149,-45,203,0
726347,150,-44,202,0
726358,145,-41,195,0
726369,142,-34,199,0
726380,135,-44,196,0
726391,136,-43,186,0
726402,136,-40,184,0
726413,138,-46,182,0
726424,143,-48,179,0
726435,155,-55,176,0
726446,160,-66,169,0
726457,168,-73,160,0
726468,177,-76,151,0
726479,181,-75,140,0
726490,187,-74,130,0
726501,196,-61,120,0
726512,205,-48,116,0
726523,214,-38,115,0
726534,216,-25,118,0
726545,228,-27,105,0
726556,232,-30,100,0
726567,239,-40,91,0
726578,237,-49,96,0
726589,242,-52,89,0
726600,232,-60,83,0
726611,224,-51,83,0
726622,225,-49,76,0
726633,229,-49,84,0
726644,226,-44,93,0
726655,236,-39,96,0
726666,252,-46,96,0
726677,256,-44,73,0
726688,245,-52,41,0
726699,267,-61,56,0
726710,271,-51,57,0
726721,270,-52,62,0
726732,277,-52,69,0
726743,272,-51,74,0
726754,265,-50,75,0
726765,260,-46,80,0
726776,258,-51,81,0
726787,253,-56,76,0
726798,244,-61,72,0
726809,240,-67,77,0
726820,238,-65,69,0
726831,230,-63,61,0
726842,232,-64,63,0
726853,233,-62,69,0
726864,229,-59,69,0
726875,230,-55,73,0
726886,233,-58,80,0
726897,237,-63,85,0
726908,239,-67,87,0
726919,242,-69,93,0
726930,248,-69,102,0
726941,250,-69,106,0
726952,242,-68,104,0
726963,227,-77,93,0
726974,221,-78,88,0
726985,210,-80,85,0
726996,217,-80,91,0
727007,227,-73,98,0
727018,231,-72,101,0
727029,237,-65,102,0
727040,238,-62,111,0
727051,238,-60,121,0
727062,232,-58,125,0
727073,220,-54,123,0
727084,209,-52,127,0
727095,201,-50,129,0
727106,202,-52,129,0
727117,201,-50,124,0
727128,197,-52,122,0
727139,193,-54,127,0
727150,192,-53,133,0
727161,191,-55,141,0
727172,189,-52,150,0
727183,187,-48,160,0
727194,168,-33,165,0
727205,160,-35,164,0
727216,159,-32,170,0
727227,159,-29,172,0
727238,160,-35,168,0
727249,166,-41,167,0
727260,173,-49,171,0
727271,178,-56,172,0
727282,180,-61,177,0
727293,179,-62,176,0
727304,178,-61,176,0
727315,179,-60,180,0
727326,180,-57,181,0
727337,180,-57,179,0
727348,181,-56,180,0
727359,175,-43,167,0
727370,173,-36,165,0
727381,171,-29,162,0
727392,172,-23,161,0
727403,178,-20,170,0
727414,187,-15,170,0
727425,191,-15,169,0
727436,195,-15,169,0
727447,197,-17,169,0
727458,197,-21,169,0
727469,195,-25,168,0
727480,191,-36,163,0
727491,188,-46,157,0
727502,186,-41,156,0
727513,191,-40,149,0
727524,209,-34,133,0
727535,212,-31,130,0
727546,217,-23,130,0
727557,213,-12,122,0
727568,210,-13,104,0
727579,210,-15,100,0
727590,208,-11,101,0
727601,203,-9,102,0
727612,209,-4,112,0
727623,213,0,115,0
727634,224,-5,104,0
727645,229,-13,98,0
727656,228,-22,89,0
727667,230,-31,95,0
727678,226,-33,111,0
727689,195,-60,112,0
727700,206,-61,114,0
727711,211,-60,100,0
727722,222,-58,100,0
727733,226,-49,90,0
727744,233,-43,88,0
727755,244,-52,93,0
727766,257,-27,102,0
727777,265,-21,92,0
727788,278,-48,97,0
727799,285,-62,130,0
727810,280,-50,98,0
727821,264,-40,60,0
727832,249,-40,60,0
727843,230,-28,55,0
727854,261,-12,73,0
727865,265,-13,65,0
727876,275,-12,60,0
727887,285,-6,63,0
727898,271,8,48,0
727909,256,11,30,0
727920,246,19,17,0
727931,224,23,9,0
727942,223,14,24,0
727953,231,5,34,0
727964,245,-7,28,0
727975,264,-18,37,0
727986,279,-30,38,0
727998,256,-32,31,0
728009,228,-23,26,0
728020,193,-14,36,0
728031,180,3,65,0
728042,172,7,85,0
728053,188,-10,96,0
728064,222,-27,93,0
728075,255,-33,76,0
728086,260,-17,59,0
728097,250,-1,48,0
728108,234,0,34,0
728119,228,-8,28,0
728130,236,-23,34,0
728141,252,-37,44,0
728152,262,-40,43,0
728163,280,-24,46,0
728174,271,-19,43,0
728185,256,-10,34,0
728196,240,-9,21,0
728207,232,-7,18,0
728218,231,-5,24,0
728229,235,-8,29,0
728240,243,-4,44,0
728251,257,-6,57,0
728262,276,-5,70,0
728273,285,-1,75,0
728284,282,1,70,0
728295,283,-6,64,0
728306,279,-20,57,0
728317,263,-24,54,0
728328,225,-25,63,0
728339,218,-17,72,0
728350,220,-6,80,0
728361,228,2,88,0
728372,237,5,90,0
728383,249,3,90,0
728394,256,-8,80,0
728405,256,-23,66,0
728416,252,-42,54,0
728427,240,-47,46,0
728438,222,-36,40,0
728449,204,-22,40,0
728460,196,-12,47,0
728471,196,-11,55,0
728482,203,-11,62,0
728493,225,-23,61,0
728504,234,-24,57,0
728515,234,-18,50,0
728526,233,-10,44,0
728537,233,-2,40,0
728548,232,0,40,0
728559,236,0,39,0
728570,246,-5,38,0
728581,252,-10,37,0
728592,250,-18,34,0
728603,244,-15,29,0
728614,246,-8,28,0
728625,240,2,24,0
728636,231,12,19,0
728647,226,8,16,0
728658,239,-12,21,0
728669,248,-20,25,0
728680,251,-21,21,0
728691,257,-16,19,0
728702,261,-6,15,0
728713,258,2,9,0
728724,247,6,3,0
728735,236,-5,-5,0
728746,247,-30,-3,0
728757,263,-34,1,0
728768,281,-46,-2,0
728779,300,-48,-6,0
728790,317,-40,-10,0
728801,315,-24,-18,0
728812,295,-11,-28,0
728823,238,-30,-42,0
728834,239,-53,-29,0
728845,255,-56,-17,0
728856,277,-43,-11,0
728867,300,-35,-15,0
728878,321,-29,-26,0
728889,331,-20,-41,0
728900,324,-16,-54,0
728911,301,-26,-64,0
728922,274,-40,-63,0
728933,271,-49,-54,0
728944,279,-38,-43,0
728955,287,-22,-46,0
728966,303,-14,-51,0
728977,319,-10,-57,0
728988,320,-4,-78,0
728999,304,-13,-80,0
729010,295,-29,-74,0
729021,288,-32,-64,0
729032,283,-24,-60,0
729043,283,-17,-61,0
729054,287,-4,-64,0
729065,294,8,-66,0
729076,290,16,-70,0
729087,280,9,-79,0
729098,276,-6,-80,0
729109,289,-24,-71,0
729120,302,-27,-68,0
729131,303,-25,-71,0
729142,303,-18,-73,0
729153,305,-1,-76,0
729164,314,-7,-74,0
729175,329,-26,-76,0
729186,351,-39,-81,0
729197,375,-47,-82,0
729208,386,-42,-83,0
729219,387,-31,-84,0
729230,381,-19,-84,0
729241,365,-16,-86,0
729252,349,-17,-84,0
729263,333,-19,-78,0
729274,325,-16,-72,0
729285,326,-14,-65,0
729296,326,-10,-63,0
729307,327,-18,-69,0
729318,343,-41,-72,0
729329,342,-40,-66,0
729340,330,-37,-61,0
729351,317,-35,-56,0
729362,307,-35,-49,0
729373,301,-32,-44,0
729384,302,-35,-39,0
729395,309,-39,-36,0
729406,312,-39,-35,0
729417,311,-37,-37,0
729428,312,-38,-40,0
729439,310,-33,-36,0
729450,300,-35,-35,0
729461,295,-36,-30,0
729472,286,-36,-26,0
729483,279,-34,-26,0
729494,272,-29,-28,0
729505,260,-27,-30,0
729516,253,-29,-28,0
729527,252,-29,-20,0
729538,249,-26,-9,0
729549,248,-23,2,0
729560,249,-20,10,0
729571,251,-19,13,0
729582,252,-18,17,0
729593,240,-16,15,0
729604,218,-21,9,0
729615,197,-27,7,0
729626,185,-28,5,0
729638,166,-24,7,0
729649,155,-17,3,0
729660,145,-12,1,0
729671,136,-10,-2,0
729682,127,-7,0,0
729693,113,-6,0,0
729704,99,-8,4,0
729715,90,-10,11,0
729726,89,-8,18,0
729737,96,-4,23,0
729748,104,2,27,0
729759,113,2,27,0
729770,119,2,23,0
729781,124,2,23,0
729792,125,-3,23,0
729803,120,-9,22,0
729814,116,-14,22,0
729825,110,-11,22,0
729836,111,-6,19,0
729847,118,0,17,0
729858,127,5,13,0
729869,140,5,11,0
729881,154,5,8,0
729892,167,2,8,0
729903,186,-5,9,0
729914,207,-10,12,0
729925,234,-13,11,0
729936,267,-5,1,0
729947,267,-3,-14,0
729958,261,-10,-28,0
729969,256,-20,-39,0
729980,264,-32,-35,0
729991,269,-32,-26,0
730002,279,-35,-29,0
730013,292,-25,-28,0
730024,301,-15,-33,0
730035,307,-9,-42,0
730046,291,-1,-47,0
730057,275,-16,-57,0
730068,289,-41,-46,0
730079,313,-44,-23,0
730090,334,-42,-15,0
730101,380,-35,-30,0
730112,396,-40,-49,0
730123,391,-33,-60,0
730134,356,-25,-67,0
730145,321,-38,-72,0
730156,301,-47,-64,0
730167,301,-46,-56,0
730178,316,-27,-43,0
730189,342,-10,-47,0
730200,370,-1,-53,0
730211,388,-2,-62,0
730222,411,-14,-79,0
730233,426,-18,-93,0
730244,426,-15,-96,0
730255,412,-15,-95,0
730266,409,-20,-97,0
730277,405,-18,-102,0
730288,404,-20,-105,0
730299,399,-23,-104,0
730310,390,-24,-103,0
730321,384,-23,-99,0
730332,376,-19,-92,0
730343,368,-20,-86,0
730354,360,-20,-77,0
730366,352,-24,-80,0
730377,346,-27,-82,0
730388,343,-27,-81,0
730399,342,-22,-75,0
730410,341,-16,-65,0
730421,338,-3,-53,0
730432,329,2,-48,0
730443,318,1,-50,0
730454,309,-3,-52,0
730465,305,-9,-52,0
730476,299,-12,-54,0
730487,290,-13,-46,0
730498,282,-14,-40,0
730509,277,-12,-29,0
730520,272,-11,-18,0
730531,268,-13,-12,0
730542,266,-14,-6,0
730553,261,-14,-2,0
730564,254,-9,1,0
730575,240,-4,2,0
730586,211,0,9,0
730597,195,1,7,0
730608,176,7,7,0
730619,155,7,2,0
730630,139,8,2,0
730641,127,7,2,0
730652,110,12,3,0
730663,96,9,1,0
730674,88,7,3,0
730685,84,1,2,0
730696,87,0,3,0
730707,85,-4,4,0
730718,88,-5,7,0
730729,90,-6,6,0
730740,91,-6,3,0
730751,83,-2,0,0
730762,79,1,0,0
730773,79,2,1,0
730784,85,4,4,0
730795,90,6,2,0
730806,96,4,2,0
730817,103,1,1,0
730828,105,0,-2,0
730839,111,-3,-1,0
730850,124,0,2,0
730861,136,1,2,0
730872,158,3,3,0
730883,184,7,4,0
730894,213,3,2,0
730905,242,1,1,0
730916,278,-5,-10,0
730927,285,-13,-20,0
730938,288,-17,-27,0
730949,284,-20,-29,0
730960,284,-15,-28,0
730971,284,-14,-32,0
730982,280,-19,-36,0
730993,277,-24,-39,0
731004,276,-34,-40,0
731015,288,-52,-36,0
731026,302,-54,-35,0
731037,303,-49,-40,0
731048,319,-45,-52,0
731059,344,-41,-62,0
731070,360,-33,-73,0
731081,392,-59,-69,0
731092,410,-76,-65,0
731103,422,-80,-67,0
731114,404,-68,-75,0
731125,406,-62,-96,0
731136,420,-55,-114,0
731147,431,-41,-122,0
731158,436,-42,-128,0
731169,447,-64,-126,0
731180,464,-74,-121,0
731191,483,-84,-121,0
731202,483,-86,-125,0
731213,451,-89,-131,0
731224,411,-84,-133,0
731235,373,-69,-126,0
731246,339,-50,-92,0
731257,335,-36,-73,0
731268,329,-24,-58,0
731279,328,-18,-49,0
731290,325,-22,-45,0
731301,324,-33,-51,0
731312,321,-34,-54,0
731323,317,-32,-62,0
731334,307,-26,-63,0
731346,296,-11,-56,0
731357,291,0,-42,0
731368,291,7,-33,0
731379,296,3,-24,0
731390,317,-30,-23,0
731401,326,-43,-29,0
731412,330,-44,-32,0
731423,320,-35,-30,0
731434,305,-24,-21,0
731445,286,-15,-9,0
731456,269,-9,-1,0
731467,258,-3,9,0
731478,253,-3,15,0
731489,254,-1,17,0
731500,252,-1,14,0
731511,251,1,13,0
731522,244,0,5,0
731533,235,-1,1,0
731544,215,1,2,0
731555,163,3,0,0
731566,140,5,1,0
731577,121,7,2,0
731588,102,6,1,0
731599,85,5,2,0
731610,69,2,1,0
731621,64,-5,1,0
731632,64,-11,1,0
731643,66,-12,3,0
731654,64,-2,6,0
731665,60,3,8,0
731677,58,8,11,0
731688,59,8,14,0
731699,62,8,17,0
731710,69,5,19,0
731721,80,1,16,0
731732,96,2,15,0
731743,110,7,17,0
731754,124,5,13,0
731765,139,0,6,0
731776,155,-4,0,0
731787,172,-11,-10,0
731798,185,-21,-18,0
731809,201,-32,-25,0
731820,217,-41,-27,0
731831,239,-47,-26,0
731842,256,-39,-27,0
731853,265,-21,-27,0
731864,275,-12,-27,0
731875,266,-9,-14,0
731886,268,-17,-17,0
731897,273,-25,-27,0
731908,287,-29,-36,0
731919,296,-34,-49,0
731930,312,-41,-55,0
731941,333,-44,-58,0
731952,342,-43,-61,0
731963,346,-49,-63,0
731974,361,-49,-69,0
731985,374,-33,-75,0
731996,378,-12,-87,0
732007,379,-13,-94,0
732018,394,-31,-85,0
732029,419,-40,-80,0
732040,440,-57,-89,0
732051,424,-58,-108,0
732062,404,-61,-128,0
732073,386,-51,-141,0
732084,369,-47,-141,0
732095,369,-59,-130,0
732106,387,-61,-116,0
732117,406,-57,-106,0
732128,421,-63,-99,0
732139,423,-71,-93,0
732150,411,-70,-90,0
732161,398,-76,-86,0
732172,393,-86,-84,0
732183,381,-87,-81,0
732194,362,-66,-65,0
732205,355,-55,-60,0
732216,343,-38,-56,0
732227,330,-19,-48,0
732238,328,-14,-43,0
732249,328,-16,-46,0
732260,327,-21,-48,0
732272,328,-27,-56,0
732283,325,-28,-63,0
732294,319,-29,-64,0
732305,310,-31,-62,0
732316,305,-31,-55,0
732327,301,-28,-41,0
732338,299,-25,-27,0
732349,293,-24,-8,0
732360,284,-17,-2,0
732371,271,-11,0,0
732382,254,-7,1,0
732393,235,-5,1,0
732404,218,-4,1,0
732415,198,-6,0,0
732426,180,-8,0,0
732437,162,-12,-2,0
732448,146,-13,-2,0
732459,129,-9,-2,0
732470,110,-7,-4,0
732481,99,-11,-4,0
732492,90,-11,-6,0
732503,86,-7,-2,0
732514,89,-7,5,0
732525,91,-5,9,0
732536,88,-2,16,0
732547,86,-5,19,0
732558,86,-8,22,0
732569,85,-8,18,0
732580,83,-10,12,0
732591,89,-17,4,0
732602,96,-16,-1,0
732613,101,-14,-5,0
732624,106,-15,-7,0
732635,116,-16,-6,0
732646,126,-17,-2,0
732657,140,-19,3,0
732668,153,-15,8,0
732679,165,-10,4,0
732690,176,-13,3,0
732701,189,-21,4,0
732712,208,-26,9,0
732723,224,-33,5,0
732734,232,-41,-1,0
732745,239,-39,-9,0
732756,241,-35,-15,0
732767,240,-29,-17,0
732778,247,-20,-16,0
732789,252,-16,-19,0
732800,261,-19,-20,0
732811,277,-24,-26,0
732822,288,-32,-35,0
732833,304,-40,-38,0
732844,325,-34,-44,0
732855,326,-29,-45,0
732866,324,-25,-44,0
732877,320,-18,-43,0
732888,329,-22,-45,0
732899,343,-25,-54,0
732910,362,-31,-71,0
732921,382,-38,-90,0
732932,396,-36,-103,0
732943,393,-27,-109,0
732954,390,-29,-107,0
732965,398,-33,-94,0
732976,419,-27,-80,0
732987,437,-18,-78,0
732998,449,-11,-88,0
733009,499,-28,-121,0
733020,504,-42,-133,0
733031,490,-46,-144,0
733042,466,-44,-146,0
733053,446,-34,-138,0
733064,420,-15,-119,0
733075,399,-1,-93,0
733086,384,4,-73,0
733097,366,2,-62,0
733108,349,-11,-60,0
733119,334,-25,-60,0
733130,321,-32,-63,0
733141,317,-31,-66,0
733152,315,-22,-62,0
733163,305,-8,-52,0
733174,292,3,-38,0
733185,292,-4,-34,0
733196,291,-15,-35,0
733207,288,-23,-39,0
733218,283,-29,-43,0
733229,280,-32,-42,0
733240,280,-27,-39,0
733251,278,-18,-29,0
733262,276,-14,-22,0
733273,277,-14,-13,0
733284,278,-11,-6,0
733295,270,-11,-2,0
733306,263,-14,-2,0
733317,252,-15,-1,0
733328,236,-13,-1,0
733339,199,-11,-10,0
733350,186,-10,-10,0
733361,170,-8,-8,0
733372,152,-9,-7,0
733383,137,-13,-4,0
733394,124,-15,-2,0
733405,108,-17,-1,0
733416,92,-19,-1,0
733427,78,-20,-4,0
733438,68,-23,-6,0
733449,63,-19,-3,0
733460,60,-15,3,0
733471,61,-9,8,0
733482,65,-7,14,0
733493,71,-1,19,0
733504,72,1,18,0
733515,77,1,16,0
733526,86,-3,11,0
733537,99,-6,3,0
733548,113,-6,-3,0
733559,130,-8,-5,0
733570,145,-10,-5,0
733581,160,-11,-2,0
733592,172,-14,-3,0
733603,180,-20,-6,0
733614,189,-23,-6,0
733625,195,-26,-6,0
733636,211,-27,-9,0
733647,224,-24,-12,0
733658,238,-25,-23,0
733669,241,-29,-27,0
733680,247,-36,-25,0
733691,259,-36,-24,0
733702,268,-36,-25,0
733713,275,-33,-22,0
733724,283,-31,-26,0
733735,292,-39,-33,0
733746,308,-44,-32,0
733757,319,-41,-35,0
733768,328,-38,-37,0
733779,350,-36,-43,0
733790,366,-35,-48,0
733801,361,-33,-53,0
733812,362,-44,-58,0
733823,333,-63,-66,0
733834,319,-67,-71,0
733845,327,-75,-68,0
733856,357,-60,-61,0
733867,386,-40,-65,0
733878,405,-24,-73,0
733889,430,-24,-88,0
733900,449,-32,-101,0
733911,449,-40,-103,0
733922,444,-46,-104,0
733933,439,-42,-105,0
733944,428,-31,-110,0
733955,418,-25,-112,0
733966,414,-36,-111,0
733977,412,-49,-107,0
733988,386,-69,-109,0
733999,381,-71,-103,0
734010,378,-63,-90,0
734021,372,-52,-77,0
734032,369,-47,-66,0
734043,367,-45,-59,0
734054,361,-51,-53,0
734065,355,-65,-50,0
734076,352,-74,-50,0
734087,343,-77,-52,0
734098,332,-68,-49,0
734109,323,-59,-45,0
734120,314,-43,-40,0
734131,305,-26,-34,0
734142,296,-21,-28,0
734153,285,-27,-27,0
734164,282,-33,-29,0
734175,276,-38,-29,0
734186,268,-47,-30,0
734197,260,-53,-28,0
734208,249,-52,-23,0
734219,237,-50,-13,0
734230,225,-43,-1,0
734241,211,-35,5,0
734252,198,-29,10,0
734263,189,-26,14,0
734274,178,-25,14,0
734285,171,-26,13,0
734296,161,-27,10,0
734307,144,-22,8,0
734318,122,-20,9,0
734330,116,-14,13,0
734340,107,-12,14,0
734351,101,-13,14,0
734362,98,-13,14,0
734373,91,-15,14,0
734384,83,-16,10,0
734395,78,-19,13,0
734406,75,-19,14,0
734417,76,-18,13,0
734428,77,-16,15,0
734439,79,-14,13,0
734450,84,-15,13,0
734461,94,-14,12,0
734472,103,-12,7,0
734483,111,-17,5,0
734494,119,-21,4,0
734505,128,-29,1,0
734516,146,-38,-1,0
734527,163,-38,-1,0
734538,180,-33,-1,0
734549,192,-27,-2,0
734560,197,-23,-1,0
734571,203,-28,-5,0
734582,208,-37,-11,0
734593,216,-42,-14,0
734604,227,-45,-13,0
734615,241,-40,-12,0
734626,256,-37,-9,0
734637,277,-30,-12,0
734648,271,-30,-22,0
734659,274,-34,-27,0
734670,284,-35,-31,0
734681,289,-30,-30,0
734692,297,-28,-36,0
734703,299,-30,-44,0
734714,309,-33,-48,0
734725,316,-41,-53,0
734736,328,-48,-61,0
734747,344,-49,-67,0
734758,358,-49,-75,0
734769,375,-47,-79,0
734780,391,-35,-75,0
734791,398,-23,-74,0
734802,412,-18,-56,0
734813,415,-17,-58,0
734824,418,-21,-69,0
734835,415,-15,-82,0
734846,414,-21,-98,0
734857,420,-22,-104,0
734868,433,-27,-105,0
734879,450,-36,-110,0
734890,461,-45,-110,0
734901,448,-40,-107,0
734912,423,-47,-109,0
734923,398,-53,-105,0
734934,374,-56,-95,0
734945,359,-56,-83,0
734956,350,-48,-72,0
734967,353,-27,-59,0
734978,347,-16,-52,0
734989,343,-18,-52,0
735000,339,-27,-56,0
735011,341,-42,-62,0
735022,343,-53,-68,0
735033,341,-56,-73,0
735044,334,-51,-70,0
735055,325,-43,-63,0
735066,319,-29,-53,0
735077,311,-18,-44,0
735088,303,-15,-37,0
735099,296,-18,-33,0
735110,288,-27,-31,0
735121,279,-38,-31,0
735132,259,-41,-27,0
735143,251,-37,-22,0
735154,241,-29,-13,0
735165,229,-19,-4,0
735176,215,-9,2,0
735187,201,-3,10,0
735198,189,-1,14,0
735209,171,-7,16,0
735220,157,-15,16,0
735231,148,-20,13,0
735242,139,-18,13,0
735253,130,-12,13,0
735264,126,-7,15,0
735275,127,-6,19,0
735286,133,-3,20,0
735297,145,0,16,0
735308,148,-1,14,0
735319,146,-1,12,0
735330,139,1,10,0
735341,131,0,10,0
735352,127,-11,9,0
735363,125,-15,9,0
735374,124,-19,8,0
735385,119,-18,5,0
735396,119,-19,2,0
735407,123,-16,3,0
735418,126,-12,6,0
735429,129,-8,11,0
735440,132,-2,18,0
735451,139,0,25,0
735462,176,-8,21,0
735473,193,-5,15,0
735485,203,-1,7,0
735496,205,0,2,0
735507,212,-8,-1,0
735518,225,-16,1,0
735529,238,-23,4,0
735540,237,-14,9,0
735551,227,-6,3,0
735562,223,-3,0,0
735573,224,-1,-5,0
735584,233,-11,-11,0
735595,252,-23,-19,0
735606,290,-35,-37,0
735617,300,-30,-40,0
735628,298,-27,-45,0
735639,287,-26,-48,0
735650,276,-24,-46,0
735661,267,-24,-41,0
735672,275,-22,-34,0
735683,295,-14,-30,0
735694,314,-9,-31,0
735705,339,-7,-36,0
735716,377,-19,-51,0
735727,385,-29,-66,0
735738,392,-52,-85,0
735749,396,-63,-96,0
735760,384,-58,-94,0
735771,371,-32,-86,0
735782,388,-11,-78,0
735793,411,-3,-83,0
735804,433,0,-92,0
735815,451,-8,-107,0
735826,462,-25,-120,0
735837,462,-34,-123,0
735848,443,-24,-121,0
735859,416,-21,-109,0
735870,405,-20,-89,0
735881,393,-18,-74,0
735892,384,-19,-66,0
735903,380,-25,-62,0
735914,375,-31,-63,0
735925,365,-26,-61,0
735936,327,-3,-57,0
735947,316,3,-50,0
735958,312,5,-44,0
735969,311,0,-42,0
735980,309,-11,-45,0
735991,312,-24,-51,0
736002,316,-31,-54,0
736013,320,-35,-57,0
736024,324,-37,-50,0
736035,323,-33,-41,0
736046,317,-24,-34,0
736057,303,-14,-30,0
736068,291,-7,-26,0
736079,279,-2,-23,0
736090,266,0,-20,0
736101,250,-14,-25,0
736112,248,-19,-28,0
736123,244,-21,-25,0
736134,235,-17,-21,0
736145,227,-15,-15,0
736156,219,-13,-8,0
736167,209,-14,-3,0
736178,200,-16,-1,0
736189,190,-13,1,0
736200,180,-11,3,0
736211,167,-6,6,0
736222,155,-4,9,0
736233,140,-3,12,0
736244,126,-6,13,0
736255,115,-7,14,0
736266,102,-6,15,0
736277,96,-5,16,0
736288,93,-2,20,0
736299,92,-4,21,0
736310,90,-5,23,0
736321,89,-4,24,0
736332,90,-6,23,0
736343,92,-7,16,0
736354,97,-12,10,0
736365,105,-12,4,0
736376,110,-8,2,0
736387,122,-9,0,0
736398,135,-9,2,0
736409,147,-7,6,0
736420,161,-14,8,0
736431,168,-19,11,0
736442,180,-22,11,0
736453,191,-20,14,0
736464,204,-19,15,0
736475,223,-19,17,0
736486,242,-20,13,0
736497,257,-22,8,0
736508,265,-26,3,0
736519,265,-26,-2,0
736530,263,-26,-9,0
736541,258,-31,-14,0
736552,251,-36,-14,0
736563,248,-44,-16,0
736574,255,-44,-7,0
736585,296,-36,-4,0
736596,324,-27,-7,0
736607,350,-21,-15,0
736618,364,-16,-25,0
736629,372,-22,-36,0
736640,385,-40,-42,0
736651,380,-37,-43,0
736662,361,-30,-46,0
736673,350,-22,-45,0
736684,350,-8,-38,0
736695,362,-6,-37,0
736706,371,-5,-35,0
736717,381,-17,-41,0
736728,398,-41,-50,0
736739,403,-53,-56,0
736750,382,-68,-93,0
736761,385,-75,-105,0
736772,405,-76,-102,0
736783,416,-68,-98,0
736794,414,-65,-94,0
736805,424,-73,-86,0
736816,428,-66,-76,0
736827,413,-54,-74,0
736838,399,-63,-75,0
736849,389,-68,-69,0
736860,378,-72,-64,0
736871,373,-83,-58,0
736882,369,-80,-49,0
736893,361,-76,-41,0
736904,354,-68,-31,0
736915,341,-46,-11,0
736926,331,-37,-11,0
736937,321,-29,-16,0
736948,310,-30,-22,0
736959,298,-29,-31,0
736970,290,-35,-39,0
736981,285,-42,-45,0
736992,279,-48,-50,0
737003,271,-46,-49,0
737014,262,-49,-41,0
737025,254,-46,-31,0
737036,247,-43,-21,0
737047,240,-43,-9,0
737058,235,-41,-1,0
737069,229,-38,6,0
737080,217,-30,16,0
737091,212,-35,15,0
737102,207,-36,15,0
737113,195,-36,13,0
737124,180,-38,13,0
737135,165,-36,11,0
737146,150,-34,13,0
737157,137,-31,17,0
737168,129,-29,22,0
737179,129,-28,25,0
737191,126,-19,26,0
737202,122,-12,26,0
737213,115,-11,22,0
737224,106,-12,21,0
737235,103,-15,21,0
737246,97,-18,21,0
737257,96,-19,20,0
737268,99,-19,21,0
737279,101,-19,21,0
737290,109,-18,20,0
737301,114,-20,17,0
737312,119,-23,18,0
737323,124,-21,19,0
737334,130,-20,19,0
737345,141,-22,21,0
737356,152,-18,21,0
737367,164,-17,19,0
737378,175,-15,15,0
737389,194,-26,1,0
737400,204,-34,-1,0
737411,212,-39,-6,0
737422,215,-39,-9,0
737433,218,-34,-3,0
737444,218,-28,1,0
737455,219,-25,4,0
737466,223,-24,8,0
737478,227,-19,9,0
737489,234,-24,5,0
737500,249,-28,1,0
737511,261,-25,-5,0
737522,259,-28,-13,0
737533,258,-61,-28,0
737544,257,-59,-24,0
737555,257,-54,-20,0
737566,262,-51,-14,0
737577,286,-49,-7,0
737588,308,-41,-11,0
737599,320,-37,-21,0
737610,326,-51,-42,0
737621,346,-67,-59,0
737632,364,-64,-62,0
737643,373,-48,-58,0
737654,382,-26,-52,0
737665,384,-14,-48,0
737676,386,-8,-47,0
737687,385,0,-49,0
737698,409,-15,-67,0
737709,422,-25,-78,0
737720,427,-36,-88,0
737731,424,-41,-95,0
737742,415,-38,-94,0
737753,410,-32,-83,0
737764,401,-24,-72,0
737775,392,-21,-61,0
737786,388,-19,-52,0
737797,383,-23,-48,0
737808,376,-36,-46,0
737819,368,-49,-51,0
737830,356,-61,-55,0
737841,347,-65,-56,0
737852,333,-62,-59,0
737863,332,-48,-49,0
737874,326,-34,-42,0
737885,322,-28,-37,0
737896,324,-25,-33,0
737907,328,-19,-30,0
737918,332,-17,-32,0
737929,334,-20,-36,0
737940,332,-24,-41,0
737951,330,-32,-46,0
737962,327,-37,-49,0
737973,322,-35,-48,0
737984,315,-27,-44,0
737995,307,-23,-37,0
738006,301,-18,-31,0
738017,296,-12,-25,0
738028,287,-16,-16,0
738039,282,-19,-12,0
738050,278,-22,-10,0
738061,276,-22,-8,0
738072,272,-24,-6,0
738083,265,-27,-4,0
738094,264,-32,-2,0
738105,263,-30,4,0
738116,254,-20,10,0
738127,236,-10,16,0
738138,219,-10,19,0
738149,207,-11,23,0
738160,196,-15,26,0
738171,192,-24,26,0
738182,190,-27,22,0
738193,189,-19,18,0
738204,189,-10,20,0
738215,183,-1,24,0
738226,172,4,28,0
738237,161,1,31,0
738248,151,-11,29,0
738259,144,-26,27,0
738270,130,-32,26,0
738281,115,-29,26,0
738292,95,-22,22,0
738303,84,-16,24,0
738314,79,-9,30,0
738325,83,-3,40,0
738336,96,-4,43,0
738347,110,-5,50,0
738358,120,-4,44,0
738369,115,-4,36,0
738380,110,-8,28,0
738391,102,-13,20,0
738402,105,-22,15,0
738413,113,-29,13,0
738424,128,-28,16,0
738435,147,-21,20,0
738446,164,-15,23,0
738457,174,-10,25,0
738468,174,-5,22,0
738479,178,-8,22,0
738490,188,-9,23,0
738501,198,-12,27,0
738512,251,-8,31,0
738523,264,1,21,0
738534,266,4,3,0
738545,260,0,-17,0
738556,251,-16,-38,0
738567,242,-32,-51,0
738578,242,-40,-50,0
738589,250,-42,-36,0
738600,268,-25,-14,0
738611,287,-1,1,0
738622,300,14,9,0
738633,307,17,8,0
738644,307,5,0,0
738655,303,-17,-16,0
738666,300,-32,-30,0
738677,323,-40,-27,0
738688,330,-10,-19,0
738699,329,11,-17,0
738710,344,19,-25,0
738721,373,18,-29,0
738732,392,16,-40,0
738743,401,14,-55,0
738755,419,-15,-75,0
738765,452,-46,-86,0
738776,458,-37,-95,0
738787,420,-25,-107,0
738798,389,-25,-106,0
738809,381,-28,-91,0
738820,390,-44,-76,0
738831,413,-32,-63,0
738842,452,-9,-62,0
738853,454,0,-60,0
738864,444,0,-64,0
738875,429,-9,-62,0
738886,400,-14,-54,0
738897,366,-16,-50,0
738908,340,-24,-47,0
738919,326,-30,-36,0
738930,320,-27,-28,0
738941,313,-14,-22,0
738952,308,-11,-28,0
738963,309,-22,-33,0
738974,311,-34,-45,0
738985,315,-39,-53,0
738996,321,-39,-55,0
739007,320,-29,-47,0
739018,319,-23,-40,0
739029,315,-19,-34,0
739040,306,-19,-27,0
739051,301,-24,-21,0
739062,296,-28,-20,0
739073,299,-38,-21,0
739084,302,-42,-23,0
739095,298,-41,-23,0
739106,290,-38,-20,0
739117,282,-35,-20,0
739128,275,-35,-15,0
739139,267,-34,-11,0
739150,255,-33,-8,0
739161,243,-34,-3,0
739172,204,-31,10,0
739183,190,-30,15,0
739194,172,-23,21,0
739205,158,-20,25,0
739216,152,-24,26,0
739227,145,-23,32,0
739238,137,-19,37,0
739249,134,-20,38,0
739260,134,-23,39,0
739271,128,-22,39,0
739282,123,-15,41,0
739293,115,-9,41,0
739304,107,-7,39,0
739315,98,-7,38,0
739326,97,-13,37,0
739337,112,-25,37,0
739348,122,-28,34,0
739359,125,-26,29,0
739370,128,-22,23,0
739381,123,-17,19,0
739392,122,-15,16,0
739403,121,-12,13,0
739414,118,-10,16,0
739425,117,-13,19,0
739436,127,-21,23,0
739447,138,-25,26,0
739458,153,-21,25,0
739469,157,-12,18,0
739480,162,-8,13,0
739491,176,-11,9,0
739502,188,-28,4,0
739513,206,-44,1,0
739524,220,-49,-3,0
739535,230,-39,-11,0
739546,242,-20,-17,0
739557,246,-3,-22,0
739568,246,9,-25,0
739579,251,5,-29,0
739590,264,-7,-28,0
739601,283,-26,-29,0
739612,315,-58,-33,0
739623,325,-51,-31,0
739634,313,-36,-40,0
739645,300,-35,-50,0
739656,286,-30,-42,0
739667,282,-31,-37,0
739678,284,-30,-30,0
739689,309,-48,-37,0
739700,330,-43,-43,0
739711,353,-20,-52,0
739722,369,-7,-61,0
739733,369,-1,-68,0
739744,362,-12,-77,0
739755,357,-41,-73,0
739766,343,-48,-60,0
739777,335,-65,-62,0
739788,355,-82,-63,0
739799,377,-45,-62,0
739810,400,-7,-72,0
739821,447,20,-94,0
739832,473,-11,-102,0
739843,483,-43,-102,0
739854,466,-52,-98,0
739865,452,-44,-91,0
739876,436,-25,-82,0
739887,430,-31,-71,0
739898,425,-35,-59,0
739909,404,-34,-53,0
739920,385,-45,-58,0
739931,363,-59,-62,0
739942,342,-67,-65,0
739953,327,-66,-65,0
739964,317,-60,-62,0
739975,307,-48,-54,0
739986,296,-26,-38,0
739997,288,-11,-33,0
740008,282,-13,-37,0
740019,287,-23,-41,0
740030,289,-29,-47,0
740041,293,-38,-47,0
740052,302,-44,-42,0
740063,302,-40,-35,0
740074,299,-38,-26,0
740085,294,-36,-19,0
740096,292,-36,-16,0
740107,288,-37,-13,0
740118,280,-35,-14,0
740129,266,-33,-11,0
740140,244,-30,-3,0
740151,233,-22,1,0
740162,225,-22,4,0
740173,222,-24,7,0
740184,224,-26,12,0
740195,227,-28,14,0
740206,227,-31,15,0
740217,222,-33,14,0
740228,217,-34,14,0
740239,209,-29,15,0
740250,198,-24,13,0
740261,185,-19,12,0
740272,169,-18,11,0
740283,152,-20,9,0
740294,134,-19,12,0
740305,104,-20,13,0
740316,87,-20,15,0
740327,77,-21,15,0
740338,73,-16,21,0
740349,77,-13,26,0
740360,82,-13,26,0
740371,90,-14,28,0
740382,92,-15,30,0
740393,93,-14,30,0
740404,97,-14,27,0
740415,102,-14,23,0
740426,109,-9,20,0
740437,117,-7,14,0
740448,130,-13,9,0
740459,143,-20,4,0
740470,175,-38,-1,0
740481,183,-35,-5,0
740492,187,-33,-4,0
740503,190,-29,-3,0
740514,194,-29,-1,0
740525,209,-28,3,0
740537,230,-22,5,0
740548,243,-16,4,0
740559,255,-11,-1,0
740570,263,-12,-7,0
740581,259,-18,-13,0
740592,253,-35,-21,0
740603,248,-47,-25,0
740614,242,-55,-24,0
740625,251,-40,-28,0
740636,267,-28,-30,0
740647,288,-11,-31,0
740658,299,-2,-34,0
740669,304,-14,-46,0
740680,322,-55,-58,0
740691,342,-71,-50,0
740702,363,-55,-44,0
740713,379,-38,-48,0
740724,390,-17,-45,0
740735,395,0,-50,0
740746,394,-7,-57,0
740757,386,-22,-65,0
740768,383,-29,-72,0
740779,367,-15,-71,0
740790,378,-9,-71,0
740801,389,-12,-70,0
740812,412,-17,-72,0
740823,433,-20,-76,0
740834,449,-22,-79,0
740845,453,-28,-84,0
740856,457,-44,-91,0
740867,452,-51,-92,0
740878,442,-58,-92,0
740889,427,-59,-87,0
740900,408,-51,-78,0
740911,387,-40,-66,0
740922,368,-26,-54,0
740933,349,-15,-45,0
740944,327,-2,-32,0
740955,320,-6,-38,0
740966,316,-16,-44,0
740977,310,-32,-54,0
740988,312,-49,-59,0
740999,317,-52,-57,0
741010,315,-45,-52,0
741021,312,-38,-42,0
741032,303,-28,-31,0
741043,294,-23,-22,0
741054,287,-22,-21,0
741065,281,-24,-18,0
741076,277,-28,-18,0
741087,278,-36,-20,0
741098,278,-36,-21,0
741109,257,-36,-18,0
741120,246,-32,-15,0
741131,230,-28,-8,0
741142,217,-24,-1,0
741153,201,-25,2,0
741164,190,-28,9,0
741175,182,-30,12,0
741186,180,-30,16,0
741197,181,-22,20,0
741208,182,-16,22,0
741219,181,-8,23,0
741230,179,-7,23,0
741241,173,-8,19,0
741252,171,-8,13,0
741263,163,-7,9,0
741274,140,-6,8,0
741285,128,-1,10,0
741296,115,0,15,0
741307,104,-1,19,0
741318,97,-3,22,0
741329,93,-5,24,0
741340,91,-3,23,0
741351,91,-1,17,0
741362,92,0,12,0
741373,93,1,7,0
741384,100,-1,6,0
741395,110,-2,10,0
741406,120,-2,14,0
741417,136,-5,16,0
741428,156,-7,15,0
741439,181,-1,11,0
741450,190,-2,5,0
741461,197,-12,4,0
741472,209,-17,10,0
741483,218,-15,17,0
741494,216,-10,21,0
741505,215,-5,19,0
741516,215,2,14,0
741527,215,9,5,0
741538,218,7,-1,0
741549,228,-3,-8,0
741560,231,-18,-10,0
741571,245,-53,-17,0
741582,270,-69,-14,0
741593,285,-61,-10,0
741604,303,-24,-28,0
741615,312,-4,-31,0
741626,320,5,-35,0
741637,327,-8,-34,0
741648,331,-28,-24,0
741659,330,-53,-21,0
741670,334,-71,-16,0
741681,336,-57,-13,0
741692,344,-35,-26,0
741703,364,-13,-44,0
741714,387,-6,-58,0
741725,398,-7,-69,0
741736,407,-22,-81,0
741747,423,-43,-84,0
741758,439,-47,-71,0
741770,453,-28,-79,0
741781,446,-27,-87,0
741792,436,-32,-93,0
741803,433,-30,-92,0
741814,429,-28,-89,0
741825,423,-23,-80,0
741836,416,-17,-67,0
741847,407,-20,-57,0
741858,391,-18,-47,0
741869,369,-15,-41,0
741881,349,-10,-36,0
741892,329,1,-32,0
741903,308,8,-26,0
741914,296,4,-26,0
741925,294,-5,-30,0
741936,297,-13,-28,0
741947,302,-20,-32,0
741958,307,-25,-36,0
741969,311,-21,-38,0
741980,313,-14,-37,0
741991,309,-7,-38,0
742002,304,5,-34,0
742013,302,18,-28,0
742024,297,22,-22,0
742035,294,12,-20,0
742046,289,-2,-20,0
742057,289,-13,-18,0
742068,276,-8,-3,0
742079,262,0,0,0
742090,253,6,6,0
742101,241,12,10,0
742112,225,21,14,0
742123,198,28,14,0
742134,175,17,13,0
742145,158,5,8,0
742156,152,-3,2,0
742167,149,-7,-1,0
742178,147,-6,-3,0
742189,143,-3,-1,0
742200,145,3,-1,0
742211,137,14,-1,0
742222,125,21,1,0
742233,104,10,9,0
742244,98,8,11,0
742255,87,6,13,0
742266,81,1,12,0
742277,90,-2,9,0
742288,100,-6,2,0
742299,108,-13,-3,0
742310,124,-19,-5,0
742321,139,-22,-1,0
742332,151,-15,4,0
742343,162,-8,11,0
742354,168,-2,18,0
742365,173,-1,19,0
742376,180,-1,15,0
742387,189,-2,14,0
742398,198,-13,9,0
742409,208,-19,11,0
742420,216,-14,14,0
742431,215,-11,14,0
742442,218,-15,9,0
742453,221,-16,8,0
742464,223,-8,7,0
742475,222,-11,3,0
742486,221,-15,4,0
742497,224,-10,2,0
742508,236,-5,-1,0
742519,255,-3,-10,0
742530,272,-7,-22,0
742541,293,-17,-33,0
742552,314,-24,-44,0
742563,340,-57,-46,0
742574,349,-57,-41,0
742585,355,-42,-24,0
742596,354,-14,-10,0
742607,357,4,-4,0
742618,362,14,-10,0
742629,383,4,-25,0
742640,419,-15,-45,0
742651,455,-28,-60,0
742662,484,-28,-75,0
742673,498,-19,-83,0
742684,493,-5,-84,0
742695,476,1,-77,0
742706,455,1,-67,0
742717,448,-5,-64,0
742728,430,-18,-68,0
742739,415,-23,-68,0
742750,397,-36,-66,0
742761,381,-43,-63,0
742772,365,-48,-56,0
742783,346,-42,-45,0
742794,331,-30,-35,0
742805,326,-21,-23,0
742816,324,-8,-13,0
742827,326,1,-11,0
742838,330,0,-10,0
742849,330,0,-14,0
742860,319,-4,-20,0
742871,305,-7,-27,0
742882,298,-39,-24,0
742893,297,-44,-22,0
742904,300,-45,-22,0
742915,307,-50,-28,0
742926,314,-40,-28,0
742937,314,-27,-31,0
742948,310,-19,-25,0
742959,298,-18,-17,0
742970,278,-27,-2,0
742981,264,-39,6,0
742992,253,-42,10,0
743003,238,-48,8,0
743014,223,-57,2,0
743025,209,-55,-3,0
743036,191,-49,-7,0
743047,143,-31,-14,0
743058,109,-17,-15,0
743069,73,-3,-5,0
743080,46,0,4,0
743091,34,2,11,0
743102,36,-1,12,0
743113,46,-3,9,0
743124,58,-13,9,0
743135,75,-15,5,0
743146,94,-17,3,0
743157,105,-11,3,0
743168,104,-2,5,0
743179,94,1,11,0
743190,86,-3,16,0
743201,81,-15,11,0
743212,111,-38,1,0
743223,131,-47,-3,0
743234,158,-38,-3,0
743245,171,-29,-3,0
743256,177,-22,-1,0
743267,180,-20,-1,0
743278,187,-28,1,0
743289,194,-31,2,0
743301,196,-26,3,0
743312,196,-27,-1,0
743323,202,-27,-6,0
743334,212,-31,-11,0
743345,223,-40,-12,0
743356,265,-62,-19,0
743367,286,-58,-13,0
743378,305,-51,-16,0
743389,316,-47,-20,0
743400,319,-44,-27,0
743411,317,-54,-40,0
743422,308,-78,-44,0
743433,305,-89,-43,0
743444,295,-93,-51,0
743455,300,-89,-54,0
743466,321,-68,-52,0
743477,337,-59,-52,0
743488,360,-54,-45,0
743499,383,-52,-50,0
743510,403,-50,-57,0
743521,417,-49,-52,0
743532,417,-66,-50,0
743543,412,-75,-55,0
743554,405,-71,-58,0
743565,402,-61,-59,0
743576,406,-42,-59,0
743587,415,-23,-59,0
743598,421,-12,-64,0
743609,425,-13,-73,0
743620,423,-14,-79,0
743631,415,-25,-82,0
743642,401,-42,-82,0
743653,390,-57,-81,0
743664,374,-64,-77,0
743675,358,-65,-70,0
743686,342,-67,-53,0
743697,338,-65,-46,0
743708,334,-62,-44,0
743719,328,-58,-40,0
743731,319,-50,-35,0
743741,310,-40,-30,0
743752,300,-34,-24,0
743763,290,-33,-20,0
743774,286,-38,-19,0
743785,284,-46,-25,0
743796,288,-59,-28,0
743807,292,-65,-31,0
743818,292,-69,-30,0
743829,294,-67,-27,0
743840,288,-58,-22,0
743851,265,-42,-7,0
743862,255,-41,-2,0
743873,241,-36,1,0
743884,230,-35,4,0
743895,218,-36,6,0
743906,212,-37,8,0
743917,209,-40,10,0
743928,203,-40,12,0
743939,187,-37,14,0
743950,161,-32,14,0
743961,142,-23,18,0
743972,131,-13,24,0
743983,123,-9,25,0
743994,116,-7,23,0
744005,112,-8,23,0
744016,85,-1,22,0
744027,69,-1,18,0
744038,58,-2,19,0
744049,51,-4,17,0
744060,54,-2,14,0
744071,58,-1,14,0
744082,64,-4,14,0
744093,71,-6,13,0
744104,82,-12,12,0
744115,96,-21,13,0
744126,118,-31,14,0
744137,136,-32,14,0
744148,149,-33,12,0
744159,160,-34,5,0
744170,174,-41,-4,0
744181,201,-54,-15,0
744192,218,-57,-16,0
744203,238,-57,-14,0
744214,255,-50,-10,0
744225,271,-40,-5,0
744236,276,-30,-2,0
744247,276,-29,-2,0
744258,272,-29,-1,0
744269,259,-27,-2,0
744280,251,-30,-7,0
744291,247,-40,-9,0
744302,254,-46,-13,0
744313,270,-56,-14,0
744324,292,-63,-8,0
744335,319,-68,-11,0
744346,360,-35,-23,0
744357,380,-36,-42,0
744368,386,-40,-55,0
744379,378,-45,-65,0
744390,374,-74,-69,0
744401,377,-90,-59,0
744412,381,-77,-50,0
744423,385,-56,-43,0
744434,392,-26,-34,0
744445,406,-18,-37,0
744456,423,-11,-48,0
744467,435,-20,-66,0
744478,435,-49,-89,0
744489,428,-76,-104,0
744500,414,-79,-110,0
744511,410,-61,-89,0
744522,397,-38,-62,0
744533,382,-22,-41,0
744544,365,-19,-34,0
744555,356,-26,-38,0
744566,354,-36,-52,0
744577,352,-48,-69,0
744588,357,-62,-79,0
744599,369,-66,-77,0
744610,367,-61,-69,0
744621,353,-51,-59,0
744632,342,-41,-39,0
744643,326,-28,-26,0
744654,308,-24,-20,0
744665,285,-29,-30,0
744676,278,-33,-37,0
744687,274,-38,-46,0
744698,276,-48,-52,0
744709,277,-50,-48,0
744720,274,-50,-41,0
744731,269,-47,-29,0
744742,258,-41,-18,0
744753,244,-36,-10,0
744764,230,-35,-3,0
744775,217,-31,3,0
744786,208,-32,8,0
744797,203,-29,8,0
744808,197,-27,5,0
744819,193,-27,3,0
744830,192,-24,4,0
744841,189,-23,4,0
744852,186,-26,4,0
744863,179,-29,3,0
744874,174,-29,4,0
744885,164,-30,7,0
744896,159,-32,12,0
744907,159,-32,17,0
744918,151,-22,22,0
744929,139,-11,25,0
744940,127,-4,22,0
744951,120,-4,18,0
744962,114,-6,13,0
744973,112,-10,12,0
744984,112,-14,8,0
744995,111,-20,2,0
745006,111,-19,1,0
745017,107,-17,2,0
745028,107,-14,5,0
745039,108,-10,8,0
745050,115,-16,12,0
745061,123,-22,13,0
745072,136,-30,9,0
745083,149,-33,3,0
745094,167,-40,-1,0
745105,186,-36,-5,0
745116,198,-27,-5,0
745127,211,-28,-1,0
745138,214,-28,4,0
745149,209,-33,7,0
745160,215,-50,2,0
745171,229,-50,0,0
745182,248,-47,-7,0
745193,266,-38,-15,0
745204,284,-31,-22,0
745215,299,-32,-24,0
745226,295,-40,-27,0
745237,292,-55,-27,0
745248,292,-60,-26,0
745259,301,-62,-22,0
745270,329,-54,-25,0
745281,355,-36,-32,0
745292,388,-20,-39,0
745303,413,-18,-50,0
745314,416,-22,-57,0
745325,385,-57,-68,0
745336,360,-65,-71,0
745347,349,-64,-68,0
745359,361,-56,-63,0
745370,383,-43,-55,0
745381,407,-35,-51,0
745392,418,-49,-56,0
745403,437,-70,-66,0
745414,450,-91,-77,0
745425,453,-110,-91,0
745436,445,-119,-102,0
745447,409,-112,-107,0
745458,369,-103,-103,0
745469,321,-67,-62,0
745480,315,-62,-46,0
745491,320,-59,-35,0
745502,327,-56,-27,0
745513,332,-57,-28,0
745524,337,-65,-30,0
745535,339,-70,-36,0
745546,336,-71,-39,0
745557,332,-71,-42,0
745568,324,-66,-43,0
745579,315,-60,-41,0
745590,305,-55,-42,0
745601,298,-45,-43,0
745612,291,-37,-41,0
745623,288,-34,-39,0
745634,284,-37,-31,0
745645,283,-42,-25,0
745656,282,-47,-19,0
745667,279,-51,-12,0
745678,272,-49,-5,0
745689,263,-44,0,0
745700,253,-37,5,0
745711,243,-28,7,0
745722,231,-20,10,0
745733,215,-16,13,0
745744,204,-20,8,0
745755,194,-24,2,0
745766,184,-27,-2,0
745777,172,-29,-5,0
745788,163,-28,-5,0
745799,144,-20,5,0
745810,132,-18,8,0
745821,127,-24,11,0
745832,118,-23,13,0
745843,104,-23,13,0
745854,93,-24,11,0
745865,91,-24,6,0
745876,96,-23,3,0
745887,106,-19,5,0
745898,117,-10,4,0
745909,128,-4,7,0
745920,138,1,9,0
745931,145,4,4,0
745942,150,-2,1,0
745953,156,-12,-2,0
745964,167,-20,-6,0
745976,176,-20,-7,0
745987,186,-16,-6,0
745998,194,-12,-7,0
746009,199,-17,-7,0
746020,200,-21,-2,0
746031,199,-24,1,0
746042,200,-29,6,0
746053,203,-33,10,0
746064,208,-38,14,0
746075,211,-39,11,0
746086,218,-36,10,0
746097,224,-33,5,0
746108,236,-38,-4,0
746119,238,-33,-8,0
746130,244,-33,-10,0
746141,251,-35,-10,0
746152,261,-41,-11,0
746163,277,-41,-19,0
746174,295,-50,-36,0
746185,315,-58,-47,0
746196,320,-58,-55,0
746207,326,-54,-62,0
746218,337,-34,-61,0
746229,346,-14,-52,0
746240,362,1,-44,0
746251,379,20,-42,0
746262,393,29,-41,0
746273,415,-6,-58,0
746284,433,-45,-64,0
746295,448,-76,-67,0
746306,454,-80,-66,0
746317,448,-65,-67,0
746328,456,-39,-55,0
746339,456,-14,-43,0
746350,441,-11,-37,0
746361,426,-26,-36,0
746372,409,-54,-40,0
746383,392,-67,-43,0
746394,365,-73,-48,0
746405,342,-68,-53,0
746416,327,-61,-50,0
746427,317,-46,-44,0
746438,291,-33,-41,0
746449,292,-40,-40,0
746460,298,-44,-40,0
746471,305,-50,-37,0
746482,312,-53,-33,0
746493,310,-48,-26,0
746504,311,-42,-20,0
746515,307,-31,-13,0
746526,302,-24,-15,0
746537,298,-24,-16,0
746548,291,-25,-20,0
746559,283,-32,-26,0
746570,277,-37,-31,0
746581,275,-39,-31,0
746592,271,-29,-24,0
746603,269,-22,-10,0
746614,268,-21,-4,0
746625,271,-30,-7,0
746636,275,-38,-8,0
746647,272,-42,-9,0
746658,265,-39,-9,0
746669,254,-34,-5,0
746680,241,-25,1,0
746691,224,-18,8,0
746702,214,-15,17,0
746713,205,-9,26,0
746724,194,-6,30,0
746735,179,-5,31,0
746746,172,-17,23,0
746757,156,-16,17,0
746768,143,-7,17,0
746779,135,-6,20,0
746790,131,-4,18,0
746801,131,-5,11,0
746812,130,-4,7,0
746823,125,-6,2,0
746834,114,-2,-2,0
746845,105,-4,-7,0
746856,102,-9,-8,0
746867,102,-13,-6,0
746878,104,-18,-1,0
746889,103,-14,3,0
746900,102,-15,10,0
746911,106,-15,16,0
746922,117,-16,23,0
746933,129,-15,25,0
746944,136,-10,23,0
746955,145,-10,21,0
746966,157,-9,17,0
746977,173,-9,16,0
746988,192,-14,14,0
746999,209,-15,10,0
747010,219,-28,6,0
747021,225,-33,3,0
747032,228,-35,1,0
747043,235,-39,-3,0
747054,241,-38,-7,0
747066,260,-33,-11,0
747077,278,-31,-5,0
747088,292,-28,-3,0
747099,309,-30,1,0
747110,319,-31,1,0
747121,328,-31,-5,0
747132,329,-24,-15,0
747143,329,-20,-29,0
747154,320,-17,-41,0
747165,317,-26,-49,0
747176,325,-40,-49,0
747187,346,-63,-46,0
747198,375,-79,-34,0
747209,399,-69,-23,0
747220,405,-52,-19,0
747231,391,-15,-32,0
747242,400,-28,-37,0
747253,387,-33,-56,0
747264,391,-44,-66,0
747275,406,-55,-69,0
747286,413,-43,-67,0
747297,421,-36,-64,0
747308,432,-39,-61,0
747319,438,-52,-61,0
747330,428,-45,-57,0
747341,402,-37,-56,0
747352,376,-36,-51,0
747363,351,-36,-46,0
747374,341,-40,-45,0
747385,341,-43,-39,0
747396,327,-39,-37,0
747407,321,-35,-35,0
747418,319,-33,-33,0
747429,314,-33,-33,0
747440,312,-41,-41,0
747451,309,-55,-48,0
747462,308,-63,-52,0
747473,304,-64,-48,0
747484,303,-63,-43,0
747495,308,-59,-35,0
747506,309,-44,-29,0
747517,312,-34,-21,0
747528,311,-32,-18,0
747539,311,-34,-22,0
747550,320,-43,-31,0
747561,322,-51,-33,0
747572,317,-51,-27,0
747583,309,-46,-18,0
747594,304,-41,-9,0
747605,304,-32,2,0
747616,306,-28,15,0
747627,303,-21,19,0
747638,280,-15,16,0
747649,258,-15,8,0
747660,255,-31,1,0
747671,269,-43,1,0
747682,274,-39,2,0
747693,270,-41,0,0
747704,260,-43,-4,0
747715,250,-41,1,0
747726,234,-39,16,0
747737,221,-22,16,0
747748,210,-27,5,0
747759,226,-34,9,0
747770,235,-35,5,0
747781,233,-26,-3,0
747792,214,-14,-15,0
747803,191,-11,-20,0
747814,176,-17,-9,0
747825,166,-19,5,0
747836,165,-29,26,0
747847,167,-29,38,0
747858,162,-32,26,0
747869,148,-34,11,0
747880,139,-35,11,0
747891,102,-42,22,0
747902,104,-40,34,0
747913,112,-27,50,0
747924,110,-21,48,0
747935,104,-16,44,0
747946,113,-11,45,0
747957,118,-7,32,0
747968,118,-21,16,0
747979,107,-26,16,0
747990,103,-36,32,0
748001,112,-38,46,0
748012,154,-32,60,0
748023,271,-46,75,0
748034,381,8,29,0
748045,361,76,-68,0
748056,356,80,231,0
748067,465,68,224,0
748078,450,45,79,0
748089,396,27,21,0
748100,348,12,-1,0
748111,311,-1,0,0
748122,291,-20,-10,0
748133,275,-28,-21,0
748144,259,-20,-5,0
748155,246,-6,24,0
748166,226,5,48,0
748177,206,15,61,0
748188,193,8,64,0
748199,189,6,66,0
748210,194,11,71,0
748221,210,5,59,0
748232,235,9,57,0
748243,257,14,56,0
748254,280,19,44,0
748265,290,33,41,0
748276,282,43,50,0
748287,270,38,51,0
748298,253,27,41,0
748309,245,23,45,0
748320,243,22,51,0
748331,244,20,54,0
748342,247,19,55,0
748353,241,24,58,0
748364,240,27,60,0
748375,250,47,74,0
748386,253,48,81,0
748397,250,46,88,0
748408,246,46,90,0
748419,238,43,89,0
748430,238,42,95,0
748441,242,37,94,0
748452,244,38,91,0
748463,245,32,93,0
748474,245,32,94,0
748485,241,32,94,0
748496,236,27,95,0
748507,233,20,94,0
748518,227,15,89,0
748529,223,8,87,0
748540,233,17,89,0
748551,265,17,78,0
748562,308,3,103,0
748573,280,-13,120,0
748584,215,-44,126,0
748595,129,-57,130,0
748606,75,-59,146,0
748617,94,-55,156,0
748628,135,-47,156,0
748639,156,-47,156,0
748650,162,-56,165,0
748661,168,-61,173,0
748672,161,-57,173,0
748683,156,-63,171,0
748694,160,-73,172,0
748705,182,-87,169,0
748716,190,-81,171,0
748727,192,-77,176,0
748738,198,-76,184,0
748749,194,-65,189,0
748760,188,-59,194,0
748771,183,-54,205,0
748782,175,-47,209,0
748793,171,-49,206,0
748804,169,-48,202,0
748815,171,-51,195,0
748826,172,-52,191,0
748837,171,-51,189,0
748848,168,-55,189,0
748859,162,-51,193,0
748870,143,-49,201,0
748881,132,-49,203,0
748892,127,-49,212,0
748903,125,-49,220,0
748914,122,-48,221,0
748925,124,-51,219,0
748936,128,-49,216,0
748947,131,-52,215,0
748958,132,-52,209,0
748969,131,-50,210,0
748980,134,-48,216,0
748991,130,-43,218,0
749002,129,-44,216,0
749013,123,-47,211,0
749024,117,-36,214,0
749035,111,-37,211,0
749046,110,-27,219,0
749057,113,-28,214,0
749068,110,-30,208,0
749079,112,-29,207,0
749090,117,-29,207,0
749101,117,-27,207,0
749112,120,-28,204,0
749123,123,-32,196,0
749134,128,-33,197,0
749145,128,-32,193,0
749156,126,-34,194,0
749167,126,-30,194,0
749178,125,-27,196,0
749189,117,-31,200,0
749200,114,-29,198,0
749211,109,-32,201,0
749222,110,-33,206,0
749233,110,-33,216,0
749244,109,-22,205,0
749255,103,-25,205,0
749266,102,-18,200,0
749277,97,-17,198,0
749288,88,-11,196,0
749299,94,-19,201,0
749310,92,-27,194,0
749321,92,-24,197,0
749332,84,-30,188,0
749343,86,-26,186,0
749354,94,-17,197,0
749365,89,-7,204,0
749376,92,-4,212,0
749387,94,-2,221,0
749398,93,-5,218,0
749409,94,-11,215,0
749420,92,-8,217,0
749431,90,-10,216,0
749442,90,-7,218,0
749453,90,-1,219,0
749464,89,-2,211,0
749475,86,0,207,0
749486,86,2,206,0
749497,85,5,207,0
749508,81,2,208,0
749519,85,4,212,0
749530,84,3,215,0
749541,84,6,212,0
749552,84,3,213,0
749563,84,4,216,0
749574,81,7,219,0
749585,76,5,220,0
749596,76,7,221,0
749607,77,7,221,0
749618,75,4,222,0
749629,78,5,219,0
749640,81,2,220,0
749651,89,7,216,0
749662,90,7,219,0
749673,92,6,223,0
749684,96,6,214,0
749695,99,6,217,0
749706,98,20,218,0
749717,92,22,217,0
749728,97,30,180,0
749739,69,-29,259,0
749750,62,59,223,0
749761,55,7,225,0
749772,58,21,241,0
749783,54,10,227,0
749794,57,16,234,0
749805,58,6,216,0
749816,62,2,217,0
749827,62,3,208,0
749838,67,1,195,0
749849,71,7,194,0
749860,74,6,198,0
749871,76,10,203,0
749882,72,17,218,0
749893,71,12,225,0
749905,67,20,242,0
749916,61,22,232,0
749927,65,19,235,0
749938,69,17,231,0
749949,82,15,219,0
749960,89,18,217,0
749971,97,20,214,0
749982,101,24,218,0
749993,97,26,220,0
750004,93,28,220,0
750015,86,30,219,0
750026,81,24,221,0
750037,79,27,227,0
750048,71,18,215,0
750059,70,19,226,0
750070,64,18,222,0
750081,63,25,221,0
750092,67,25,216,0
750103,66,28,213,0
750114,58,31,218,0
750125,59,37,224,0
750136,54,45,239,0
750147,53,45,239,0
750158,56,44,237,0
750169,51,42,229,0
750180,47,45,225,0
750191,46,45,221,0
750202,47,48,220,0
750213,50,54,222,0
750224,49,61,219,0
750235,47,61,219,0
750246,46,52,219,0
750257,45,51,212,0
750268,44,48,218,0
750279,44,50,218,0
750290,43,52,216,0
750301,55,46,218,0
750312,75,50,230,0
750323,65,57,228,0
750334,51,61,229,0
750345,38,62,232,0
750356,38,67,229,0
750367,31,59,228,0
750378,32,57,232,0
750389,34,62,235,0
