timestamp,accX,accY,accZ,step
240279,36,5,232,0
240291,36,3,228,0
240302,38,5,229,0
240313,25,8,247,0
240323,36,9,233,0
240334,35,7,227,0
240345,37,2,225,0
240356,36,6,227,0
240366,37,5,228,0
240377,37,5,232,0
240388,36,4,230,0
240399,36,5,229,0
240411,36,4,228,0
240422,36,4,230,0
240433,38,5,231,0
240444,39,3,231,0
240454,37,7,231,0
240465,38,4,231,0
240476,39,3,230,0
240487,39,4,231,0
240498,39,3,230,0
240509,40,3,230,0
240520,41,4,229,0
240531,43,3,228,0
240542,44,4,228,0
240553,45,2,229,0
240564,43,2,228,0
240575,44,2,229,0
240586,43,3,227,0
240597,43,3,229,0
240608,41,3,230,0
240619,39,2,231,0
240630,38,3,228,0
240641,37,3,229,0
240652,36,3,229,0
240663,36,3,229,0
240674,37,2,229,0
240685,38,3,230,0
240696,38,2,231,0
240707,37,2,231,0
240718,37,2,230,0
240729,38,1,229,0
240740,37,3,229,0
240751,36,1,231,0
240762,33,2,231,0
240773,33,3,232,0
240784,35,2,231,0
240795,36,2,228,0
240806,38,2,228,0
240817,39,2,231,0
240828,39,2,229,0
240839,39,2,228,0
240850,39,3,228,0
240861,38,2,225,0
240872,35,2,227,0
240883,36,4,228,0
240894,34,4,231,0
240905,33,5,233,0
240916,34,5,234,0
240927,33,2,232,0
240938,34,3,231,0
240949,34,4,230,0
240960,37,5,228,0
240971,37,6,229,0
240982,38,5,228,0
240993,39,5,228,0
241004,41,4,229,0
241015,43,5,231,0
241026,42,4,232,0
241037,43,3,232,0
241048,44,4,231,0
241059,44,3,229,0
241070,44,3,227,0
241081,44,3,227,0
241092,43,4,227,0
241103,43,5,227,0
241114,43,4,228,0
241125,43,3,230,0
241136,42,2,229,0
241147,42,3,229,0
241158,43,2,229,0
241169,43,2,227,0
241180,41,1,228,0
241191,39,4,229,0
241202,39,5,231,0
241213,38,4,232,0
241224,39,6,233,0
241235,38,5,233,0
241246,35,4,230,0
241257,36,4,230,0
241268,36,4,231,0
241279,36,3,228,0
241290,36,5,229,0
241301,36,4,229,0
241312,37,4,231,0
241323,38,3,229,0
241334,39,3,229,0
241345,40,3,230,0
241356,40,3,229,0
241367,40,2,231,0
241378,40,3,231,0
241389,41,3,229,0
241400,42,3,228,0
241411,40,2,227,0
241422,40,3,229,0
241433,39,2,232,0
241444,38,2,234,0
241455,37,2,235,0
241466,39,2,232,0
241477,38,2,234,0
241488,40,2,232,0
241499,41,3,229,0
241510,40,3,227,0
241521,40,1,224,0
241532,40,1,224,0
241544,39,3,225,0
241554,40,3,229,0
241565,38,3,230,0
241576,36,4,231,0
241587,35,2,230,0
241598,34,3,230,0
241609,35,4,230,0
241620,34,4,231,0
241632,33,4,230,0
241643,33,4,231,0
241654,33,4,231,0
241665,32,5,231,0
241676,32,5,230,0
241687,31,6,230,0
241698,32,6,229,0
241709,33,5,232,0
241720,35,5,230,0
241731,33,6,231,0
241742,32,5,231,0
241753,35,6,231,0
241764,33,5,233,0
241775,32,4,232,0
241786,32,5,232,0
241797,33,6,233,0
241808,34,6,231,0
241819,35,5,230,0
241830,35,5,230,0
241841,38,5,227,0
241852,38,6,229,0
241863,40,5,229,0
241874,40,5,228,0
241885,39,4,228,0
241896,37,4,229,0
241907,35,4,230,0
241918,36,4,230,0
241929,36,5,229,0
241940,34,5,231,0
241951,33,6,229,0
241962,33,7,228,0
241973,34,6,230,0
241984,35,7,230,0
241995,34,7,233,0
242006,34,6,233,0
242017,33,7,232,0
242028,34,8,230,0
242039,35,7,230,0
242050,35,8,232,0
242061,35,7,230,0
242072,36,7,229,0
242083,36,6,227,0
242094,37,5,227,0
242105,38,6,229,0
242116,38,7,229,0
242127,36,7,229,0
242138,37,6,230,0
242150,37,7,231,0
242160,38,6,229,0
242171,39,8,229,0
242182,39,8,228,0
242193,37,7,231,0
242204,37,7,229,0
242215,35,7,230,0
242226,36,8,228,0
242237,35,5,228,0
242248,35,6,227,0
242259,36,6,228,0
242270,36,8,231,0
242281,37,6,232,0
242292,37,6,232,0
242303,37,8,231,0
242314,38,7,228,0
242325,41,6,229,0
242336,41,7,229,0
242347,42,8,229,0
242358,40,7,229,0
242369,41,6,229,0
242380,43,6,231,0
242391,43,8,231,0
242402,43,5,231,0
242413,43,4,231,0
242424,44,6,230,0
242435,45,7,229,0
242446,46,8,230,0
242457,46,9,231,0
242468,42,8,231,0
242479,39,8,233,0
242490,37,10,233,0
242502,38,11,231,0
242513,39,10,231,0
242524,38,11,229,0
242535,44,9,229,0
242546,46,11,228,0
242557,49,10,228,0
242568,52,9,227,0
242579,54,6,224,0
242590,57,6,225,0
242601,56,7,226,0
242612,57,6,228,0
242623,58,7,229,0
242634,60,6,227,0
242645,62,6,227,0
242656,66,5,229,0
242667,69,4,229,0
242678,73,3,227,0
242689,79,1,226,0
242700,82,3,225,0
242711,81,2,225,0
242722,75,6,227,0
242733,70,6,230,0
242744,72,1,234,0
242755,75,1,231,0
242766,80,0,228,0
242777,85,0,222,0
242788,89,-1,220,0
242799,97,-2,218,0
242810,98,0,219,0
242821,94,1,217,0
242832,85,2,217,0
242843,77,1,215,0
242854,75,7,222,0
242865,70,6,223,0
242876,67,6,218,0
242887,61,12,215,0
242898,46,12,208,0
242909,42,12,211,0
242920,36,19,212,0
242932,34,11,214,0
242943,32,6,232,0
242954,23,1,249,0
242965,13,14,250,0
242976,12,27,246,0
242987,2,20,249,0
242998,0,16,256,0
243009,22,5,259,0
243020,32,-4,249,0
243031,37,-11,239,0
243042,44,-7,243,0
243053,49,0,247,0
243064,52,6,251,0
243075,51,12,252,0
243086,46,15,247,0
243097,44,13,246,0
243108,49,7,239,0
243119,56,0,229,0
243131,63,-1,221,0
243142,69,-1,214,0
243153,75,-1,206,0
243164,76,-4,204,0
243175,74,-5,205,0
243186,73,-4,209,0
243197,72,-2,214,0
243208,73,1,223,0
243219,76,3,228,0
243230,80,4,230,0
243241,82,3,230,0
243252,81,3,226,0
243263,80,2,224,0
243274,80,0,218,0
243285,81,-2,218,0
243296,84,-3,216,0
243307,85,-2,215,0
243318,86,0,214,0
243329,90,0,217,0
243340,91,0,217,0
243351,93,-1,216,0
243362,92,-2,215,0
243373,91,-4,211,0
243384,91,-3,208,0
243395,92,-2,206,0
243406,91,-3,207,0
243417,92,-3,208,0
243428,92,-1,212,0
243439,90,1,216,0
243450,89,1,221,0
243461,90,1,224,0
243472,91,0,226,0
243483,86,-1,225,0
243494,84,1,222,0
243505,82,0,222,0
243516,82,-1,221,0
243527,83,0,217,0
243538,83,-1,213,0
243549,83,0,213,0
243560,84,0,212,0
243571,84,1,216,0
243582,83,0,221,0
243593,84,0,224,0
243604,85,-1,225,0
243615,83,-2,225,0
243626,81,1,221,0
243637,79,1,220,0
243648,76,3,221,0
243659,78,1,221,0
243670,77,1,223,0
243681,74,1,222,0
243692,71,3,223,0
243703,69,5,225,0
243714,67,5,224,0
243725,68,5,226,0
243736,69,5,223,0
243747,67,7,225,0
243758,63,8,224,0
243769,59,6,229,0
243780,63,4,228,0
243791,64,4,226,0
243802,62,4,225,0
243813,64,6,226,0
243824,64,8,226,0
243835,65,10,226,0
243846,66,10,227,0
243858,66,12,228,0
243869,66,10,226,0
243880,64,9,227,0
243891,63,9,225,0
243902,62,9,223,0
243913,62,9,223,0
243924,61,9,223,0
243935,60,11,225,0
243946,59,11,225,0
243957,63,11,226,0
243968,64,8,224,0
243979,64,9,223,0
243990,64,11,225,0
244001,64,11,225,0
244013,64,12,228,0
244024,63,12,227,0
244035,62,12,226,0
244046,62,11,224,0
244057,63,11,222,0
244068,64,11,223,0
244079,66,11,224,0
244090,67,10,224,0
244101,65,13,225,0
244112,63,15,227,0
244123,63,15,227,0
244134,62,14,224,0
244145,63,12,223,0
244156,63,12,224,0
244167,65,12,223,0
244178,67,9,224,0
244189,70,9,226,0
244200,72,7,224,0
244211,74,9,225,0
244222,73,9,224,0
244233,72,11,227,0
244244,74,10,228,0
244255,75,11,230,0
244266,72,11,229,0
244277,67,9,226,0
244288,65,11,224,0
244299,62,13,225,0
244310,58,16,228,0
244321,58,19,229,0
244332,59,16,227,0
244343,58,15,225,0
244354,58,15,222,0
244365,60,15,221,0
244376,60,18,222,0
244387,61,17,223,0
244398,61,16,225,0
244409,58,16,226,0
244420,55,16,229,0
244431,52,18,231,0
244442,48,17,227,0
244453,50,14,225,0
244464,52,13,225,0
244475,54,13,223,0
244486,55,12,223,0
244497,57,11,224,0
244508,63,12,225,0
244519,69,14,228,0
244530,73,16,230,0
244541,75,16,231,0
244552,76,15,228,0
244563,73,16,227,0
244574,67,16,223,0
244585,63,14,219,0
244596,63,14,222,0
244607,65,14,222,0
244618,64,15,225,0
244629,62,15,228,0
244640,61,17,233,0
244651,60,19,233,0
244662,57,19,230,0
244673,56,17,225,0
244684,54,17,219,0
244695,55,16,216,0
244706,55,16,218,0
244717,57,17,220,0
244728,61,14,225,0
244739,65,14,226,0
244750,64,13,227,0
244761,67,15,228,0
244772,68,21,231,0
244783,66,21,228,0
244794,64,17,226,0
244805,63,15,223,0
244816,65,15,222,0
244827,65,15,221,0
244838,67,14,221,0
244849,69,14,224,0
244860,69,17,228,0
244871,65,20,228,0
244882,63,24,231,0
244893,62,26,231,0
244904,61,24,229,0
244915,61,22,223,0
244926,58,19,218,0
244937,58,17,218,0
244948,59,16,221,0
244959,62,16,224,0
244970,65,15,224,0
244981,67,15,228,0
244992,69,13,229,0
245003,68,17,231,0
245014,67,20,231,0
245025,64,22,231,0
245036,63,23,230,0
245047,62,23,227,0
245058,61,19,222,0
245069,60,16,220,0
245080,60,17,222,0
245091,60,17,222,0
245102,62,19,225,0
245113,62,17,224,0
245124,63,17,225,0
245135,67,14,224,0
245146,68,15,227,0
245157,66,17,232,0
245169,63,22,235,0
245180,59,23,236,0
245191,58,25,232,0
245202,56,24,229,0
245213,57,23,226,0
245224,57,21,224,0
245235,56,22,222,0
245246,55,16,215,0
245257,56,14,215,0
245269,59,13,216,0
245280,62,14,221,0
245291,65,15,226,0
245302,66,18,229,0
245313,64,21,233,0
245324,64,22,234,0
245335,64,24,233,0
245346,63,22,230,0
245357,63,19,225,0
245368,62,16,221,0
245379,62,13,217,0
245390,67,5,215,0
245401,67,5,220,0
245412,67,5,224,0
245423,71,7,226,0
245434,74,9,228,0
245445,74,14,235,0
245456,72,18,239,0
245467,73,21,238,0
245478,75,22,235,0
245489,64,22,230,0
245500,63,20,224,0
245511,60,18,217,0
245522,57,17,215,0
245533,59,14,214,0
245544,65,9,212,0
245555,86,1,212,0
245566,92,1,214,0
245577,94,4,219,0
245588,90,8,224,0
245599,79,15,229,0
245610,79,16,235,0
245621,81,17,237,0
245632,82,19,237,0
245643,80,21,234,0
245654,78,22,226,0
245665,77,19,219,0
245676,79,12,214,0
245687,82,3,210,0
245698,81,-3,205,0
245709,83,1,200,0
245720,94,6,208,0
245731,108,2,206,0
245742,116,1,203,0
245753,122,0,204,0
245764,130,-1,207,0
245775,127,1,200,0
245786,111,3,190,0
245797,86,13,175,0
245808,80,22,178,0
245819,85,29,181,0
245830,83,22,169,0
245841,83,19,177,0
245852,85,17,174,0
245863,89,12,166,0
245874,77,22,165,0
245885,56,58,173,0
245896,49,59,179,0
245907,50,43,213,0
245918,58,45,122,0
245929,28,-47,147,0
245940,49,-20,175,0
245951,47,-28,186,0
245962,64,11,205,0
245973,64,31,217,0
245984,81,47,229,0
245995,85,37,225,0
246006,89,16,212,0
246017,87,-5,197,0
246028,83,-21,186,0
246039,71,-37,181,0
246050,70,-25,207,0
246061,66,-13,237,0
246072,69,2,274,0
246083,72,3,296,0
246094,80,-7,287,0
246105,89,-18,275,0
246116,93,-27,266,0
246127,101,-30,259,0
246138,103,-27,254,0
246149,104,-18,257,0
246160,101,-7,260,0
246171,94,-3,259,0
246182,77,-7,250,0
246193,82,-17,242,0
246204,90,-21,245,0
246215,113,-32,234,0
246226,124,-32,235,0
246237,128,-27,247,0
246248,125,-20,263,0
246259,110,-11,274,0
246270,90,-10,269,0
246281,73,-16,257,0
246292,62,-28,238,0
246303,70,-38,232,0
246314,81,-41,236,0
246325,98,-44,230,0
246336,114,-37,232,0
246347,121,-27,235,0
246358,128,-27,214,0
246369,126,-13,219,0
246380,100,-17,198,0
246391,89,-29,191,0
246402,89,-38,190,0
246413,100,-40,193,0
246424,115,-45,199,0
246435,125,-43,197,0
246446,131,-37,192,0
246457,131,-26,191,0
246468,127,-18,190,0
246479,122,-25,191,0
246490,118,-29,185,0
246501,112,-32,179,0
246512,111,-35,173,0
246523,111,-35,171,0
246534,117,-39,175,0
246545,143,-38,188,0
246556,150,-30,177,0
246567,151,-30,181,0
246578,149,-29,179,0
246589,139,-30,169,0
246600,129,-35,157,0
246611,126,-36,154,0
246622,131,-37,155,0
246633,139,-46,156,0
246644,151,-48,163,0
246655,161,-41,174,0
246666,164,-40,187,0
246677,164,-35,187,0
246688,154,-27,177,0
246699,142,-36,165,0
246710,128,-37,163,0
246721,132,-44,157,0
246732,132,-49,150,0
246743,149,-62,152,0
246754,166,-60,164,0
246765,177,-52,178,0
246776,173,-40,186,0
246787,166,-37,190,0
246798,153,-31,198,0
246809,141,-31,198,0
246820,139,-40,194,0
246831,144,-46,183,0
246842,158,-59,174,0
246853,178,-69,183,0
246864,202,-59,196,0
246875,225,-37,201,0
246886,214,-21,206,0
246897,189,-11,201,0
246908,163,-16,191,0
246919,149,-23,179,0
246930,146,-29,170,0
246941,151,-37,165,0
246952,166,-45,169,0
246963,175,-42,180,0
246974,184,-38,185,0
246985,186,-36,188,0
246996,184,-30,190,0
247007,174,-31,184,0
247018,169,-33,179,0
247029,171,-32,183,0
247040,172,-34,169,0
247051,191,-39,175,0
247062,211,-32,182,0
247073,228,-24,186,0
247084,251,-17,195,0
247095,275,-10,193,0
247106,286,3,179,0
247117,288,11,163,0
247128,294,4,132,0
247139,292,0,104,0
247150,280,-10,83,0
247161,263,-23,75,0
247172,241,-23,77,0
247183,223,-26,84,0
247194,222,-24,88,0
247205,226,-16,86,0
247216,230,-10,71,0
247227,239,-5,54,0
247238,243,-5,44,0
247249,252,-11,47,0
247260,260,-25,57,0
247271,261,-38,63,0
247282,259,-45,77,0
247293,253,-38,87,0
247304,249,-17,93,0
247315,236,-13,88,0
247326,235,-20,79,0
247337,232,-22,56,0
247348,241,-32,26,0
247359,256,-47,16,0
247370,272,-61,10,0
247381,268,-57,14,0
247392,257,-50,8,0
247403,249,-41,18,0
247414,242,-23,35,0
247425,250,-35,45,0
247436,263,-41,63,0
247447,282,-28,72,0
247458,286,-19,68,0
247469,278,-19,50,0
247480,269,-25,30,0
247491,256,-20,31,0
247502,235,-37,20,0
247513,230,-50,27,0
247524,244,-45,31,0
247535,261,-29,31,0
247546,271,-30,42,0
247557,280,-22,27,0
247568,273,-17,15,0
247579,268,-23,3,0
247590,258,-16,-1,0
247601,252,-19,4,0
247612,254,-26,36,0
247623,271,-19,43,0
247634,284,-23,25,0
247645,292,-18,20,0
247656,291,-17,18,0
247667,293,-22,25,0
247678,278,-22,18,0
247689,253,-6,14,0
247700,240,-9,28,0
247711,252,-9,61,0
247722,264,-18,75,0
247733,262,-17,75,0
247744,257,-9,71,0
247755,256,-3,65,0
247766,253,-5,78,0
247777,249,-14,89,0
247788,255,-21,106,0
247799,254,-24,117,0
247810,255,-33,120,0
247821,256,-34,110,0
247832,253,-35,89,0
247843,239,-41,62,0
247854,233,-51,46,0
247865,213,-73,46,0
247876,219,-76,61,0
247887,224,-77,80,0
247898,229,-79,96,0
247909,232,-84,96,0
247920,217,-84,89,0
247931,190,-80,82,0
247942,155,-67,79,0
247953,134,-77,72,0
247964,135,-101,64,0
247975,151,-123,59,0
247986,178,-135,60,0
247997,192,-134,58,0
248008,188,-104,59,0
248019,167,-88,58,0
248030,163,-87,81,0
248041,168,-98,85,0
248052,171,-112,86,0
248064,186,-135,87,0
248075,196,-152,98,0
248086,187,-132,76,0
248097,162,-114,69,0
248108,117,-107,86,0
248119,85,-108,99,0
248130,80,-100,111,0
248141,63,-83,108,0
248152,73,-72,117,0
248163,106,-63,100,0
248175,181,-71,63,0
248186,206,-63,54,0
248197,217,-44,42,0
248208,211,-22,48,0
248219,197,-10,53,0
248230,193,-12,47,0
248241,182,-20,53,0
248252,203,-25,63,0
248263,242,-39,65,0
248274,289,-42,65,0
248285,340,-42,61,0
248296,358,-33,51,0
248307,362,-32,49,0
248318,339,-31,54,0
248329,274,-13,87,0
248340,250,-2,109,0
248351,252,0,127,0
248362,266,-4,127,0
248373,276,-6,108,0
248384,303,-13,66,0
248395,291,-44,80,0
248406,285,-11,29,0
248417,247,-8,38,0
248428,223,-21,28,0
248439,207,-24,33,0
248450,205,-26,29,0
248462,211,-25,29,0
248473,239,-25,24,0
248484,246,-16,13,0
248495,248,-1,5,0
248506,245,1,-3,0
248517,240,0,-9,0
248528,241,-13,-12,0
248539,244,-33,-8,0
248550,251,-43,0,0
248561,253,-44,5,0
248572,256,-32,12,0
248583,255,-9,20,0
248594,253,7,25,0
248605,257,20,26,0
248616,269,16,24,0
248627,288,-4,18,0
248638,317,-28,-2,0
248650,323,-31,-11,0
248661,323,-23,-17,0
248672,310,-9,-18,0
248683,293,-3,-13,0
248694,279,-1,-12,0
248705,275,-8,-9,0
248716,285,-16,-2,0
248727,294,-21,-6,0
248738,311,-24,-11,0
248749,331,-22,-12,0
248760,339,-15,-17,0
248771,326,-8,-27,0
248782,302,-10,-33,0
248793,250,-31,-26,0
248804,253,-33,-14,0
248815,267,-33,-7,0
248826,288,-32,-10,0
248837,313,-31,-12,0
248848,321,-22,-21,0
248859,307,-17,-33,0
248870,283,-28,-44,0
248881,264,-46,-43,0
248892,263,-46,-33,0
248903,275,-40,-27,0
248914,291,-31,-29,0
248925,312,-24,-32,0
248936,332,-16,-38,0
248947,337,-11,-48,0
248958,297,-17,-69,0
248969,278,-29,-71,0
248980,261,-27,-65,0
248991,263,-21,-53,0
249002,277,-9,-44,0
249013,299,0,-37,0
249024,316,1,-41,0
249035,321,-1,-51,0
249046,325,-10,-59,0
249057,324,-17,-65,0
249068,322,-17,-67,0
249079,327,-15,-69,0
249090,338,-13,-74,0
249101,357,-20,-73,0
249112,380,-22,-75,0
249123,393,-21,-75,0
249134,385,-16,-75,0
249145,374,-11,-74,0
249156,356,-10,-72,0
249167,339,-9,-67,0
249178,333,-11,-59,0
249189,336,-9,-55,0
249200,340,-6,-52,0
249211,344,-10,-53,0
249222,344,-13,-53,0
249233,333,-16,-54,0
249244,321,-22,-53,0
249255,313,-24,-49,0
249266,307,-21,-44,0
249277,304,-17,-36,0
249288,289,-3,-26,0
249299,278,-6,-24,0
249310,275,-11,-20,0
249321,274,-12,-16,0
249332,268,-7,-12,0
249343,264,-2,-8,0
249354,268,-1,-2,0
249365,277,-10,-4,0
249376,280,-17,-8,0
249387,288,-27,-11,0
249398,289,-33,-12,0
249409,285,-31,-10,0
249420,278,-24,-5,0
249431,270,-13,-1,0
249442,264,-5,3,0
249453,255,-9,11,0
249464,249,-14,9,0
249475,245,-17,7,0
249486,239,-14,7,0
249497,226,-10,6,0
249508,215,-11,10,0
249520,210,-18,16,0
249531,209,-19,23,0
249542,207,-17,29,0
249553,198,-9,33,0
249564,190,-2,32,0
249575,179,-1,29,0
249586,165,0,25,0
249597,150,-2,21,0
249608,147,-4,20,0
249619,137,-7,15,0
249630,127,-6,12,0
249641,120,-6,7,0
249652,117,-7,4,0
249663,120,-6,3,0
249674,126,-6,3,0
249685,131,-4,3,0
249696,137,-1,9,0
249707,149,1,11,0
249718,157,0,10,0
249729,164,-1,11,0
249740,168,-6,9,0
249751,172,-10,10,0
249762,193,-12,12,0
249773,198,-11,9,0
249784,204,-11,5,0
249795,212,-10,4,0
249806,215,-9,3,0
249817,220,-10,0,0
249828,225,-14,-5,0
249839,224,-17,-10,0
249850,228,-18,-13,0
249861,227,-16,-11,0
249872,238,-18,-5,0
249883,257,-19,-2,0
249894,271,-19,-1,0
249905,287,-18,-3,0
249916,297,-19,-8,0
249927,283,-28,-11,0
249938,277,-30,-10,0
249949,268,-28,-9,0
249960,269,-25,-9,0
249971,277,-24,-17,0
249982,280,-22,-23,0
249993,287,-20,-31,0
250004,290,-20,-36,0
250015,296,-27,-41,0
250026,307,-33,-44,0
250037,311,-40,-50,0
250048,314,-45,-56,0
250059,315,-41,-61,0
250070,312,-41,-67,0
250081,312,-33,-67,0
250092,315,-25,-62,0
250103,312,-27,-59,0
250114,315,-32,-58,0
250125,318,-41,-61,0
250136,325,-47,-62,0
250147,333,-47,-64,0
250158,334,-42,-69,0
250169,343,-37,-75,0
250180,358,-31,-78,0
250191,376,-29,-80,0
250202,388,-29,-83,0
250213,397,-29,-86,0
250224,400,-27,-83,0
250235,397,-24,-80,0
250246,387,-21,-74,0
250257,360,-19,-80,0
250268,345,-18,-81,0
250279,336,-22,-77,0
250290,334,-24,-71,0
250301,334,-29,-67,0
250312,334,-34,-65,0
250323,334,-39,-65,0
250334,336,-42,-64,0
250345,340,-43,-65,0
250356,338,-41,-68,0
250367,336,-42,-68,0
250378,333,-44,-68,0
250389,325,-43,-67,0
250400,320,-40,-62,0
250411,312,-36,-57,0
250422,298,-26,-42,0
250433,290,-24,-35,0
250444,285,-23,-30,0
250455,281,-23,-25,0
250466,277,-21,-20,0
250477,273,-23,-17,0
250488,269,-24,-17,0
250499,265,-24,-20,0
250510,257,-24,-24,0
250521,248,-24,-27,0
250532,238,-25,-28,0
250543,228,-27,-22,0
250554,221,-28,-15,0
250565,216,-29,-8,0
250576,210,-28,-1,0
250587,199,-28,6,0
250598,197,-26,13,0
250609,193,-27,16,0
250620,189,-24,20,0
250631,177,-20,21,0
250642,163,-18,20,0
250653,154,-19,20,0
250664,152,-16,19,0
250675,154,-14,20,0
250686,154,-11,20,0
250697,154,-10,17,0
250708,151,-11,16,0
250719,145,-16,16,0
250730,142,-21,17,0
250741,138,-25,17,0
250752,137,-26,13,0
250763,136,-23,9,0
250774,135,-24,4,0
250785,138,-21,0,0
250796,137,-21,1,0
250807,139,-19,0,0
250818,144,-14,2,0
250829,156,-11,3,0
250840,168,-16,1,0
250851,180,-19,0,0
250862,190,-21,-3,0
250873,197,-23,-5,0
250884,201,-19,-1,0
250895,206,-20,0,0
250906,214,-21,0,0
250917,238,-19,-5,0
250928,242,-21,-12,0
250939,241,-28,-19,0
250950,242,-38,-23,0
250961,253,-40,-16,0
250972,262,-36,-12,0
250984,273,-37,-15,0
250995,279,-36,-22,0
251006,284,-35,-29,0
251017,287,-38,-32,0
251028,291,-38,-32,0
251039,296,-32,-28,0
251050,295,-31,-25,0
251061,301,-31,-23,0
251072,307,-34,-34,0
251083,304,-35,-43,0
251094,303,-40,-53,0
251105,302,-47,-56,0
251116,304,-50,-54,0
251127,303,-56,-53,0
251138,301,-57,-47,0
251149,310,-56,-50,0
251160,318,-54,-54,0
251171,331,-49,-58,0
251182,342,-45,-65,0
251193,352,-46,-72,0
251204,364,-45,-74,0
251215,369,-45,-78,0
251226,369,-45,-75,0
251237,368,-48,-74,0
251248,367,-41,-76,0
251259,369,-33,-78,0
251270,367,-27,-79,0
251281,364,-27,-82,0
251292,367,-34,-84,0
251303,368,-43,-86,0
251314,362,-48,-91,0
251325,349,-52,-91,0
251336,329,-55,-88,0
251347,316,-56,-78,0
251358,309,-54,-67,0
251369,306,-55,-58,0
251380,307,-55,-53,0
251391,317,-63,-51,0
251402,332,-62,-48,0
251413,333,-54,-49,0
251424,329,-43,-46,0
251435,324,-37,-42,0
251446,319,-34,-39,0
251457,310,-32,-39,0
251468,305,-35,-40,0
251479,298,-35,-42,0
251490,290,-34,-45,0
251501,284,-36,-44,0
251512,280,-36,-40,0
251523,277,-33,-36,0
251534,274,-31,-33,0
251545,272,-26,-30,0
251556,271,-28,-29,0
251567,269,-31,-24,0
251578,269,-31,-20,0
251589,263,-28,-12,0
251600,259,-28,-1,0
251611,255,-26,2,0
251622,253,-22,9,0
251633,251,-21,12,0
251644,252,-26,11,0
251655,250,-27,14,0
251666,243,-28,16,0
251677,238,-29,19,0
251688,229,-26,24,0
251699,218,-22,22,0
251710,211,-20,22,0
251721,205,-18,20,0
251732,185,-6,23,0
251743,172,-5,25,0
251754,165,-7,29,0
251765,159,-11,29,0
251776,153,-14,28,0
251787,148,-15,25,0
251798,143,-12,23,0
251810,135,-9,23,0
251821,129,-4,26,0
251832,120,0,30,0
251843,115,-3,33,0
251854,118,-8,36,0
251865,123,-16,34,0
251876,129,-23,22,0
251887,129,-19,17,0
251898,130,-21,11,0
251909,138,-23,11,0
251920,145,-23,14,0
251931,157,-24,16,0
251942,168,-27,15,0
251953,180,-28,12,0
251964,190,-29,8,0
251975,193,-26,3,0
251986,203,-26,0,0
251997,216,-25,0,0
252008,226,-25,-1,0
252019,235,-29,-2,0
252030,242,-36,-5,0
252041,247,-41,-16,0
252052,247,-38,-22,0
252063,249,-37,-21,0
252074,257,-35,-14,0
252085,269,-37,-10,0
252096,280,-45,-9,0
252107,294,-52,-14,0
252118,306,-55,-20,0
252129,306,-51,-28,0
252140,294,-44,-36,0
252151,276,-45,-39,0
252162,276,-49,-29,0
252173,281,-47,-16,0
252184,284,-49,-14,0
252195,291,-49,-17,0
252206,310,-43,-39,0
252217,308,-40,-48,0
252228,298,-46,-59,0
252239,291,-54,-57,0
252250,300,-54,-47,0
252261,315,-52,-44,0
252272,335,-52,-44,0
252283,355,-51,-54,0
252294,366,-43,-63,0
252305,360,-41,-72,0
252316,342,-46,-77,0
252327,327,-57,-76,0
252339,317,-57,-71,0
252350,317,-50,-68,0
252361,330,-47,-78,0
252372,345,-45,-83,0
252383,359,-42,-82,0
252394,369,-44,-83,0
252405,380,-52,-84,0
252416,389,-60,-81,0
252427,391,-61,-81,0
252438,384,-52,-80,0
252449,378,-44,-79,0
252460,370,-43,-77,0
252471,361,-44,-75,0
252482,352,-47,-74,0
252493,341,-47,-69,0
252504,329,-44,-65,0
252515,320,-39,-57,0
252526,319,-37,-53,0
252537,314,-31,-51,0
252548,308,-27,-52,0
252559,304,-27,-52,0
252570,303,-30,-51,0
252581,303,-31,-51,0
252592,301,-32,-50,0
252603,298,-32,-48,0
252614,297,-33,-47,0
252625,301,-32,-45,0
252636,300,-35,-44,0
252647,298,-35,-37,0
252658,290,-36,-32,0
252669,283,-40,-28,0
252680,264,-36,-16,0
252691,261,-31,-11,0
252702,257,-26,-3,0
252713,258,-24,0,0
252724,258,-26,0,0
252735,255,-31,0,0
252746,246,-34,-3,0
252757,232,-36,-2,0
252768,221,-36,0,0
252779,213,-34,3,0
252790,206,-28,8,0
252801,201,-24,10,0
252812,197,-21,13,0
252823,194,-18,16,0
252834,190,-16,17,0
252845,180,-19,19,0
252856,174,-25,18,0
252867,171,-26,18,0
252878,164,-20,20,0
252889,156,-12,22,0
252900,150,-6,22,0
252911,144,-4,23,0
252922,138,-5,24,0
252933,140,-12,25,0
252944,145,-18,25,0
252955,154,-22,24,0
252966,158,-22,21,0
252977,158,-22,15,0
252988,155,-20,12,0
252999,154,-18,14,0
253010,148,-17,24,0
253021,152,-20,27,0
253032,164,-19,28,0
253043,175,-18,26,0
253054,188,-20,19,0
253065,196,-21,11,0
253076,193,-28,5,0
253087,195,-37,4,0
253098,207,-40,10,0
253109,218,-39,14,0
253120,222,-31,9,0
253131,218,-27,0,0
253142,220,-27,-4,0
253153,230,-23,0,0
253164,234,-20,-3,0
253175,250,-34,-13,0
253186,252,-44,-15,0
253197,251,-45,-13,0
253208,246,-47,-15,0
253219,249,-49,-17,0
253230,258,-44,-18,0
253241,270,-40,-20,0
253252,274,-33,-22,0
253263,280,-30,-26,0
253274,285,-30,-29,0
253285,293,-32,-31,0
253296,300,-34,-32,0
253307,306,-38,-36,0
253318,314,-41,-34,0
253329,319,-40,-35,0
253340,325,-34,-40,0
253351,326,-30,-45,0
253362,326,-27,-50,0
253373,328,-22,-52,0
253384,328,-23,-59,0
253395,328,-26,-63,0
253406,328,-30,-68,0
253417,327,-39,-68,0
253428,333,-45,-63,0
253439,340,-50,-59,0
253451,343,-50,-58,0
253462,357,-54,-65,0
253473,373,-55,-70,0
253484,382,-54,-80,0
253495,375,-56,-86,0
253506,362,-50,-79,0
253517,357,-50,-67,0
253528,356,-51,-63,0
253539,357,-51,-63,0
253550,356,-52,-64,0
253561,356,-55,-65,0
253572,358,-56,-64,0
253583,360,-58,-64,0
253594,356,-59,-62,0
253605,346,-55,-62,0
253616,338,-48,-60,0
253627,331,-41,-53,0
253638,324,-34,-47,0
253649,317,-32,-47,0
253660,311,-34,-48,0
253671,307,-40,-51,0
253682,304,-44,-52,0
253693,297,-44,-51,0
253704,288,-43,-46,0
253715,283,-40,-38,0
253726,281,-37,-32,0
253737,281,-34,-27,0
253748,281,-33,-23,0
253759,278,-31,-22,0
253770,272,-30,-22,0
253781,262,-31,-21,0
253792,256,-34,-18,0
253803,252,-38,-15,0
253814,247,-38,-12,0
253825,244,-36,-9,0
253836,243,-34,-8,0
253847,238,-32,-6,0
253858,230,-34,-4,0
253869,225,-40,-3,0
253880,222,-43,3,0
253891,216,-40,10,0
253902,215,-39,13,0
253913,213,-35,14,0
253924,209,-30,18,0
253935,200,-23,20,0
253946,186,-21,24,0
253957,174,-24,31,0
253968,168,-30,34,0
253979,165,-33,35,0
253990,157,-27,28,0
254001,150,-22,22,0
254012,143,-19,19,0
254023,133,-18,17,0
254034,127,-18,21,0
254045,124,-20,26,0
254056,125,-20,32,0
254067,123,-19,35,0
254078,124,-17,36,0
254089,124,-16,30,0
254100,124,-18,24,0
254111,126,-19,20,0
254122,130,-20,22,0
254133,140,-20,26,0
254144,154,-27,28,0
254155,190,-35,30,0
254166,201,-28,22,0
254177,207,-26,10,0
254188,209,-26,0,0
254199,210,-27,-6,0
254210,212,-25,-7,0
254221,217,-24,-5,0
254232,223,-24,-3,0
254243,230,-25,-1,0
254254,239,-23,-2,0
254265,243,-20,-2,0
254276,246,-16,-8,0
254287,245,-17,-11,0
254298,252,-18,-11,0
254309,271,-25,-9,0
254320,287,-28,-7,0
254331,302,-34,-11,0
254342,307,-33,-18,0
254353,305,-31,-21,0
254364,297,-31,-23,0
254375,295,-28,-22,0
254386,295,-21,-21,0
254397,293,-23,-19,0
254408,297,-23,-19,0
254419,302,-25,-22,0
254430,307,-29,-28,0
254441,320,-32,-38,0
254452,322,-28,-44,0
254463,311,-26,-45,0
254474,298,-26,-47,0
254485,297,-35,-44,0
254496,312,-34,-46,0
254507,330,-27,-49,0
254518,356,-17,-53,0
254529,376,-10,-64,0
254540,394,-12,-71,0
254551,401,-18,-79,0
254562,396,-31,-80,0
254573,380,-41,-77,0
254584,357,-48,-80,0
254595,344,-44,-83,0
254606,347,-38,-80,0
254617,358,-39,-73,0
254628,374,-37,-65,0
254639,385,-36,-66,0
254650,405,-57,-65,0
254661,396,-55,-67,0
254673,383,-53,-70,0
254684,370,-46,-70,0
254695,356,-37,-66,0
254706,341,-31,-60,0
254717,327,-28,-54,0
254728,322,-30,-52,0
254739,318,-30,-52,0
254750,310,-31,-54,0
254761,300,-28,-57,0
254772,293,-27,-57,0
254783,293,-25,-56,0
254794,291,-28,-47,0
254805,290,-32,-44,0
254816,283,-33,-40,0
254827,278,-34,-37,0
254838,278,-33,-30,0
254849,275,-31,-23,0
254860,269,-29,-17,0
254871,262,-30,-14,0
254882,258,-28,-9,0
254893,257,-31,-4,0
254904,255,-26,-4,0
254915,253,-25,-7,0
254926,255,-21,-5,0
254937,258,-21,-5,0
254948,258,-19,-5,0
254959,254,-21,-1,0
254970,248,-20,1,0
254981,239,-20,1,0
254992,233,-18,2,0
255003,227,-14,4,0
255014,220,-8,9,0
255025,207,-2,13,0
255036,193,-2,17,0
255047,182,-5,20,0
255058,180,-15,21,0
255069,176,-22,22,0
255080,167,-20,21,0
255091,159,-13,20,0
255102,152,-2,24,0
255113,144,6,29,0
255124,142,6,31,0
255135,139,1,29,0
255146,137,-11,25,0
255157,136,-19,23,0
255168,137,-20,18,0
255179,140,-21,13,0
255190,140,-18,14,0
255201,137,-17,14,0
255212,135,-15,17,0
255223,134,-13,19,0
255234,134,-11,19,0
255245,140,-10,18,0
255256,148,-8,16,0
255267,156,-5,13,0
255278,169,-5,13,0
255289,195,-7,15,0
255300,211,-10,15,0
255311,228,-13,13,0
255322,245,-11,9,0
255333,251,-8,2,0
255344,246,-14,-9,0
255355,236,-19,-15,0
255366,232,-23,-6,0
255377,230,-22,-2,0
255388,234,-24,0,0
255399,249,-19,0,0
255410,262,-14,0,0
255421,268,-12,-7,0
255432,277,-18,-14,0
255443,282,-27,-17,0
255454,287,-28,-11,0
255465,293,-30,-12,0
255476,310,-22,-15,0
255487,321,-10,-24,0
255498,320,0,-33,0
255509,320,1,-39,0
255520,315,-6,-42,0
255531,291,-17,-39,0
255542,272,-28,-36,0
255553,263,-38,-29,0
255564,269,-33,-23,0
255575,288,-21,-25,0
255586,301,-6,-35,0
255597,310,-4,-43,0
255608,320,-10,-52,0
255619,337,-49,-58,0
255630,335,-55,-60,0
255641,338,-54,-62,0
255652,359,-53,-65,0
255663,381,-42,-71,0
255674,394,-32,-75,0
255685,401,-25,-77,0
255696,402,-22,-72,0
255707,402,-29,-69,0
255718,400,-37,-68,0
255729,390,-37,-72,0
255740,379,-31,-82,0
255751,374,-20,-88,0
255762,372,-16,-88,0
255773,371,-21,-88,0
255784,374,-43,-77,0
255795,376,-52,-67,0
255806,363,-51,-61,0
255817,345,-48,-57,0
255828,331,-45,-52,0
255839,322,-44,-42,0
255850,319,-41,-34,0
255861,318,-40,-32,0
255872,316,-40,-33,0
255883,313,-41,-38,0
255894,307,-40,-41,0
255905,303,-39,-43,0
255916,293,-35,-40,0
255927,287,-33,-36,0
255938,279,-30,-29,0
255949,266,-29,-23,0
255960,259,-27,-21,0
255971,256,-26,-20,0
255982,254,-25,-20,0
255993,253,-26,-19,0
256004,250,-32,-18,0
256015,249,-35,-19,0
256026,250,-31,-15,0
256037,249,-29,-12,0
256048,248,-28,-12,0
256059,247,-27,-10,0
256070,248,-29,-10,0
256081,249,-29,-5,0
256092,248,-28,-3,0
256103,238,-25,1,0
256114,232,-19,3,0
256125,227,-15,7,0
256136,223,-14,10,0
256147,217,-12,12,0
256158,210,-13,14,0
256169,201,-13,15,0
256180,193,-18,17,0
256191,185,-26,17,0
256202,176,-25,20,0
256213,165,-19,21,0
256224,151,-12,21,0
256235,137,-6,20,0
256246,126,-3,24,0
256257,116,-2,27,0
256268,118,-10,32,0
256279,125,-14,32,0
256290,130,-18,29,0
256301,138,-22,25,0
256312,139,-22,22,0
256323,138,-21,19,0
256334,133,-17,19,0
256345,135,-16,21,0
256356,140,-17,24,0
256367,146,-21,23,0
256378,154,-23,20,0
256389,167,-26,18,0
256400,176,-25,15,0
256411,186,-24,11,0
256422,197,-25,12,0
256433,215,-17,10,0
256444,226,-17,6,0
256455,231,-16,2,0
256466,230,-19,-5,0
256477,232,-25,-12,0
256488,234,-31,-12,0
256499,239,-35,-6,0
256510,243,-34,-3,0
256521,249,-32,-3,0
256532,260,-30,-3,0
256543,274,-25,-7,0
256554,282,-21,-10,0
256565,288,-21,-15,0
256576,293,-30,-22,0
256587,291,-37,-20,0
256598,287,-42,-20,0
256609,294,-45,-17,0
256620,305,-38,-19,0
256631,313,-32,-27,0
256642,327,-27,-35,0
256653,341,-22,-42,0
256664,338,-24,-53,0
256675,326,-34,-52,0
256686,318,-41,-44,0
256697,317,-53,-39,0
256708,319,-53,-39,0
256719,318,-44,-44,0
256730,317,-36,-51,0
256741,321,-35,-59,0
256752,328,-39,-63,0
256763,339,-38,-68,0
256774,351,-38,-64,0
256785,367,-36,-59,0
256796,382,-33,-61,0
256807,393,-29,-66,0
256818,400,-31,-75,0
256829,408,-42,-83,0
256840,409,-56,-88,0
256851,408,-63,-89,0
256862,398,-64,-85,0
256873,392,-62,-72,0
256884,386,-53,-63,0
256895,379,-40,-54,0
256906,376,-33,-49,0
256917,368,-30,-50,0
256928,346,-33,-64,0
256939,336,-34,-68,0
256950,327,-32,-67,0
256961,321,-32,-64,0
256972,317,-30,-59,0
256983,309,-32,-50,0
256994,297,-30,-44,0
257005,294,-35,-39,0
257016,289,-35,-32,0
257027,282,-34,-30,0
257038,270,-31,-29,0
257049,263,-32,-26,0
257060,262,-32,-21,0
257071,258,-31,-17,0
257082,263,-36,-13,0
257093,265,-32,-9,0
257104,262,-33,-8,0
257115,261,-33,-8,0
257126,258,-32,-5,0
257137,255,-29,-1,0
257148,256,-27,-1,0
257159,256,-29,0,0
257170,254,-30,-1,0
257181,252,-31,0,0
257192,243,-27,0,0
257203,231,-24,2,0
257214,222,-24,12,0
257225,217,-21,21,0
257236,215,-19,29,0
257248,215,-22,29,0
257259,209,-21,26,0
257270,198,-16,25,0
257281,185,-11,24,0
257292,167,-8,26,0
257303,154,-13,26,0
257314,150,-21,28,0
257325,144,-18,30,0
257336,135,-14,30,0
257347,129,-12,29,0
257358,125,-10,28,0
257369,123,-10,32,0
257380,126,-12,35,0
257391,127,-12,41,0
257402,132,-9,43,0
257414,135,-6,43,0
257425,134,-1,39,0
257436,132,1,36,0
257447,132,0,36,0
257458,132,-2,34,0
257469,137,-7,31,0
257480,148,-14,29,0
257491,162,-19,26,0
257502,179,-21,23,0
257513,194,-22,22,0
257524,204,-19,19,0
257535,207,-15,14,0
257546,212,-17,12,0
257557,222,-17,12,0
257568,232,-14,14,0
257579,244,-9,13,0
257590,249,-9,12,0
257601,253,-20,3,0
257612,254,-27,0,0
257623,249,-35,-2,0
257634,241,-39,-6,0
257645,231,-39,-8,0
257656,227,-34,-5,0
257667,228,-28,-1,0
257678,234,-24,2,0
257689,249,-18,4,0
257700,272,-17,2,0
257711,319,-22,-12,0
257722,330,-28,-21,0
257733,337,-38,-30,0
257744,339,-39,-34,0
257755,338,-37,-38,0
257766,339,-33,-36,0
257777,342,-29,-35,0
257788,349,-30,-38,0
257799,352,-26,-42,0
257810,350,-22,-50,0
257821,343,-23,-58,0
257832,327,-26,-65,0
257843,322,-32,-69,0
257854,329,-42,-64,0
257865,336,-36,-58,0
257876,346,-20,-45,0
257887,364,-16,-40,0
257898,382,-13,-44,0
257909,390,-20,-50,0
257920,384,-32,-60,0
257931,373,-44,-64,0
257943,369,-51,-63,0
257954,367,-50,-59,0
257965,363,-42,-53,0
257976,354,-37,-46,0
257987,350,-35,-46,0
257998,346,-36,-46,0
258009,343,-39,-48,0
258020,341,-45,-53,0
258031,335,-48,-54,0
258042,333,-43,-49,0
258053,333,-39,-42,0
258064,332,-33,-39,0
258075,329,-30,-35,0
258086,323,-26,-34,0
258097,319,-29,-33,0
258108,315,-33,-36,0
258119,310,-40,-39,0
258130,306,-48,-44,0
258141,297,-50,-44,0
258152,287,-50,-45,0
258163,281,-47,-41,0
258174,284,-43,-34,0
258185,284,-38,-30,0
258196,285,-35,-22,0
258207,281,-37,-19,0
258218,275,-41,-18,0
258229,271,-43,-16,0
258240,268,-42,-11,0
258251,263,-35,-7,0
258262,259,-30,-4,0
258273,254,-26,-2,0
258284,247,-23,0,0
258295,241,-23,1,0
258306,242,-32,3,0
258317,246,-39,4,0
258328,249,-40,6,0
258339,247,-39,5,0
258350,242,-36,7,0
258361,235,-32,13,0
258372,232,-26,17,0
258383,230,-23,19,0
258394,225,-21,19,0
258405,212,-19,18,0
258416,199,-18,19,0
258427,193,-17,24,0
258438,190,-16,30,0
258449,189,-15,33,0
258460,187,-15,35,0
258471,182,-13,35,0
258482,177,-12,33,0
258493,163,-4,31,0
258504,148,-2,27,0
258515,132,-13,31,0
258526,134,-16,35,0
258537,138,-16,36,0
258548,140,-14,37,0
258559,141,-11,35,0
258570,138,-7,32,0
258581,134,-6,29,0
258592,130,-9,28,0
258603,131,-11,25,0
258614,135,-21,25,0
258625,146,-25,27,0
258636,159,-25,30,0
258647,175,-18,28,0
258658,182,-14,22,0
258669,187,-12,13,0
258680,194,-14,7,0
258691,196,-18,9,0
258702,202,-20,16,0
258713,215,-19,26,0
258724,225,-8,29,0
258735,232,-4,22,0
258746,235,-5,6,0
258757,240,-11,-1,0
258768,234,-15,-7,0
258779,227,-20,-5,0
258790,228,-26,1,0
258801,239,-29,10,0
258812,250,-25,15,0
258823,260,-20,10,0
258834,265,-23,0,0
258845,265,-30,-20,0
258856,261,-31,-22,0
258867,268,-37,-17,0
258878,283,-34,-8,0
258889,303,-23,-3,0
258900,311,-9,-4,0
258911,310,1,-14,0
258922,308,-5,-24,0
258933,310,-17,-36,0
258944,305,-30,-47,0
258955,298,-44,-45,0
258966,302,-52,-39,0
258977,307,-44,-27,0
258988,309,-27,-24,0
258999,310,-12,-23,0
259010,305,-18,-56,0
259021,310,-37,-71,0
259032,321,-54,-77,0
259043,342,-65,-77,0
259054,369,-71,-65,0
259065,397,-70,-62,0
259076,418,-65,-60,0
259087,427,-50,-58,0
259098,427,-41,-61,0
259109,422,-37,-58,0
259120,414,-42,-53,0
259131,409,-50,-52,0
259142,398,-63,-53,0
259153,384,-69,-55,0
259164,377,-68,-54,0
259175,363,-49,-42,0
259186,349,-35,-32,0
259197,338,-31,-23,0
259208,338,-37,-20,0
259219,334,-50,-31,0
259230,332,-61,-48,0
259241,330,-63,-61,0
259252,327,-60,-64,0
259263,322,-50,-59,0
259274,318,-40,-47,0
259285,312,-40,-33,0
259296,311,-42,-22,0
259307,305,-41,-20,0
259318,298,-47,-26,0
259329,294,-50,-34,0
259340,290,-41,-38,0
259351,287,-35,-34,0
259362,286,-31,-26,0
259373,287,-29,-21,0
259384,294,-33,-19,0
259395,295,-37,-20,0
259406,299,-41,-23,0
259417,301,-39,-24,0
259428,298,-37,-20,0
259439,292,-36,-16,0
259450,286,-35,-11,0
259461,272,-31,-2,0
259472,258,-31,4,0
259483,249,-32,10,0
259494,242,-29,12,0
259505,218,-18,12,0
259516,197,-10,16,0
259527,184,-12,18,0
259538,181,-19,25,0
259549,180,-20,31,0
259560,174,-15,33,0
259571,170,-11,33,0
259582,167,-1,33,0
259593,159,6,32,0
259604,150,8,33,0
259615,140,3,38,0
259626,135,-3,42,0
259637,133,-9,42,0
259648,128,-12,38,0
259659,124,-11,32,0
259670,117,-3,25,0
259681,115,-1,24,0
259692,112,-1,27,0
259703,108,-4,31,0
259714,107,-7,35,0
259725,109,-11,39,0
259736,115,-12,40,0
259747,122,-9,38,0
259758,128,-11,35,0
259769,136,-14,28,0
259780,145,-16,21,0
259791,147,-21,12,0
259802,152,-28,5,0
259813,163,-29,6,0
259824,172,-22,9,0
259835,200,-8,6,0
259846,215,-1,7,0
259857,228,-1,5,0
259868,231,-13,-1,0
259879,233,-30,-4,0
259890,240,-42,-4,0
259901,249,-43,-9,0
259912,256,-39,-13,0
259923,258,-28,-21,0
259934,255,-19,-21,0
259945,256,-14,-16,0
259956,262,-15,-10,0
259967,277,-28,-3,0
259978,311,-37,0,0
259989,342,-37,-5,0
260000,355,-10,-26,0
260011,354,-24,-38,0
260022,330,-31,-41,0
260033,292,-37,-44,0
260044,257,-54,-45,0
260055,232,-57,-36,0
260066,224,-51,-31,0
260077,239,-45,-25,0
260088,279,-31,-22,0
260099,322,-21,-30,0
260110,352,-3,-43,0
260121,382,-19,-68,0
260132,413,-35,-86,0
260143,406,-31,-94,0
260154,338,-44,-101,0
260165,326,-49,-85,0
260176,324,-45,-69,0
260187,333,-41,-50,0
260198,344,-35,-39,0
260209,359,-37,-42,0
260220,383,-41,-56,0
260231,401,-39,-70,0
260242,402,-33,-87,0
260253,410,-41,-104,0
260264,417,-53,-110,0
260275,415,-49,-104,0
260286,409,-41,-89,0
260297,402,-36,-71,0
260308,390,-29,-57,0
260319,361,-33,-51,0
260330,346,-39,-59,0
260341,330,-41,-66,0
260352,317,-37,-69,0
260363,304,-32,-66,0
260374,299,-27,-60,0
260385,301,-22,-48,0
260396,307,-18,-35,0
260407,316,-17,-30,0
260418,321,-22,-31,0
260429,320,-25,-38,0
260440,317,-29,-46,0
260451,312,-26,-48,0
260462,301,-22,-50,0
260473,292,-17,-48,0
260484,275,-15,-36,0
260495,275,-22,-27,0
260506,278,-23,-20,0
260517,281,-28,-17,0
260528,284,-31,-14,0
260539,282,-31,-12,0
260550,278,-33,-9,0
260561,272,-25,-4,0
260572,263,-20,-1,0
260583,252,-14,0,0
260594,244,-10,1,0
260605,237,-2,4,0
260616,223,4,7,0
260627,205,4,11,0
260638,193,-1,11,0
260649,183,-29,14,0
260660,178,-27,13,0
260671,171,-20,14,0
260682,155,0,16,0
260693,134,15,22,0
260704,127,17,23,0
260715,127,13,19,0
260726,121,4,17,0
260737,114,0,16,0
260748,109,-9,18,0
260759,102,-6,20,0
260770,96,-2,20,0
260781,101,-2,25,0
260792,104,-17,27,0
260803,117,-27,26,0
260814,126,-29,19,0
260825,127,-28,21,0
260836,124,-20,14,0
260847,125,-17,12,0
260858,130,-12,8,0
260869,140,-10,4,0
260880,146,-8,1,0
260891,150,-7,1,0
260902,153,-10,-1,0
260913,166,-14,4,0
260924,184,-13,9,0
260935,198,-12,10,0
260946,218,-15,6,0
260957,234,-13,1,0
260968,242,-10,-3,0
260979,273,-14,-6,0
260990,281,-14,-1,0
261001,287,-21,-3,0
261012,295,-33,1,0
261023,315,-42,0,0
261034,334,-38,-11,0
261045,348,-21,-29,0
261056,357,-8,-49,0
261067,353,-5,-66,0
261078,324,-15,-77,0
261089,287,-28,-72,0
261100,264,-42,-56,0
261111,258,-44,-33,0
261122,255,-40,-18,0
261133,261,-38,-12,0
261144,329,-22,-25,0
261155,337,-14,-40,0
261166,342,-24,-63,0
261177,337,-39,-83,0
261188,320,-50,-87,0
261199,306,-52,-78,0
261210,301,-54,-68,0
261221,313,-52,-66,0
261232,334,-53,-68,0
261244,362,-46,-72,0
261255,393,-36,-83,0
261266,404,-19,-93,0
261277,399,-22,-107,0
261288,372,-37,-104,0
261299,352,-32,-89,0
261310,353,-21,-67,0
261321,361,-10,-56,0
261332,359,-1,-47,0
261343,364,-13,-58,0
261354,378,-30,-75,0
261365,376,-26,-91,0
261376,381,-39,-106,0
261387,382,-42,-108,0
261398,377,-40,-103,0
261409,368,-38,-94,0
261420,357,-37,-83,0
261431,342,-35,-72,0
261442,326,-40,-63,0
261453,310,-52,-48,0
261464,303,-53,-42,0
261475,299,-51,-39,0
261486,294,-48,-33,0
261497,287,-42,-28,0
261508,279,-31,-22,0
261519,272,-19,-19,0
261530,269,-20,-18,0
261541,273,-25,-23,0
261552,282,-32,-26,0
261563,290,-43,-32,0
261574,294,-49,-35,0
261585,287,-43,-33,0
261596,279,-40,-31,0
261607,271,-35,-24,0
261618,257,-25,-13,0
261629,256,-26,-11,0
261640,254,-26,-5,0
261651,253,-25,-3,0
261662,249,-23,-1,0
261673,242,-23,0,0
261684,230,-23,2,0
261695,218,-23,7,0
261706,206,-26,13,0
261717,195,-26,14,0
261728,186,-24,15,0
261739,175,-23,13,0
261750,162,-16,9,0
261761,146,-8,12,0
261772,131,-2,14,0
261783,115,0,23,0
261794,115,0,28,0
261805,117,-3,30,0
261816,114,-15,29,0
261827,112,-7,29,0
261838,107,-12,29,0
261849,104,-16,23,0
261860,103,-18,19,0
261871,106,-18,15,0
261882,110,-16,13,0
261893,120,-10,14,0
261904,132,0,20,0
261915,144,9,19,0
261926,158,9,18,0
261937,171,3,12,0
261948,181,-12,-2,0
261959,185,-18,-3,0
261970,190,-24,-1,0
261981,195,-21,0,0
261992,204,-20,4,0
262003,218,-16,7,0
262014,229,-6,7,0
262025,239,-1,4,0
262036,239,-1,1,0
262047,231,-12,-5,0
262058,234,-30,-6,0
262069,233,-34,-2,0
262080,236,-37,-1,0
262091,253,-32,-6,0
262102,270,-24,-13,0
262113,293,3,-28,0
262124,289,3,-40,0
262135,289,-15,-43,0
262146,276,-21,-40,0
262157,260,-32,-41,0
262168,261,-38,-41,0
262179,287,-34,-41,0
262190,320,-28,-37,0
262201,363,-24,-43,0
262212,402,-14,-53,0
262223,426,-16,-74,0
262234,433,-20,-89,0
262245,402,-19,-98,0
262256,351,-19,-97,0
262267,309,-29,-83,0
262278,296,-39,-49,0
262289,317,-27,-34,0
262300,341,-18,-29,0
262311,368,-18,-33,0
262322,390,-24,-51,0
262333,400,-28,-75,0
262344,400,-32,-95,0
262355,389,-31,-115,0
262366,390,-46,-125,0
262377,396,-51,-120,0
262388,390,-50,-109,0
262399,371,-47,-97,0
262410,353,-52,-86,0
262421,350,-54,-73,0
262432,360,-53,-67,0
262443,356,-46,-69,0
262454,354,-47,-71,0
262465,351,-48,-72,0
262476,341,-41,-70,0
262487,331,-35,-66,0
262498,323,-28,-59,0
262509,315,-17,-49,0
262520,307,-9,-42,0
262531,303,-3,-38,0
262542,301,-7,-43,0
262553,299,-14,-50,0
262564,298,-24,-58,0
262575,300,-33,-60,0
262586,299,-39,-60,0
262597,292,-48,-49,0
262608,290,-46,-37,0
262619,283,-44,-33,0
262630,274,-38,-27,0
262641,266,-36,-25,0
262652,263,-30,-21,0
262663,261,-24,-19,0
262674,259,-19,-18,0
262685,260,-18,-15,0
262696,259,-22,-14,0
262707,261,-26,-11,0
262718,259,-28,-9,0
262729,252,-31,-8,0
262740,247,-32,-2,0
262751,235,-24,2,0
262762,206,-7,14,0
262773,192,-1,20,0
262784,177,1,24,0
262795,159,1,27,0
262806,146,-7,26,0
262817,137,-12,26,0
262828,133,-15,21,0
262839,133,-14,16,0
262850,130,-15,14,0
262861,131,-4,15,0
262872,135,0,22,0
262883,129,8,28,0
262894,125,4,31,0
262905,121,0,29,0
262916,117,-5,26,0
262927,95,-7,18,0
262938,90,-4,15,0
262949,92,-5,19,0
262960,102,-2,20,0
262971,118,-4,23,0
262982,131,-9,23,0
262993,147,-11,21,0
263004,164,-13,18,0
263015,180,-11,10,0
263026,190,-10,3,0
263037,199,-8,-3,0
263048,205,-13,-6,0
263059,203,-14,-6,0
263070,202,-23,-8,0
263081,205,-32,-14,0
263092,213,-34,-20,0
263103,223,-33,-20,0
263114,226,-26,-23,0
263125,232,-25,-24,0
263136,249,-26,-18,0
263147,269,-34,-13,0
263158,303,-39,-6,0
263169,332,-38,-10,0
263180,355,-44,-21,0
263191,369,-45,-35,0
263202,367,-36,-49,0
263213,342,-17,-60,0
263224,314,-15,-64,0
263235,285,-28,-60,0
263246,273,-58,-52,0
263257,276,-79,-37,0
263268,279,-88,-43,0
263279,299,-94,-59,0
263290,319,-67,-79,0
263301,349,-44,-93,0
263312,373,-32,-100,0
263323,383,-35,-105,0
263334,376,-51,-102,0
263345,361,-65,-82,0
263356,338,-61,-52,0
263367,314,-50,-36,0
263378,289,-33,-26,0
263389,300,-22,-15,0
263400,344,0,-18,0
263411,434,1,-73,0
263422,448,-36,-123,0
263433,439,-67,-159,0
263444,410,-75,-171,0
263455,390,-59,-158,0
263466,385,-53,-137,0
263477,381,-52,-111,0
263488,372,-48,-85,0
263499,356,-41,-70,0
263510,343,-38,-60,0
263521,337,-48,-58,0
263532,329,-51,-64,0
263543,318,-49,-75,0
263554,317,-51,-77,0
263565,320,-52,-72,0
263576,321,-60,-65,0
263587,319,-65,-63,0
263598,316,-67,-61,0
263609,305,-65,-58,0
263620,291,-62,-52,0
263631,283,-54,-43,0
263642,280,-42,-36,0
263653,281,-30,-28,0
263664,282,-21,-23,0
263675,280,-16,-25,0
263686,275,-25,-29,0
263697,270,-36,-32,0
263708,266,-46,-34,0
263719,260,-48,-32,0
263730,255,-44,-26,0
263741,252,-38,-13,0
263752,252,-33,-5,0
263763,247,-28,0,0
263774,238,-22,1,0
263785,228,-16,2,0
263796,219,-14,1,0
263807,210,-16,0,0
263818,205,-26,-2,0
263829,200,-30,0,0
263840,195,-27,1,0
263851,185,-21,6,0
263862,174,-16,12,0
263873,164,-9,24,0
263884,157,-4,29,0
263895,133,7,41,0
263907,126,7,44,0
263918,115,6,40,0
263929,103,3,34,0
263940,97,-4,27,0
263951,96,-14,19,0
263962,98,-20,15,0
263973,98,-24,12,0
263984,98,-27,11,0
263995,96,-24,12,0
264006,96,-21,12,0
264017,97,-17,11,0
264028,97,-15,13,0
264039,100,-13,15,0
264050,119,-12,17,0
264061,135,-16,21,0
264072,152,-18,14,0
264083,170,-22,6,0
264094,186,-24,0,0
264105,196,-25,-5,0
264116,200,-23,-11,0
264127,205,-20,-10,0
264138,209,-20,-7,0
264149,216,-25,-4,0
264160,234,-28,-7,0
264171,255,-21,-12,0
264182,272,-13,-23,0
264193,302,-26,-39,0
264204,323,-18,-47,0
264215,333,-16,-61,0
264226,316,-30,-59,0
264237,307,-44,-48,0
264248,308,-48,-48,0
264259,315,-45,-46,0
264270,356,-39,-46,0
264281,385,-24,-50,0
264292,402,-3,-59,0
264303,417,-1,-71,0
264314,414,-11,-88,0
264325,377,-21,-93,0
264336,332,-37,-79,0
264347,304,-50,-68,0
264358,302,-57,-52,0
264369,302,-49,-41,0
264380,343,-17,-55,0
264391,371,16,-61,0
264402,403,44,-67,0
264413,450,21,-83,0
264424,504,-20,-103,0
264435,511,-41,-114,0
264446,487,-41,-111,0
264457,435,-42,-105,0
264468,396,-38,-97,0
264479,368,-26,-73,0
264490,349,-21,-60,0
264501,332,-21,-55,0
264512,316,-16,-57,0
264523,305,-11,-58,0
264534,305,-15,-63,0
264545,340,-38,-67,0
264557,362,-48,-68,0
264567,369,-53,-64,0
264578,364,-52,-59,0
264589,357,-44,-47,0
264600,346,-29,-38,0
264611,325,-16,-34,0
264622,314,-14,-36,0
264633,302,-10,-39,0
264644,290,-11,-45,0
264655,283,-17,-48,0
264666,279,-25,-49,0
264677,274,-29,-45,0
264688,273,-31,-35,0
264699,267,-30,-20,0
264710,266,-28,-14,0
264721,264,-23,-8,0
264732,261,-22,-4,0
264743,259,-25,-2,0
264754,257,-26,-1,0
264765,249,-25,-1,0
264776,236,-24,0,0
264787,218,-20,-1,0
264798,203,-17,1,0
264809,196,-15,5,0
264820,187,-12,11,0
264831,180,-11,19,0
264842,174,-15,24,0
264853,171,-23,28,0
264864,159,-23,21,0
264875,151,-22,21,0
264886,141,-9,22,0
264897,127,7,26,0
264908,107,12,28,0
264919,90,9,30,0
264930,78,1,33,0
264941,72,-12,32,0
264952,67,-24,28,0
264963,60,-27,26,0
264974,53,-30,21,0
264985,56,-29,18,0
264996,60,-22,17,0
265007,66,-18,17,0
265018,74,-15,15,0
265029,96,-17,10,0
265040,113,-23,8,0
265051,133,-31,6,0
265062,155,-32,9,0
265073,169,-38,4,0
265084,181,-44,-2,0
265095,196,-41,-11,0
265106,213,-31,-19,0
265117,224,-18,-27,0
265128,240,-17,-36,0
265139,246,-20,-40,0
265150,248,-33,-40,0
265161,245,-41,-35,0
265172,239,-54,-31,0
265183,243,-69,-25,0
265194,276,-74,-25,0
265205,312,-68,-37,0
265216,342,-52,-44,0
265227,339,-29,-57,0
265238,322,-30,-67,0
265249,290,-38,-76,0
265260,262,-53,-68,0
265271,256,-55,-57,0
265283,265,-52,-52,0
265294,325,-41,-41,0
265305,388,-12,-41,0
265316,433,24,-56,0
265327,476,15,-83,0
265338,506,-18,-109,0
265349,440,-55,-130,0
265360,381,-65,-134,0
265371,360,-63,-126,0
265382,378,-30,-89,0
265393,411,0,-51,0
265404,444,9,-29,0
265415,460,-9,-27,0
265426,451,-10,-35,0
265437,436,-17,-49,0
265448,415,-18,-50,0
265459,405,-16,-45,0
265470,410,-30,-50,0
265481,417,-42,-52,0
265492,416,-46,-57,0
265503,405,-37,-56,0
265514,343,-16,-55,0
265525,321,-14,-55,0
265536,310,-12,-59,0
265547,301,-9,-66,0
265558,294,-14,-73,0
265569,296,-22,-74,0
265580,301,-29,-69,0
265591,305,-36,-59,0
265602,310,-41,-40,0
265613,310,-42,-23,0
265624,306,-36,-7,0
265635,301,-26,3,0
265646,295,-22,13,0
265657,289,-17,20,0
265668,278,-7,20,0
265679,269,-5,10,0
265690,261,-1,2,0
265701,256,0,-4,0
265712,254,0,-10,0
265723,252,-2,-7,0
265734,248,-1,-4,0
265745,237,-4,-4,0
265756,223,-6,0,0
265767,200,-4,4,0
265778,177,-7,7,0
265789,150,-3,11,0
265800,126,4,12,0
265811,104,7,12,0
265822,89,7,17,0
265833,87,10,24,0
265844,89,7,19,0
265855,90,4,14,0
265866,89,2,11,0
265877,90,-1,8,0
265888,89,0,5,0
265899,85,3,3,0
265910,79,9,1,0
265921,78,7,-1,0
265932,82,5,-2,0
265943,85,7,-3,0
265954,87,8,-5,0
265965,92,6,-2,0
265976,106,2,-1,0
265987,127,-1,1,0
265998,167,-6,1,0
266009,184,-10,1,0
266020,197,-10,-1,0
266031,200,-6,-5,0
266042,200,-6,-10,0
266054,197,-9,-16,0
266065,195,-15,-14,0
266076,198,-12,-9,0
266087,201,-17,-9,0
266098,215,-20,-5,0
266109,250,-27,-9,0
266120,273,-26,-18,0
266131,285,-24,-31,0
266142,310,-23,-55,0
266153,311,-23,-60,0
266164,308,-27,-62,0
266175,306,-34,-55,0
266186,333,-34,-46,0
266197,360,-32,-45,0
266208,369,-26,-46,0
266219,387,-35,-57,0
266230,399,-22,-65,0
266241,406,-29,-80,0
266252,414,-35,-90,0
266263,411,-32,-106,0
266274,424,-32,-114,0
266285,438,-22,-109,0
266296,449,-12,-102,0
266307,494,13,-77,0
266318,504,17,-73,0
266329,504,-2,-73,0
266340,482,-8,-78,0
266351,447,-12,-82,0
266362,411,-20,-85,0
266373,387,-20,-80,0
266384,372,-17,-73,0
266395,355,-9,-64,0
266406,332,0,-56,0
266417,315,13,-46,0
266428,306,15,-37,0
266439,307,18,-27,0
266450,313,15,-25,0
266461,326,3,-30,0
266472,350,-25,-54,0
266483,354,-24,-60,0
266494,340,-20,-64,0
266505,322,-24,-66,0
266516,302,-21,-61,0
266527,286,-16,-51,0
266538,278,-16,-38,0
266549,271,-23,-26,0
266560,265,-27,-19,0
266571,261,-23,-7,0
266582,259,-16,2,0
266593,252,-4,10,0
266604,245,0,17,0
266615,239,1,20,0
266626,227,3,16,0
266637,199,-1,3,0
266648,186,-2,-2,0
266659,167,-6,-11,0
266670,149,-8,-15,0
266681,132,-11,-20,0
266692,117,-10,-21,0
266703,106,-10,-20,0
266714,99,-4,-12,0
266725,94,-3,-4,0
266736,92,0,3,0
266747,89,2,12,0
266758,85,1,18,0
266769,82,2,19,0
266780,83,0,17,0
266791,87,-1,14,0
266802,101,-2,7,0
266813,108,-2,3,0
266824,116,-5,-1,0
266835,124,-7,-1,0
266846,131,-9,-2,0
266857,141,-13,-8,0
266868,153,-18,-9,0
266879,163,-17,-13,0
266890,173,-21,-15,0
266901,178,-20,-16,0
266912,179,-18,-20,0
266923,186,-15,-20,0
266934,196,-13,-18,0
266945,204,-6,-20,0
266956,216,-3,-20,0
266967,253,-14,-12,0
266978,281,-28,-3,0
266989,320,-37,-4,0
267000,352,-38,-12,0
267011,371,-32,-26,0
267022,371,-21,-45,0
267033,354,-2,-59,0
267044,330,-3,-72,0
267055,307,-5,-72,0
267066,293,-12,-72,0
267077,307,-20,-61,0
267088,311,-18,-48,0
267099,317,-32,-41,0
267110,339,-35,-44,0
267121,366,-41,-53,0
267132,402,-33,-72,0
267143,409,-14,-88,0
267154,408,-7,-101,0
267165,421,-14,-106,0
267176,455,-14,-102,0
267187,489,-14,-100,0
267198,499,-17,-98,0
267209,471,-23,-100,0
267220,446,-25,-95,0
267231,427,-22,-80,0
267242,413,-14,-63,0
267253,401,-5,-55,0
267264,396,-7,-54,0
267275,382,-12,-56,0
267287,354,-30,-62,0
267298,341,-35,-63,0
267309,324,-36,-65,0
267320,313,-39,-65,0
267331,308,-41,-59,0
267342,305,-37,-49,0
267353,302,-39,-41,0
267364,300,-38,-36,0
267375,292,-36,-30,0
267386,281,-36,-27,0
267397,271,-35,-20,0
267408,262,-33,-15,0
267419,257,-24,-10,0
267430,254,-18,-2,0
267441,253,-16,7,0
267452,247,-18,6,0
267463,244,-24,6,0
267474,240,-29,1,0
267485,232,-32,0,0
267496,220,-34,-5,0
267507,207,-31,-5,0
267518,198,-27,-1,0
267529,188,-21,4,0
267540,181,-15,8,0
267551,176,-8,15,0
267562,169,-3,21,0
267573,168,-5,27,0
267584,169,-7,30,0
267596,162,-15,23,0
267607,155,-19,19,0
267618,147,-20,14,0
267629,136,-17,11,0
267640,125,-16,7,0
267651,115,-17,4,0
267662,112,-17,2,0
267673,109,-13,3,0
267684,105,-12,3,0
267695,99,-13,4,0
267706,99,-13,11,0
267717,102,-14,15,0
267728,106,-16,18,0
267739,114,-15,21,0
267750,138,-25,18,0
267761,154,-26,15,0
267772,171,-27,9,0
267783,183,-22,5,0
267794,188,-23,-2,0
267805,191,-24,-7,0
267816,188,-23,-11,0
267827,180,-22,-11,0
267838,180,-24,-7,0
267849,183,-26,-8,0
267860,198,-32,-7,0
267871,226,-37,-10,0
267882,258,-40,-17,0
267893,284,-35,-29,0
267904,312,-40,-46,0
267915,315,-44,-62,0
267926,299,-49,-55,0
267937,286,-55,-43,0
267948,293,-58,-28,0
267959,320,-46,-17,0
267970,345,-26,-19,0
267981,375,-10,-28,0
267992,407,5,-39,0
268003,420,18,-53,0
268014,413,3,-72,0
268025,385,-20,-83,0
268036,366,-48,-75,0
268047,360,-60,-70,0
268058,359,-64,-70,0
268069,383,-61,-66,0
268080,442,-9,-67,0
268091,447,6,-67,0
268102,458,-2,-70,0
268113,471,-14,-72,0
268124,447,-10,-74,0
268135,404,-7,-75,0
268146,373,-15,-75,0
268157,360,-27,-71,0
268168,342,-28,-63,0
268179,324,-31,-58,0
268190,315,-35,-57,0
268201,318,-39,-54,0
268212,322,-42,-54,0
268223,331,-49,-54,0
268234,348,-26,-60,0
268245,339,-23,-60,0
268256,326,-23,-57,0
268267,320,-28,-56,0
268278,317,-37,-57,0
268289,311,-38,-54,0
268300,297,-36,-53,0
268311,293,-37,-50,0
268322,290,-35,-42,0
268333,291,-33,-35,0
268344,293,-27,-25,0
268355,294,-20,-15,0
268366,292,-16,-6,0
268377,286,-14,0,0
268388,278,-18,3,0
268399,260,-28,0,0
268410,251,-28,-3,0
268421,240,-27,-1,0
268432,227,-21,4,0
268443,213,-15,9,0
268454,201,-7,13,0
268465,193,-1,18,0
268476,186,3,20,0
268487,178,3,23,0
268498,173,-2,23,0
268509,170,-8,22,0
268520,164,-11,20,0
268531,158,-11,18,0
268542,149,-5,15,0
268553,144,-1,16,0
268564,138,-1,12,0
268575,133,0,9,0
268586,128,0,8,0
268597,120,2,7,0
268608,108,2,10,0
268619,100,1,13,0
268630,100,0,17,0
268641,99,0,19,0
268652,101,-5,18,0
268663,109,-11,16,0
268674,113,-12,13,0
268685,119,-17,8,0
268696,132,-16,4,0
268707,144,-12,2,0
268718,159,-5,2,0
268729,174,5,3,0
268740,185,4,4,0
268751,191,6,5,0
268762,193,0,4,0
268773,196,-10,1,0
268784,202,-15,1,0
268795,215,-23,1,0
268806,231,-20,-3,0
268817,244,-23,-15,0
268828,261,-26,-25,0
268839,274,-25,-31,0
268850,278,-18,-32,0
268861,280,-18,-29,0
268872,287,-19,-22,0
268883,320,-39,-16,0
268894,338,-45,-21,0
268905,345,-48,-31,0
268916,344,-49,-44,0
268927,340,-41,-51,0
268938,327,-25,-50,0
268949,315,-17,-37,0
268960,306,-15,-30,0
268971,312,-29,-22,0
268982,325,-33,-21,0
268993,333,-30,-28,0
269004,339,-25,-38,0
269015,353,-23,-50,0
269026,363,-23,-62,0
269037,370,-40,-65,0
269048,363,-64,-50,0
269059,370,-72,-45,0
269070,372,-71,-43,0
269081,377,-55,-46,0
269092,382,-21,-54,0
269103,386,5,-63,0
269114,404,13,-68,0
269125,423,4,-74,0
269136,435,-9,-87,0
269147,442,-27,-95,0
269158,441,-37,-93,0
269169,424,-37,-85,0
269180,401,-44,-77,0
269191,379,-48,-62,0
269202,348,-45,-49,0
269213,313,-38,-30,0
269224,293,-28,-25,0
269235,272,-20,-26,0
269246,256,-12,-32,0
269257,250,-10,-33,0
269268,255,-12,-36,0
269279,259,-19,-41,0
269290,272,-28,-38,0
269301,283,-35,-34,0
269312,291,-45,-32,0
269323,291,-47,-30,0
269334,287,-43,-25,0
269345,277,-34,-21,0
269356,269,-21,-15,0
269367,264,-9,-11,0
269378,264,-1,-10,0
269389,268,-5,-7,0
269400,275,-10,-7,0
269411,276,-23,-5,0
269422,283,-35,-2,0
269433,298,-48,0,0
269444,307,-49,1,0
269455,310,-46,6,0
269466,308,-35,13,0
269477,295,-15,9,0
269488,274,-2,6,0
269499,257,-10,0,0
269510,249,-19,1,0
269521,240,-20,2,0
269532,234,-29,17,0
269543,244,-19,20,0
269554,250,-11,26,0
269565,253,-7,33,0
269576,257,-15,43,0
269587,262,-15,47,0
269598,255,-13,40,0
269609,251,-26,31,0
269620,243,-36,23,0
269631,236,-34,11,0
269642,236,-37,5,0
269653,240,-45,6,0
269664,246,-53,9,0
269675,261,-52,19,0
269686,259,-35,27,0
269697,241,-21,40,0
269708,231,-21,49,0
269719,222,-18,46,0
269730,216,-6,42,0
269741,219,-1,42,0
269752,222,4,38,0
269763,231,-2,37,0
269774,234,-12,34,0
269785,235,-31,30,0
269796,226,-30,38,0
269807,223,-24,44,0
269818,218,-10,43,0
269829,217,5,46,0
269840,225,15,46,0
269851,231,16,34,0
269862,256,5,28,0
269873,261,0,30,0
269884,256,-1,22,0
269895,249,6,24,0
269906,233,16,25,0
269917,233,17,27,0
269928,235,25,34,0
269939,246,29,44,0
269950,255,27,46,0
269961,253,27,40,0
269972,257,29,25,0
269983,252,33,12,0
269994,242,43,10,0
270005,235,43,8,0
270016,225,38,17,0
270027,236,53,55,0
270038,244,51,66,0
270049,254,56,75,0
270060,261,53,73,0
270071,260,57,59,0
270082,250,60,50,0
270093,232,53,51,0
270104,220,36,56,0
270115,230,28,56,0
270126,247,24,71,0
270137,275,20,76,0
270148,298,37,75,0
270159,309,57,52,0
270170,321,66,28,0
270181,281,21,2,0
270192,237,6,16,0
270203,210,2,26,0
270214,205,-1,21,0
270225,216,-14,29,0
270236,227,-21,38,0
270247,232,-25,31,0
270258,251,-20,20,0
270269,269,-16,5,0
270280,284,-15,13,0
270291,294,-14,17,0
270302,295,-23,20,0
270313,292,-29,26,0
270324,288,-27,36,0
270335,286,-22,45,0
270346,288,-16,52,0
270357,299,-20,51,0
270368,307,-26,39,0
270379,313,-29,37,0
270390,310,-38,33,0
270401,294,-41,28,0
270412,282,-33,34,0
270423,272,-34,45,0
270434,254,-42,47,0
270445,240,-54,49,0
270456,235,-60,52,0
270467,232,-68,48,0
270478,232,-65,49,0
270489,229,-59,54,0
270500,225,-63,50,0
270511,215,-70,48,0
270522,208,-66,53,0
270533,212,-70,65,0
270544,203,-83,64,0
270555,193,-88,54,0
270566,182,-91,48,0
270577,164,-103,25,0
270588,160,-98,19,0
270599,169,-94,22,0
270610,179,-99,35,0
270621,180,-110,43,0
270632,180,-109,49,0
270643,187,-109,57,0
270654,190,-112,58,0
270665,186,-116,58,0
270676,162,-99,58,0
270687,154,-99,57,0
270698,156,-95,59,0
270709,153,-95,64,0
270720,155,-92,66,0
270731,155,-95,65,0
270742,153,-83,66,0
270753,155,-68,72,0
270764,149,-66,83,0
270775,141,-66,80,0
270786,152,-65,83,0
270797,165,-62,76,0
270808,180,-57,80,0
270819,199,-57,85,0
270830,199,-66,87,0
270841,214,-75,85,0
270852,243,-71,65,0
270863,272,-58,49,0
270874,308,-51,61,0
270885,357,-54,82,0
270896,386,-53,123,0
270907,402,-39,155,0
270918,397,-24,170,0
270929,372,-21,187,0
270940,322,-28,174,0
270951,267,-45,148,0
270962,228,-61,124,0
270973,212,-84,96,0
270984,225,-94,70,0
270995,270,-97,67,0
271006,278,-84,76,0
271017,279,-64,92,0
271028,281,-55,105,0
271039,263,-46,116,0
271050,236,-40,117,0
271061,238,-50,114,0
271072,239,-53,110,0
271083,242,-47,109,0
271094,260,-47,116,0
271105,276,-45,126,0
271116,280,-34,142,0
271127,282,-31,162,0
271138,270,-31,168,0
271149,247,-33,160,0
271160,210,-57,132,0
271171,194,-63,113,0
271182,193,-73,106,0
271193,190,-74,112,0
271204,186,-80,126,0
271215,189,-84,136,0
271226,194,-84,152,0
271237,195,-79,156,0
271248,200,-70,161,0
271259,200,-63,166,0
271270,200,-59,172,0
271281,200,-49,172,0
271292,194,-43,181,0
271303,186,-39,185,0
271314,178,-33,185,0
271325,167,-40,170,0
271336,164,-40,158,0
271347,167,-40,154,0
271358,170,-43,154,0
271369,170,-41,154,0
271380,171,-39,155,0
271391,170,-34,166,0
271402,165,-32,170,0
271413,157,-33,173,0
271424,153,-30,170,0
271435,152,-25,170,0
271446,150,-29,165,0
271457,145,-33,158,0
271468,134,-34,160,0
271479,140,-35,154,0
271490,141,-27,159,0
271501,140,-27,162,0
271512,138,-22,165,0
271523,136,-18,166,0
271534,129,-26,157,0
271545,131,-26,155,0
271556,130,-24,161,0
271567,134,-18,167,0
271578,135,-18,169,0
271589,137,-19,164,0
271600,139,-17,165,0
271611,139,-14,169,0
271622,138,-8,174,0
271633,136,-2,177,0
271644,131,1,180,0
271655,126,4,186,0
271666,123,7,190,0
271677,122,9,190,0
271688,120,11,187,0
271699,116,10,186,0
271710,119,13,189,0
271721,118,16,195,0
271732,117,19,194,0
271743,113,23,200,0
271754,107,27,201,0
271765,109,25,203,0
271776,111,26,208,0
271787,109,24,210,0
271798,107,18,208,0
271809,99,24,209,0
271820,91,32,213,0
271831,87,40,217,0
271842,82,44,222,0
271853,78,48,220,0
271864,76,47,217,0
271875,73,44,210,0
271886,74,43,206,0
271897,71,40,205,0
271908,68,37,205,0
271919,64,38,208,0
271930,68,38,212,0
271941,71,47,217,0
271952,70,54,224,0
271963,72,60,224,0
271974,66,61,217,0
271985,64,64,214,0
271996,63,60,210,0
272007,61,56,206,0
272018,61,46,205,0
272029,61,34,201,0
272040,61,25,207,0
272051,59,15,213,0
272062,60,7,226,0
272073,53,4,238,0
272084,43,11,240,0
272095,33,18,246,0
272106,19,35,236,0
272117,9,24,279,0
272128,44,35,214,0
272139,64,18,216,0
272150,89,37,209,0
272161,96,34,207,0
272172,96,37,207,0
272183,92,37,209,0
272194,85,34,203,0
272205,69,31,201,0
272216,61,24,200,0
272227,54,20,203,0
272238,48,22,210,0
272249,41,12,215,0
272260,34,12,219,0
272271,30,15,223,0
272282,32,18,227,0
272293,35,25,229,0
272304,35,25,232,0
272315,38,28,230,0
272326,42,29,227,0
272337,43,25,218,0
272348,49,21,213,0
272359,58,23,211,0
272370,57,22,215,0
272381,53,21,220,0
272392,52,19,224,0
272403,52,25,228,0
272414,47,30,231,0
272425,36,32,232,0
272436,28,29,231,0
272447,24,23,230,0
272458,28,18,234,0
272469,30,22,232,0
272480,33,23,231,0
272491,34,25,230,0
272502,32,28,228,0
272513,31,24,226,0
272524,30,21,227,0
272535,30,21,224,0
272546,30,19,225,0
272557,26,18,227,0
272568,24,19,230,0
272579,23,17,234,0
272590,24,18,240,0
272601,21,17,243,0
272612,18,13,244,0
272623,18,14,238,0
272634,18,13,234,0
272645,17,13,229,0
272656,18,11,223,0
272667,21,10,219,0
272678,24,10,218,0
272689,26,11,218,0
272700,31,10,222,0
272711,29,12,227,0
272722,26,9,224,0
272733,26,12,223,0
272744,24,15,223,0
272755,15,12,218,0
272766,17,17,218,0
272777,19,13,216,0
272788,21,12,218,0
272799,22,12,224,0
272810,25,8,227,0
272821,27,13,230,0
272832,26,12,236,0
272843,18,12,235,0
272854,11,7,234,0
272865,6,13,238,0
272876,2,19,243,0
272887,0,20,247,0
272898,-1,16,244,0
272909,-5,17,245,0
272920,-5,19,244,0
272931,-3,20,243,0
272942,2,20,234,0
272953,2,21,236,0
272964,3,19,236,0
272975,8,15,232,0
272986,13,19,235,0
272997,17,17,231,0
273008,23,14,230,0
273019,26,15,231,0
273030,29,14,230,0
273041,31,11,229,0
273052,31,9,230,0
273063,30,8,226,0
273074,27,12,224,0
273085,26,13,227,0
273096,21,11,225,0
273107,15,10,223,0
273118,26,22,227,0
273129,13,13,230,0
273140,14,13,230,0
273151,12,12,228,0
273162,11,13,229,0
273173,8,14,228,0
273184,6,12,230,0
273195,4,10,224,0
273206,5,10,228,0
273217,4,12,232,0
273228,5,13,234,0
273239,4,13,239,0
273250,8,16,240,0
273261,12,14,237,0
273272,20,11,239,0
273283,25,9,234,0
273294,28,5,232,0
273305,22,4,229,0
