timestamp,accX,accY,accZ,step
918084,22,0,227,0
918095,33,4,244,0
918106,38,-7,230,0
918117,44,-14,221,0
918129,43,-8,222,0
918140,39,0,223,0
918151,39,-6,220,0
918161,34,-5,229,0
918171,26,1,231,0
918182,24,5,229,0
918193,23,6,236,0
918204,23,1,236,0
918215,24,-4,224,0
918226,13,6,231,0
918237,22,3,234,0
918248,31,-3,225,0
918259,35,-3,235,0
918270,37,-2,233,0
918281,38,0,234,0
918292,41,0,232,0
918303,40,-3,230,0
918314,36,-6,221,0
918325,33,-14,223,0
918336,31,-12,223,0
918347,31,-15,223,0
918358,32,-15,226,0
918369,35,-13,233,0
918380,36,-11,234,0
918391,39,-13,234,0
918402,39,-15,230,0
918413,36,-15,228,0
918424,33,-13,224,0
918435,29,-17,222,0
918446,31,-23,220,0
918457,35,-27,218,0
918468,40,-25,219,0
918479,51,-26,218,0
918490,60,-29,216,0
918501,67,-30,215,0
918512,62,-23,215,0
918523,73,-24,213,0
918534,63,-15,216,0
918545,51,-8,222,0
918556,26,-12,229,0
918567,27,-17,233,0
918578,31,-20,234,0
918589,38,-24,227,0
918600,49,-27,224,0
918611,60,-25,221,0
918622,60,-16,221,0
918633,51,-4,222,0
918644,30,1,220,0
918655,6,2,221,0
918666,3,-7,231,0
918677,10,-16,233,0
918688,23,-23,232,0
918699,38,-30,228,0
918710,66,-32,220,0
918721,59,-18,221,0
918732,35,-10,215,0
918743,24,-16,225,0
918754,24,-17,239,0
918765,10,-13,240,0
918776,5,-21,233,0
918787,18,-36,228,0
918798,30,-42,227,0
918809,36,-41,226,0
918820,44,-32,228,0
918831,40,-15,239,0
918842,25,3,251,0
918853,16,2,258,0
918864,5,-21,242,0
918875,5,-27,237,0
918886,3,-31,234,0
918897,4,-32,234,0
918908,9,-30,244,0
918919,14,-19,260,0
918930,15,-12,272,0
918941,19,-14,275,0
918952,17,-16,267,0
918963,5,-19,252,0
918974,-1,-27,251,0
918985,-7,-32,257,0
918996,-3,-34,257,0
919007,4,-33,259,0
919018,22,-18,260,0
919029,27,-24,254,0
919040,28,-27,257,0
919051,31,-30,256,0
919062,32,-31,254,0
919073,36,-36,255,0
919084,44,-38,254,0
919095,51,-43,249,0
919106,58,-49,248,0
919117,60,-47,246,0
919128,55,-45,245,0
919139,50,-42,244,0
919150,46,-42,251,0
919161,42,-46,245,0
919172,47,-51,239,0
919183,43,-52,237,0
919194,55,-62,226,0
919205,60,-65,218,0
919216,61,-64,212,0
919227,64,-65,207,0
919238,68,-69,203,0
919249,72,-75,196,0
919260,74,-77,193,0
919271,75,-72,196,0
919282,78,-68,196,0
919293,87,-66,198,0
919304,97,-70,193,0
919315,118,-97,161,0
919326,127,-103,151,0
919337,129,-108,141,0
919348,141,-113,134,0
919359,154,-106,136,0
919370,161,-106,134,0
919381,168,-106,137,0
919392,170,-101,136,0
919403,157,-90,140,0
919414,143,-92,144,0
919425,121,-98,161,0
919436,87,-101,168,0
919447,79,-85,167,0
919458,86,-68,177,0
919469,117,-80,174,0
919480,115,-73,166,0
919491,126,-84,165,0
919502,148,-70,164,0
919513,162,-71,146,0
919524,181,-68,157,0
919535,195,-59,138,0
919546,204,-50,137,0
919557,247,-75,148,0
919568,290,-100,122,0
919579,273,-89,120,0
919590,257,-128,154,0
919601,264,-163,137,0
919612,268,-111,115,0
919623,245,-122,118,0
919634,228,-109,85,0
919645,213,-85,86,0
919656,223,-93,74,0
919667,209,-84,93,0
919678,197,-117,121,0
919689,190,-111,119,0
919700,174,-79,108,0
919711,170,-96,93,0
919722,167,-108,73,0
919733,139,-113,39,0
919744,125,-138,16,0
919755,120,-123,4,0
919766,110,-98,15,0
919777,98,-98,20,0
919788,81,-82,24,0
919799,78,-81,39,0
919810,65,-72,42,0
919821,54,-77,45,0
919832,76,-83,49,0
919843,117,-69,48,0
919854,167,-42,51,0
919865,208,-43,64,0
919876,247,-53,82,0
919887,273,-66,92,0
919898,274,-72,94,0
919909,260,-75,81,0
919920,251,-85,75,0
919931,232,-76,69,0
919942,223,-60,67,0
919953,214,-51,64,0
919964,200,-57,63,0
919975,185,-72,62,0
919986,169,-86,59,0
919997,158,-91,50,0
920008,154,-88,40,0
920019,169,-77,34,0
920030,182,-63,31,0
920041,207,-63,33,0
920052,234,-67,35,0
920063,253,-69,37,0
920074,253,-74,38,0
920085,252,-89,62,0
920096,254,-87,72,0
920107,261,-83,85,0
920118,275,-86,88,0
920129,290,-92,88,0
920140,291,-94,75,0
920151,282,-99,60,0
920162,264,-108,48,0
920173,245,-118,40,0
920184,231,-126,32,0
920195,227,-122,28,0
920206,223,-110,25,0
920217,229,-102,25,0
920228,239,-94,23,0
920239,237,-83,13,0
920250,262,-85,6,0
920261,273,-90,3,0
920272,288,-100,0,0
920283,309,-108,-1,0
920294,323,-109,-7,0
920305,333,-113,-20,0
920316,331,-106,-31,0
920327,320,-96,-41,0
920338,292,-87,-48,0
920349,255,-88,-43,0
920360,242,-111,-41,0
920371,253,-124,-35,0
920382,289,-113,-3,0
920393,311,-114,4,0
920404,326,-111,0,0
920415,322,-98,-14,0
920426,302,-74,-28,0
920437,268,-68,-36,0
920448,250,-83,-43,0
920459,238,-102,-37,0
920470,243,-107,-31,0
920481,260,-109,-23,0
920492,278,-112,-24,0
920503,295,-117,-27,0
920514,304,-114,-28,0
920525,297,-107,-37,0
920536,273,-91,-44,0
920547,269,-87,-44,0
920558,279,-93,-44,0
920569,298,-97,-41,0
920580,318,-108,-40,0
920591,336,-119,-38,0
920602,350,-123,-39,0
920613,354,-126,-39,0
920624,353,-125,-44,0
920635,342,-121,-50,0
920646,333,-119,-51,0
920657,333,-121,-48,0
920668,337,-117,-45,0
920679,344,-118,-40,0
920690,343,-119,-26,0
920701,334,-119,-25,0
920712,320,-117,-22,0
920723,310,-119,-20,0
920734,303,-117,-23,0
920745,299,-109,-22,0
920756,300,-102,-24,0
920767,305,-100,-22,0
920778,311,-100,-20,0
920789,315,-103,-20,0
920800,317,-107,-18,0
920811,318,-108,-17,0
920822,316,-109,-16,0
920834,306,-103,-13,0
920845,303,-100,-11,0
920856,299,-98,-11,0
920867,292,-100,-10,0
920878,285,-98,-13,0
920889,272,-93,-14,0
920900,260,-92,-14,0
920911,249,-93,-11,0
920922,240,-97,-5,0
920933,235,-107,-1,0
920944,234,-114,2,0
920955,232,-117,11,0
920966,230,-118,16,0
920977,229,-120,24,0
920988,221,-112,29,0
920999,214,-108,31,0
921010,207,-107,32,0
921021,200,-107,35,0
921032,194,-109,38,0
921043,187,-106,40,0
921054,177,-99,44,0
921065,165,-92,43,0
921076,147,-78,44,0
921087,125,-61,43,0
921098,104,-52,42,0
921109,87,-53,47,0
921120,76,-57,50,0
921131,72,-63,46,0
921142,68,-58,43,0
921153,70,-54,39,0
921164,72,-47,33,0
921175,73,-41,28,0
921186,77,-42,25,0
921197,80,-46,20,0
921208,85,-51,21,0
921219,91,-55,27,0
921230,98,-53,32,0
921241,101,-45,36,0
921252,110,-44,37,0
921263,116,-45,38,0
921274,129,-52,38,0
921285,148,-62,39,0
921296,179,-71,31,0
921307,188,-68,24,0
921318,191,-69,16,0
921329,192,-71,11,0
921340,191,-79,9,0
921351,191,-89,7,0
921362,194,-98,8,0
921373,203,-101,8,0
921384,217,-99,10,0
921395,234,-89,8,0
921406,247,-83,6,0
921417,256,-86,3,0
921428,256,-91,0,0
921439,268,-109,-6,0
921450,270,-109,-7,0
921461,273,-103,-6,0
921472,280,-96,-6,0
921483,282,-94,-7,0
921494,292,-100,-9,0
921505,297,-104,-9,0
921516,295,-112,-15,0
921527,293,-124,-20,0
921538,290,-128,-24,0
921549,290,-129,-33,0
921560,291,-116,-42,0
921571,288,-103,-48,0
921582,298,-110,-50,0
921593,326,-126,-26,0
921604,339,-136,-20,0
921615,356,-142,-23,0
921626,367,-126,-29,0
921637,369,-106,-35,0
921648,359,-90,-37,0
921659,371,-101,-52,0
921670,379,-117,-49,0
921681,384,-124,-47,0
921692,387,-129,-46,0
921703,387,-134,-45,0
921714,388,-134,-49,0
921725,384,-136,-53,0
921736,375,-134,-55,0
921747,352,-123,-65,0
921758,346,-113,-61,0
921769,345,-108,-55,0
921780,348,-106,-46,0
921791,349,-101,-39,0
921802,348,-95,-32,0
921813,341,-89,-27,0
921824,332,-88,-26,0
921835,322,-89,-26,0
921846,314,-96,-27,0
921858,307,-103,-24,0
921869,303,-109,-21,0
921880,304,-111,-19,0
921891,307,-100,-18,0
921902,305,-91,-18,0
921913,301,-84,-15,0
921924,293,-81,-12,0
921935,283,-83,-8,0
921946,271,-85,-1,0
921958,258,-84,1,0
921969,244,-83,3,0
921980,232,-83,10,0
921991,220,-83,16,0
922002,210,-84,20,0
922013,202,-88,26,0
922024,193,-89,35,0
922035,188,-84,38,0
922046,179,-77,41,0
922057,169,-70,45,0
922068,161,-63,48,0
922079,154,-59,46,0
922090,146,-50,47,0
922101,137,-41,46,0
922112,128,-33,43,0
922123,120,-29,39,0
922134,111,-24,37,0
922145,101,-21,30,0
922156,94,-22,24,0
922167,88,-27,15,0
922179,84,-36,13,0
922190,86,-39,18,0
922201,90,-41,19,0
922212,92,-42,19,0
922223,95,-42,20,0
922234,101,-39,22,0
922245,106,-38,23,0
922256,113,-41,25,0
922267,123,-44,31,0
922278,130,-46,37,0
922289,140,-52,40,0
922300,154,-53,45,0
922311,179,-50,50,0
922322,189,-49,47,0
922333,193,-52,41,0
922345,195,-59,32,0
922356,194,-65,24,0
922367,193,-70,19,0
922378,195,-78,15,0
922389,200,-88,13,0
922400,205,-91,8,0
922411,209,-97,6,0
922422,214,-103,4,0
922433,219,-102,2,0
922444,228,-101,1,0
922455,251,-100,0,0
922466,273,-104,4,0
922477,294,-104,7,0
922488,313,-107,4,0
922499,329,-103,1,0
922510,336,-92,-7,0
922521,332,-79,-17,0
922532,314,-65,-27,0
922543,287,-68,-35,0
922554,281,-92,-39,0
922565,291,-112,-30,0
922576,308,-124,-23,0
922587,328,-133,-22,0
922598,353,-132,-27,0
922609,385,-106,-51,0
922620,386,-101,-59,0
922631,385,-111,-59,0
922642,379,-124,-53,0
922653,379,-128,-45,0
922664,386,-128,-35,0
922675,402,-117,-26,0
922686,414,-104,-23,0
922697,420,-97,-27,0
922708,416,-100,-32,0
922719,401,-112,-35,0
922730,400,-133,-45,0
922741,380,-139,-47,0
922752,360,-134,-50,0
922763,332,-125,-42,0
922774,325,-121,-32,0
922785,323,-115,-25,0
922797,319,-107,-17,0
922808,317,-103,-14,0
922819,317,-102,-15,0
922830,319,-99,-15,0
922841,319,-96,-14,0
922852,319,-98,-15,0
922863,316,-100,-19,0
922874,305,-99,-18,0
922885,295,-102,-15,0
922896,282,-102,-14,0
922907,256,-108,-12,0
922918,245,-110,-8,0
922929,237,-111,-6,0
922940,232,-107,0,0
922951,233,-101,7,0
922962,238,-93,18,0
922973,245,-85,26,0
922984,248,-78,32,0
922995,249,-76,35,0
923006,246,-70,36,0
923017,239,-67,35,0
923028,228,-66,29,0
923039,209,-67,21,0
923050,192,-70,15,0
923061,160,-70,11,0
923072,146,-68,16,0
923083,137,-62,24,0
923094,129,-53,34,0
923105,124,-42,39,0
923116,118,-38,42,0
923127,116,-33,48,0
923138,118,-32,48,0
923149,115,-30,52,0
923160,115,-28,52,0
923171,112,-25,52,0
923182,109,-25,49,0
923193,103,-25,45,0
923204,97,-27,39,0
923215,89,-36,24,0
923226,92,-41,21,0
923237,97,-41,22,0
923248,106,-41,23,0
923259,120,-40,26,0
923270,130,-36,26,0
923281,140,-36,25,0
923292,147,-38,23,0
923303,151,-45,16,0
923314,157,-57,14,0
923325,164,-65,16,0
923336,172,-70,21,0
923347,186,-75,28,0
923358,212,-72,36,0
923369,217,-69,33,0
923380,217,-72,26,0
923391,221,-83,21,0
923402,225,-89,22,0
923413,233,-99,24,0
923424,246,-103,24,0
923435,254,-97,17,0
923446,258,-92,5,0
923457,258,-84,-7,0
923468,256,-85,-20,0
923479,260,-95,-28,0
923490,267,-105,-26,0
923501,274,-113,-23,0
923512,309,-120,-14,0
923523,318,-107,-17,0
923534,319,-99,-28,0
923545,317,-99,-37,0
923556,317,-103,-38,0
923567,319,-111,-35,0
923578,317,-121,-34,0
923589,323,-128,-40,0
923600,332,-122,-43,0
923611,349,-117,-50,0
923622,366,-113,-56,0
923633,382,-112,-57,0
923644,399,-120,-51,0
923655,416,-129,-45,0
923666,430,-132,-43,0
923677,430,-127,-46,0
923688,420,-118,-49,0
923699,422,-113,-63,0
923710,394,-117,-46,0
923721,379,-122,-20,0
923732,363,-111,-5,0
923743,355,-118,-4,0
923754,343,-121,-11,0
923765,319,-116,-2,0
923776,306,-103,1,0
923787,298,-102,-2,0
923798,299,-99,-5,0
923809,302,-91,-1,0
923820,311,-78,1,0
923831,311,-74,2,0
923842,308,-75,0,0
923853,301,-80,-2,0
923864,294,-86,-5,0
923875,284,-87,-6,0
923886,280,-91,-4,0
923897,278,-92,0,0
923908,275,-88,4,0
923919,273,-83,10,0
923930,268,-75,18,0
923941,262,-72,22,0
923952,256,-67,29,0
923963,251,-63,34,0
923974,240,-59,41,0
923985,234,-58,44,0
923996,229,-59,46,0
924007,223,-60,47,0
924018,217,-62,48,0
924029,209,-61,46,0
924040,199,-60,43,0
924051,187,-59,42,0
924062,175,-53,43,0
924073,164,-50,44,0
924084,151,-41,46,0
924095,140,-32,50,0
924106,129,-24,51,0
924117,121,-16,52,0
924128,111,-9,58,0
924139,108,-9,60,0
924150,108,-10,59,0
924161,108,-17,57,0
924172,111,-22,53,0
924183,111,-25,51,0
924194,109,-27,47,0
924205,109,-28,48,0
924216,109,-29,46,0
924227,106,-26,44,0
924238,107,-26,41,0
924249,108,-24,34,0
924260,109,-24,30,0
924271,118,-26,30,0
924282,146,-34,32,0
924293,164,-34,36,0
924304,181,-36,34,0
924315,191,-39,32,0
924326,200,-43,30,0
924337,206,-47,29,0
924348,211,-51,26,0
924359,212,-52,21,0
924370,213,-54,19,0
924381,212,-52,18,0
924392,210,-55,19,0
924403,206,-53,23,0
924414,208,-62,24,0
924425,217,-84,23,0
924436,223,-96,17,0
924447,235,-104,10,0
924458,247,-104,3,0
924469,265,-107,0,0
924481,283,-100,-1,0
924492,296,-99,-2,0
924503,309,-101,-7,0
924514,313,-100,-10,0
924525,316,-100,-12,0
924536,319,-102,-12,0
924547,317,-99,-13,0
924558,314,-108,-14,0
924569,323,-129,-15,0
924580,339,-131,-15,0
924591,358,-127,-14,0
924602,375,-120,-15,0
924613,387,-113,-14,0
924624,393,-114,-13,0
924635,399,-122,-14,0
924646,399,-133,-14,0
924657,401,-142,-14,0
924668,407,-147,-13,0
924679,412,-145,-14,0
924690,414,-142,-16,0
924701,414,-139,-19,0
924712,407,-136,-22,0
924723,378,-127,-22,0
924734,359,-120,-16,0
924745,340,-110,-8,0
924756,328,-103,-2,0
924767,321,-101,0,0
924778,320,-101,1,0
924789,321,-98,2,0
924800,322,-94,3,0
924811,321,-94,2,0
924822,320,-96,-1,0
924833,319,-99,-3,0
924844,314,-101,-9,0
924855,305,-102,-12,0
924866,299,-103,-13,0
924877,280,-97,-5,0
924888,274,-95,1,0
924899,265,-90,8,0
924910,260,-86,14,0
924921,257,-81,21,0
924932,253,-77,26,0
924943,250,-76,31,0
924954,247,-76,33,0
924965,244,-75,34,0
924976,240,-75,34,0
924987,235,-75,35,0
924998,227,-73,33,0
925009,218,-72,34,0
925020,203,-79,31,0
925031,199,-78,34,0
925042,194,-73,34,0
925053,190,-64,39,0
925064,184,-56,40,0
925075,175,-44,39,0
925086,159,-33,38,0
925097,140,-26,38,0
925108,123,-22,37,0
925119,105,-20,37,0
925130,88,-20,41,0
925141,77,-25,43,0
925152,75,-33,44,0
925163,74,-37,38,0
925174,80,-36,38,0
925185,86,-37,35,0
925196,93,-41,35,0
925207,99,-40,40,0
925218,106,-43,42,0
925229,116,-41,42,0
925240,118,-38,41,0
925251,124,-34,43,0
925262,131,-33,43,0
925273,139,-34,44,0
925284,150,-37,48,0
925295,160,-38,51,0
925306,166,-42,53,0
925317,170,-48,53,0
925328,178,-62,46,0
925339,185,-64,43,0
925350,192,-57,36,0
925361,199,-49,31,0
925372,207,-47,27,0
925383,215,-53,27,0
925394,228,-63,28,0
925405,244,-73,30,0
925416,256,-80,35,0
925427,262,-87,31,0
925438,267,-91,21,0
925449,266,-97,9,0
925460,266,-107,3,0
925471,263,-114,4,0
925482,266,-123,3,0
925493,274,-111,3,0
925504,284,-98,1,0
925515,292,-87,-3,0
925526,295,-82,-5,0
925537,303,-97,-6,0
925548,316,-110,0,0
925559,325,-124,5,0
925570,340,-135,6,0
925581,356,-140,-1,0
925592,367,-137,-17,0
925603,375,-134,-39,0
925614,375,-130,-54,0
925625,381,-141,-58,0
925636,387,-163,-36,0
925647,391,-168,-20,0
925658,396,-173,-10,0
925669,394,-162,-7,0
925680,386,-149,-12,0
925691,361,-138,-8,0
925702,366,-135,-21,0
925713,353,-139,-21,0
925724,338,-141,-15,0
925735,323,-134,-10,0
925746,315,-124,-7,0
925757,309,-112,-2,0
925768,311,-110,0,0
925779,322,-121,3,0
925790,326,-127,2,0
925801,328,-131,-2,0
925812,327,-126,-10,0
925823,323,-119,-13,0
925834,319,-107,-12,0
925845,312,-101,-3,0
925856,301,-98,3,0
925867,288,-97,9,0
925878,273,-95,13,0
925889,261,-93,19,0
925900,254,-90,24,0
925911,248,-85,28,0
925922,245,-83,28,0
925933,240,-83,27,0
925944,240,-83,28,0
925955,238,-80,30,0
925966,239,-78,33,0
925977,237,-72,33,0
925988,233,-68,32,0
925999,226,-67,26,0
926010,220,-69,22,0
926021,210,-69,19,0
926032,200,-70,20,0
926043,189,-65,19,0
926054,178,-63,21,0
926065,167,-57,27,0
926076,144,-45,40,0
926089,137,-41,51,0
926100,131,-33,58,0
926111,125,-27,62,0
926122,119,-22,64,0
926133,112,-19,63,0
926144,106,-18,60,0
926155,103,-19,56,0
926166,98,-18,50,0
926177,95,-19,46,0
926188,97,-22,40,0
926199,103,-24,41,0
926210,113,-23,39,0
926221,118,-24,35,0
926232,122,-28,30,0
926243,126,-31,27,0
926254,130,-30,28,0
926265,138,-31,29,0
926276,146,-34,33,0
926287,156,-38,36,0
926298,166,-42,38,0
926309,174,-49,39,0
926320,183,-57,39,0
926331,190,-62,37,0
926342,197,-63,34,0
926353,204,-59,37,0
926364,222,-55,34,0
926375,231,-50,34,0
926386,237,-48,29,0
926397,242,-48,22,0
926408,244,-53,14,0
926419,244,-62,2,0
926430,245,-71,-6,0
926441,244,-80,-17,0
926452,246,-89,-22,0
926463,255,-94,-20,0
926474,264,-93,-15,0
926485,279,-95,-10,0
926496,294,-92,-7,0
926507,305,-87,-6,0
926518,330,-85,-13,0
926529,338,-87,-18,0
926540,347,-94,-19,0
926551,352,-100,-17,0
926562,361,-112,-13,0
926573,367,-117,-10,0
926584,375,-116,-7,0
926595,378,-109,-16,0
926606,371,-104,-29,0
926617,366,-110,-37,0
926628,363,-116,-36,0
926639,365,-128,-31,0
926650,373,-135,-25,0
926661,400,-141,-28,0
926672,413,-135,-35,0
926683,418,-131,-37,0
926694,409,-123,-32,0
926705,399,-113,-28,0
926716,387,-108,-19,0
926727,371,-101,-7,0
926738,356,-92,1,0
926749,346,-81,3,0
926760,340,-75,4,0
926771,336,-74,2,0
926782,334,-81,0,0
926793,331,-89,-7,0
926804,328,-91,-12,0
926815,317,-94,-17,0
926826,309,-90,-18,0
926837,302,-85,-17,0
926848,296,-83,-15,0
926859,295,-83,-10,0
926870,293,-85,-8,0
926881,288,-88,-5,0
926892,283,-91,-1,0
926903,276,-92,1,0
926914,267,-89,7,0
926925,257,-83,12,0
926936,252,-78,19,0
926947,241,-71,27,0
926958,234,-65,30,0
926969,218,-55,32,0
926980,211,-54,36,0
926991,209,-57,37,0
927002,208,-58,39,0
927013,208,-56,42,0
927024,208,-55,45,0
927035,205,-53,49,0
927046,203,-49,51,0
927057,195,-46,54,0
927069,186,-43,58,0
927080,172,-40,58,0
927091,156,-40,57,0
927102,138,-41,53,0
927113,107,-37,48,0
927124,97,-37,46,0
927135,90,-37,50,0
927146,92,-35,56,0
927157,92,-29,62,0
927168,95,-21,65,0
927179,95,-21,64,0
927190,95,-19,64,0
927201,95,-18,62,0
927212,96,-20,61,0
927223,96,-24,54,0
927234,99,-34,49,0
927245,105,-41,46,0
927256,124,-44,37,0
927267,133,-41,36,0
927278,143,-42,34,0
927289,150,-42,37,0
927300,153,-45,42,0
927311,153,-53,45,0
927322,157,-60,50,0
927333,167,-63,57,0
927344,182,-65,63,0
927355,196,-65,64,0
927366,212,-60,63,0
927377,219,-53,58,0
927388,216,-47,47,0
927399,206,-45,37,0
927410,182,-67,31,0
927421,193,-85,31,0
927432,213,-93,36,0
927443,237,-96,36,0
927454,257,-98,25,0
927465,269,-91,15,0
927476,269,-82,3,0
927487,261,-72,-2,0
927498,256,-73,-6,0
927509,260,-84,-9,0
927520,270,-92,-4,0
927531,281,-101,-1,0
927542,297,-115,0,0
927553,311,-115,-2,0
927564,318,-133,-11,0
927575,324,-137,-13,0
927586,334,-134,-17,0
927597,345,-114,-17,0
927608,363,-91,-13,0
927619,384,-74,-2,0
927630,409,-73,7,0
927641,423,-82,14,0
927652,437,-103,18,0
927663,440,-122,20,0
927674,430,-130,10,0
927685,407,-134,-6,0
927696,384,-132,-21,0
927707,366,-130,-26,0
927718,360,-134,-19,0
927729,364,-133,-12,0
927740,365,-133,-5,0
927751,362,-130,1,0
927762,357,-129,7,0
927773,348,-129,11,0
927784,342,-128,9,0
927795,338,-123,9,0
927806,337,-116,7,0
927817,339,-105,9,0
927828,342,-96,11,0
927839,345,-91,12,0
927850,343,-88,9,0
927861,334,-90,8,0
927872,312,-95,2,0
927883,298,-97,2,0
927894,285,-99,1,0
927905,276,-102,3,0
927916,267,-101,9,0
927927,259,-100,15,0
927938,252,-97,23,0
927949,244,-90,28,0
927960,236,-83,35,0
927971,230,-78,46,0
927982,227,-72,52,0
927993,227,-70,59,0
928004,228,-69,62,0
928015,225,-67,61,0
928026,217,-66,55,0
928038,207,-66,50,0
928049,195,-67,46,0
928060,183,-66,46,0
928071,170,-63,48,0
928082,160,-60,53,0
928093,152,-57,56,0
928104,150,-48,62,0
928115,147,-37,65,0
928126,143,-31,66,0
928137,138,-25,65,0
928148,132,-23,61,0
928159,118,-26,55,0
928170,113,-28,54,0
928181,110,-27,54,0
928192,107,-23,52,0
928203,105,-19,51,0
928214,101,-14,52,0
928225,100,-12,51,0
928236,99,-16,46,0
928247,97,-21,49,0
928258,97,-31,48,0
928269,97,-42,44,0
928280,104,-49,41,0
928291,112,-51,38,0
928302,124,-48,40,0
928313,150,-46,40,0
928324,160,-46,43,0
928335,167,-48,45,0
928346,175,-51,48,0
928357,184,-56,52,0
928368,192,-59,54,0
928379,198,-60,53,0
928390,203,-61,49,0
928401,207,-64,41,0
928412,208,-69,35,0
928423,210,-81,32,0
928434,214,-92,35,0
928445,221,-101,38,0
928456,230,-101,40,0
928467,245,-90,33,0
928478,245,-84,27,0
928489,242,-84,20,0
928500,238,-91,17,0
928511,241,-104,22,0
928522,251,-111,29,0
928533,264,-113,32,0
928544,285,-108,27,0
928555,303,-100,14,0
928566,316,-94,3,0
928577,321,-89,-6,0
928588,317,-96,-11,0
928599,316,-116,-8,0
928610,313,-129,15,0
928621,313,-132,23,0
928632,324,-132,24,0
928643,337,-124,13,0
928654,353,-119,-2,0
928665,362,-118,-14,0
928676,364,-124,-29,0
928687,362,-143,-36,0
928698,362,-162,-32,0
928709,368,-177,-26,0
928720,377,-179,-15,0
928731,388,-170,-5,0
928742,396,-154,-6,0
928753,402,-140,-9,0
928764,379,-131,7,0
928775,378,-121,-8,0
928786,374,-125,2,0
928797,362,-117,0,0
928808,344,-108,6,0
928819,329,-100,14,0
928830,319,-98,10,0
928841,311,-97,11,0
928852,303,-96,13,0
928863,299,-99,14,0
928874,296,-103,11,0
928885,292,-109,8,0
928896,288,-115,4,0
928907,283,-118,1,0
928918,273,-117,0,0
928929,270,-114,1,0
928940,267,-102,5,0
928951,265,-93,15,0
928962,261,-88,25,0
928973,259,-85,32,0
928984,257,-86,36,0
928995,255,-87,42,0
929006,252,-89,44,0
929017,248,-92,42,0
929028,241,-94,43,0
929039,238,-101,46,0
929050,233,-99,44,0
929061,224,-92,45,0
929072,201,-76,46,0
929083,189,-66,48,0
929094,176,-62,50,0
929105,165,-61,52,0
929116,156,-59,57,0
929127,146,-59,62,0
929138,136,-61,62,0
929149,131,-63,63,0
929160,128,-62,62,0
929171,123,-56,57,0
929182,116,-46,56,0
929193,107,-37,53,0
929204,100,-36,52,0
929215,96,-33,57,0
929226,96,-38,58,0
929237,96,-36,61,0
929248,99,-32,60,0
929259,103,-34,51,0
929270,111,-35,42,0
929281,117,-36,37,0
929293,121,-38,32,0
929304,124,-42,30,0
929315,130,-48,31,0
929326,138,-52,37,0
929337,148,-51,44,0
929348,159,-53,46,0
929359,175,-60,41,0
929370,178,-61,38,0
929381,182,-63,37,0
929392,186,-65,36,0
929403,190,-65,36,0
929414,195,-66,37,0
929425,200,-73,36,0
929436,203,-76,35,0
929447,205,-82,32,0
929458,209,-88,31,0
929469,211,-90,27,0
929480,214,-92,31,0
929491,221,-89,37,0
929502,231,-86,42,0
929513,256,-86,46,0
929524,267,-86,37,0
929535,272,-88,26,0
929546,274,-93,13,0
929557,276,-104,10,0
929568,283,-112,11,0
929579,292,-113,18,0
929590,308,-112,26,0
929601,330,-106,28,0
929612,352,-96,29,0
929623,369,-86,22,0
929634,377,-81,15,0
929645,382,-90,7,0
929656,380,-104,6,0
929667,374,-123,4,0
929678,369,-126,2,0
929689,364,-126,-4,0
929700,364,-128,-7,0
929711,373,-133,-8,0
929722,387,-134,-5,0
929733,393,-135,-1,0
929744,394,-138,0,0
929755,386,-139,2,0
929766,373,-132,8,0
929777,357,-122,14,0
929788,350,-115,23,0
929799,345,-108,21,0
929810,332,-101,24,0
929821,327,-100,21,0
929832,319,-104,14,0
929843,313,-114,9,0
929854,305,-115,1,0
929865,292,-107,-8,0
929876,284,-107,-13,0
929887,272,-102,-9,0
929898,269,-103,0,0
929909,275,-108,10,0
929920,279,-103,18,0
929931,279,-99,20,0
929942,275,-89,18,0
929953,267,-83,19,0
929964,247,-84,24,0
929975,236,-84,27,0
929986,227,-82,32,0
929997,222,-79,37,0
930008,224,-77,43,0
930019,228,-77,49,0
930030,233,-76,54,0
930041,241,-78,58,0
930052,243,-76,59,0
930063,239,-76,55,0
930074,233,-75,51,0
930085,224,-71,47,0
930096,215,-70,44,0
930107,208,-68,45,0
930118,193,-64,51,0
930129,189,-62,53,0
930140,184,-60,54,0
930151,176,-56,53,0
930162,167,-50,52,0
930173,158,-44,52,0
930184,150,-34,57,0
930195,141,-26,62,0
930207,133,-20,67,0
930218,126,-13,71,0
930229,120,-11,71,0
930240,112,-8,69,0
930251,106,-6,63,0
930262,94,-14,43,0
930273,94,-21,37,0
930284,97,-26,33,0
930295,108,-24,32,0
930306,106,-28,28,0
930317,117,-28,31,0
930328,119,-27,34,0
930339,128,-29,37,0
930350,135,-29,35,0
930361,142,-31,33,0
930372,149,-35,31,0
930383,155,-41,31,0
930394,161,-51,30,0
930405,178,-63,34,0
930416,188,-67,37,0
930427,196,-65,41,0
930438,204,-56,47,0
930449,208,-50,51,0
930460,210,-47,53,0
930471,211,-54,54,0
930482,219,-68,52,0
930493,228,-81,46,0
930504,239,-94,41,0
930515,254,-104,34,0
930526,267,-105,29,0
930537,271,-98,23,0
930548,269,-95,14,0
930559,252,-106,3,0
930570,250,-113,10,0
930581,255,-120,22,0
930592,271,-125,30,0
930603,295,-122,37,0
930614,317,-124,31,0
930625,338,-130,18,0
930636,351,-133,5,0
930647,352,-134,-1,0
930658,348,-131,-2,0
930669,336,-131,2,0
930680,337,-140,13,0
930691,348,-147,30,0
930702,365,-145,43,0
930713,396,-142,34,0
930724,401,-145,19,0
930735,396,-146,6,0
930746,378,-142,-5,0
930757,358,-148,-13,0
930768,347,-155,-12,0
930779,342,-155,-1,0
930790,341,-149,12,0
930801,341,-144,19,0
930812,342,-145,26,0
930823,339,-143,29,0
930834,330,-136,27,0
930845,320,-133,28,0
930856,308,-133,28,0
930867,300,-130,37,0
930878,299,-121,40,0
930889,299,-114,39,0
930900,301,-108,34,0
930912,301,-107,28,0
930923,296,-108,22,0
930934,286,-104,19,0
930945,272,-103,18,0
930956,261,-102,18,0
930967,259,-104,20,0
930978,260,-106,19,0
930989,265,-110,21,0
931000,273,-112,22,0
931011,270,-105,23,0
931022,266,-100,24,0
931033,264,-100,29,0
931044,261,-98,36,0
931055,255,-97,39,0
931066,249,-95,44,0
931077,244,-94,47,0
931088,241,-93,52,0
931099,241,-96,56,0
931110,243,-98,57,0
931121,242,-96,59,0
931132,239,-94,61,0
931143,235,-90,61,0
931154,220,-74,65,0
931165,210,-68,66,0
931176,197,-63,66,0
931187,188,-58,68,0
931198,176,-59,72,0
931209,164,-61,70,0
931220,149,-61,68,0
931231,139,-63,63,0
931242,128,-57,60,0
931253,119,-53,58,0
931264,110,-45,57,0
931275,101,-34,56,0
931286,91,-23,60,0
931297,81,-16,61,0
931308,69,-19,56,0
931319,66,-21,53,0
931330,67,-24,51,0
931341,70,-27,49,0
931352,79,-36,52,0
931363,89,-40,59,0
931374,89,-45,62,0
931385,104,-47,63,0
931396,116,-47,62,0
931407,125,-47,57,0
931418,134,-47,54,0
931429,141,-51,53,0
931440,148,-62,54,0
931451,150,-67,60,0
931462,154,-65,67,0
931473,163,-61,67,0
931484,178,-57,64,0
931495,189,-57,56,0
931506,196,-61,45,0
931517,196,-64,41,0
931528,191,-69,47,0
931539,192,-74,59,0
931550,199,-77,69,0
931561,212,-81,74,0
931572,228,-81,73,0
931583,237,-83,63,0
931594,233,-94,47,0
931605,222,-114,34,0
931616,220,-121,42,0
931627,235,-122,53,0
931638,255,-110,63,0
931649,274,-94,65,0
931660,289,-85,58,0
931671,295,-82,44,0
931682,289,-79,27,0
931693,276,-90,12,0
931704,262,-108,5,0
931715,263,-131,11,0
931726,281,-138,20,0
931737,302,-136,29,0
931748,327,-128,34,0
931759,380,-92,29,0
931770,387,-82,18,0
931781,381,-87,11,0
931792,375,-108,11,0
931803,372,-128,16,0
931814,367,-132,21,0
931825,380,-129,22,0
931836,394,-114,22,0
931847,411,-105,17,0
931858,423,-106,13,0
931869,420,-113,14,0
931880,412,-126,15,0
931891,394,-132,22,0
931902,376,-132,33,0
931913,336,-137,26,0
931924,323,-130,23,0
931935,320,-124,23,0
931946,317,-114,16,0
931957,308,-101,15,0
931968,297,-93,21,0
931979,288,-91,27,0
931990,282,-85,31,0
932001,276,-82,31,0
932012,275,-81,30,0
932023,275,-84,27,0
932034,282,-92,22,0
932045,287,-98,20,0
932056,288,-97,18,0
932067,283,-95,23,0
932078,277,-85,27,0
932089,272,-82,32,0
932100,265,-76,38,0
932111,259,-70,42,0
932122,255,-70,47,0
932133,253,-70,52,0
932144,254,-74,53,0
932155,255,-76,56,0
932166,256,-79,59,0
932177,255,-80,59,0
932188,247,-72,61,0
932199,234,-66,63,0
932210,219,-59,65,0
932221,195,-43,72,0
932232,187,-38,70,0
932243,180,-36,67,0
932254,175,-37,64,0
932265,171,-32,59,0
932277,162,-29,51,0
932288,149,-28,45,0
932299,136,-30,41,0
932310,124,-29,44,0
932321,110,-25,47,0
932332,101,-23,47,0
932343,90,-17,50,0
932354,76,-6,58,0
932365,74,-5,59,0
932376,75,-9,61,0
932387,67,-6,57,0
932398,65,-12,48,0
932409,72,-23,43,0
932420,76,-26,46,0
932431,88,-32,39,0
932442,112,-34,45,0
932453,125,-39,43,0
932464,141,-38,48,0
932475,152,-38,51,0
932486,162,-44,52,0
932497,169,-51,49,0
932508,179,-64,50,0
932519,183,-64,49,0
932530,193,-65,49,0
932541,204,-64,49,0
932552,218,-64,49,0
932563,220,-60,45,0
932574,248,-61,45,0
932585,243,-63,45,0
932596,240,-64,54,0
932607,241,-86,39,0
932618,244,-105,41,0
932629,249,-107,33,0
932640,242,-100,32,0
932651,245,-96,27,0
932662,266,-93,15,0
932673,276,-94,27,0
932684,285,-108,35,0
932695,300,-119,37,0
932706,312,-115,37,0
932717,324,-109,31,0
932728,334,-102,18,0
932739,338,-98,4,0
932750,345,-100,-3,0
932761,351,-106,-1,0
932772,369,-120,2,0
932783,389,-127,11,0
932794,407,-126,19,0
932805,414,-128,18,0
932816,409,-134,14,0
932827,405,-148,24,0
932838,389,-137,-19,0
932849,402,-152,34,0
932860,410,-174,57,0
932871,373,-148,130,0
932882,-36,-408,17,0
932893,305,318,-71,0
932904,511,35,135,0
932915,393,-95,15,0
932926,346,-23,118,0
932937,297,32,173,0
932948,331,-6,136,0
932959,325,-31,94,0
932970,308,-19,109,0
932981,294,-14,109,0
932992,294,-23,98,0
933003,287,-17,94,0
933014,269,-10,93,0
933025,256,-8,93,0
933036,245,-13,91,0
933047,235,-19,92,0
933058,225,-23,97,0
933069,223,-25,107,0
933080,217,-20,115,0
933091,214,-17,116,0
933102,211,-7,115,0
933113,199,9,114,0
933124,202,10,112,0
933135,203,11,109,0
933146,202,6,104,0
933157,201,-1,99,0
933168,202,-11,88,0
933179,203,-19,81,0
933190,202,-23,74,0
933201,198,-22,71,0
933212,193,-17,73,0
933223,187,-11,80,0
933234,176,1,88,0
933245,164,8,94,0
933256,147,17,97,0
933267,123,14,99,0
933278,115,10,100,0
933289,105,7,99,0
933300,97,6,91,0
933311,94,5,80,0
933322,84,-9,81,0
933333,71,-4,72,0
933344,133,24,94,0
933355,119,12,90,0
933366,98,1,80,0
933377,85,-7,69,0
933388,71,-9,62,0
933399,75,-6,68,0
933410,91,-3,61,0
933421,199,28,91,0
933432,117,-12,46,0
933443,122,-17,48,0
933454,127,-10,62,0
933465,130,-6,74,0
933476,133,-14,77,0
933487,138,-20,75,0
933498,151,-18,78,0
933509,163,-16,82,0
933520,170,-14,85,0
933531,176,-13,83,0
933542,185,-17,82,0
933553,192,-18,79,0
933564,199,-38,82,0
933575,200,-38,77,0
933586,219,-29,77,0
933597,220,-22,72,0
933608,222,-12,79,0
933619,257,-18,88,0
933630,281,-43,78,0
933641,269,-45,68,0
933652,275,-27,89,0
933663,290,-19,97,0
933674,303,-21,80,0
933685,304,-23,55,0
933696,314,-15,69,0
933707,317,-23,74,0
933718,360,-25,116,0
933729,361,-21,115,0
933740,368,-10,122,0
933751,377,-2,118,0
933762,384,-9,104,0
933773,383,-17,78,0
933784,384,-28,76,0
933795,390,-32,91,0
933806,394,-22,104,0
933817,401,-6,112,0
933828,405,2,119,0
933839,417,-5,118,0
933850,426,5,119,0
933861,423,-25,102,0
933872,387,-22,87,0
933883,377,-24,69,0
933894,360,-8,73,0
933905,337,0,80,0
933916,321,-1,87,0
933927,315,-15,93,0
933938,311,-28,99,0
933949,306,-33,104,0
933960,307,-37,103,0
933971,317,-34,99,0
933982,318,-17,100,0
933993,313,-2,91,0
934004,308,2,89,0
934015,299,5,92,0
934026,271,5,91,0
934037,258,-4,92,0
934048,248,-17,91,0
934059,244,-26,91,0
934070,240,-27,89,0
934081,236,-27,90,0
934092,234,-26,94,0
934103,232,-22,98,0
934114,229,-15,101,0
934125,219,-8,101,0
934136,209,-7,105,0
934147,200,-4,107,0
934158,196,-7,113,0
934169,194,-2,119,0
934180,194,12,125,0
934191,195,12,125,0
934202,195,9,125,0
934213,193,3,117,0
934224,187,-3,116,0
934235,176,-13,103,0
934246,161,-19,100,0
934257,146,-23,96,0
934268,127,-17,97,0
934279,108,-11,90,0
934290,92,-2,84,0
934301,73,1,69,0
934312,79,-2,91,0
934323,66,-9,70,0
934334,73,-13,62,0
934345,82,-13,60,0
934356,89,-16,52,0
934367,93,-9,51,0
934378,92,-6,47,0
934389,98,-1,54,0
934400,98,-10,53,0
934411,102,-13,56,0
934422,100,-21,56,0
934433,101,-16,61,0
934444,108,-15,63,0
934455,119,-16,68,0
934466,128,-24,68,0
934477,145,-19,71,0
934488,153,-14,72,0
934499,158,-11,71,0
934510,169,-18,71,0
934522,173,-21,74,0
934533,172,-29,76,0
934544,167,-34,77,0
934555,174,-31,81,0
934566,172,-35,76,0
934577,164,-31,80,0
934588,198,-20,89,0
934599,222,-7,103,0
934610,228,-3,115,0
934621,266,-29,97,0
934632,280,-28,103,0
934643,266,-1,102,0
934654,279,2,82,0
934665,297,-9,73,0
934676,304,-11,88,0
934687,309,-8,103,0
934698,330,-2,113,0
934709,331,-4,99,0
934720,338,-1,96,0
934731,345,4,99,0
934742,359,6,102,0
934753,392,-1,94,0
934764,389,13,91,0
934775,415,23,91,0
934786,424,17,100,0
934797,426,11,110,0
934808,409,13,105,0
934819,402,10,113,0
934830,387,-10,115,0
934841,372,-25,117,0
934852,361,-36,121,0
934863,345,-37,121,0
934874,325,-29,122,0
934885,319,-17,114,0
934896,314,-2,108,0
934907,320,-1,101,0
934918,324,-4,100,0
934929,327,-13,96,0
934940,329,-19,95,0
934951,322,-14,98,0
934962,319,-9,102,0
934973,311,0,109,0
934984,303,7,112,0
934995,297,14,112,0
935006,291,16,108,0
935017,285,14,109,0
935028,283,7,111,0
935039,284,1,109,0
935050,285,-11,108,0
935061,284,-18,108,0
935072,275,-15,108,0
935083,265,-4,112,0
935094,253,7,117,0
935106,238,16,121,0
935117,223,23,120,0
935128,212,21,116,0
935139,202,15,111,0
935150,195,7,103,0
935161,191,1,93,0
935172,184,-4,85,0
935183,180,-10,80,0
935194,175,-6,84,0
935205,171,-2,89,0
935216,164,5,101,0
935227,159,6,105,0
935238,151,9,109,0
935249,143,13,111,0
935260,131,6,97,0
935271,121,17,96,0
935282,113,19,91,0
935293,99,20,80,0
935304,77,22,62,0
935315,86,-24,67,0
935326,80,-1,64,0
935337,87,-7,72,0
935349,96,6,77,0
935360,87,5,66,0
935371,85,5,67,0
935382,64,-3,56,0
935393,107,11,77,0
935404,76,-23,58,0
935415,74,-18,64,0
935426,114,-17,71,0
935437,70,-54,45,0
935448,-14,-75,18,0
935459,12,-73,11,0
935470,26,18,-13,0
935481,44,-48,1,0
935492,47,7,-10,0
935503,511,-101,182,0
935514,511,156,28,0
935525,238,13,84,0
935536,149,12,0,0
935547,334,-3,128,0
935558,228,-4,84,0
935569,209,8,76,0
935580,224,6,87,0
935591,213,1,80,0
935602,278,-45,52,0
935613,261,-25,64,0
935624,269,-14,75,0
935635,285,-3,74,0
935646,297,14,65,0
935657,299,52,45,0
935668,300,39,41,0
935679,307,13,48,0
935690,311,0,60,0
935702,316,-4,65,0
935713,319,-1,65,0
935724,322,2,57,0
935735,328,13,42,0
935746,336,25,29,0
935757,341,30,21,0
935768,343,33,25,0
935779,356,25,43,0
935790,390,27,79,0
935801,413,46,90,0
935812,435,70,85,0
935823,449,74,68,0
935834,447,65,57,0
935845,438,29,37,0
935856,425,5,35,0
935867,412,-9,30,0
935878,388,0,31,0
935889,374,17,40,0
935900,360,32,52,0
935911,353,35,62,0
935922,348,41,76,0
935933,333,39,70,0
935944,315,37,64,0
935955,311,36,60,0
935966,316,30,58,0
935977,312,31,56,0
935988,315,35,55,0
935999,317,37,53,0
936010,315,34,53,0
936021,310,28,51,0
936032,303,18,47,0
936043,291,12,45,0
936054,276,10,44,0
936065,261,13,47,0
936076,246,20,50,0
936087,235,26,55,0
936098,228,28,70,0
936109,231,27,78,0
936120,234,22,83,0
936131,240,12,84,0
936142,240,4,81,0
936153,235,-1,77,0
936164,226,-4,72,0
936175,212,0,72,0
936186,202,2,71,0
936197,193,10,78,0
936208,187,13,82,0
936219,188,10,84,0
936230,183,9,78,0
936241,181,10,73,0
936252,162,11,69,0
936263,150,10,65,0
936274,131,11,66,0
936285,116,17,76,0
936296,101,14,73,0
936307,80,11,67,0
936318,89,8,75,0
936329,73,10,71,0
936340,70,-7,53,0
936351,72,-3,52,0
936362,91,23,51,0
936373,99,-34,55,0
936384,75,-24,29,0
936395,79,10,40,0
936406,104,-8,46,0
936417,106,36,37,0
936428,117,-14,42,0
936439,145,-10,41,0
936450,150,-13,51,0
936461,155,-23,54,0
936472,176,-14,57,0
936483,188,-12,61,0
936494,194,-15,58,0
936505,196,-21,53,0
936516,189,-26,55,0
936527,189,-35,58,0
936538,222,-10,61,0
936550,211,-13,46,0
936561,257,-15,57,0
936572,243,35,103,0
936583,310,3,77,0
936594,283,29,67,0
936605,293,34,60,0
936616,299,31,58,0
936627,292,16,60,0
936638,295,3,54,0
936649,296,-2,51,0
936660,300,-1,48,0
936671,303,4,41,0
936682,306,10,32,0
936693,317,8,6,0
936704,320,-1,8,0
936715,328,-15,23,0
936726,333,-11,43,0
936737,347,-1,57,0
936748,364,11,69,0
936759,380,35,74,0
936770,399,46,78,0
936781,421,45,77,0
936792,439,37,72,0
936803,451,23,62,0
936814,457,14,47,0
936825,456,9,28,0
936836,451,-2,6,0
936847,437,-8,6,0
936858,415,-1,17,0
936869,390,3,30,0
936880,366,11,40,0
936891,336,30,54,0
936902,315,44,63,0
936913,303,51,72,0
936924,292,56,78,0
936935,285,48,75,0
936946,286,33,69,0
936957,301,10,58,0
936968,309,0,53,0
936979,312,1,55,0
936990,316,9,59,0
937001,312,16,65,0
937012,305,17,77,0
937023,300,14,82,0
937034,294,11,75,0
937045,285,11,66,0
937056,277,12,58,0
937067,270,2,49,0
937078,266,-2,48,0
937089,265,-8,54,0
937100,262,-8,61,0
937111,256,-3,67,0
937122,247,2,74,0
937133,234,7,82,0
937144,205,12,93,0
937155,194,8,93,0
937166,188,-1,87,0
937177,186,-12,72,0
937188,177,-17,63,0
937199,166,-17,63,0
937210,158,-14,63,0
937221,151,-7,64,0
937232,138,4,72,0
937243,133,5,74,0
937254,126,10,77,0
937265,121,7,74,0
937276,109,9,74,0
937287,85,10,70,0
937298,83,2,70,0
937309,86,-7,61,0
937320,83,-16,50,0
937331,90,-20,48,0
937342,130,-81,42,0
937353,96,-25,21,0
937364,43,33,95,0
937375,89,1,68,0
937386,86,-3,72,0
937397,85,-47,63,0
937408,132,-34,58,0
937419,143,-33,55,0
937430,149,-34,53,0
937441,167,-32,58,0
937452,167,-27,58,0
937463,165,-30,51,0
937474,189,-31,56,0
937485,172,-22,65,0
937496,154,-54,66,0
937507,217,166,30,0
937518,166,26,69,0
937529,186,-38,18,0
937540,337,-53,49,0
937551,239,0,65,0
937562,235,6,72,0
937573,252,-20,53,0
937584,250,-23,51,0
937595,257,-29,51,0
937606,263,-12,61,0
937617,274,-4,51,0
937628,280,7,48,0
937639,284,14,41,0
937650,288,16,36,0
937661,304,8,38,0
937672,319,13,57,0
937683,336,22,71,0
937694,356,33,82,0
937705,373,45,80,0
937716,388,55,72,0
937727,405,54,62,0
937738,409,59,48,0
937749,393,37,29,0
937760,389,21,31,0
937771,386,16,41,0
937782,383,23,42,0
937793,388,33,41,0
937804,397,36,40,0
937815,405,32,35,0
937826,406,23,31,0
937837,397,7,28,0
937848,390,-4,28,0
937859,373,2,35,0
937870,358,14,40,0
937881,351,31,48,0
937892,348,43,62,0
937903,337,56,72,0
937914,333,42,63,0
937925,327,34,58,0
937936,320,21,46,0
937947,309,11,37,0
937958,303,4,30,0
937969,300,6,32,0
937980,300,17,43,0
937991,299,28,55,0
938002,296,34,63,0
938013,296,36,65,0
938024,289,40,70,0
938035,275,45,66,0
938046,266,39,63,0
938057,258,35,61,0
938068,253,37,63,0
938079,251,39,65,0
938090,248,35,66,0
938101,242,31,66,0
938112,234,24,64,0
938123,225,16,61,0
938134,212,9,59,0
938145,203,5,56,0
938157,199,7,57,0
938168,198,13,58,0
938179,191,27,66,0
938190,191,39,79,0
938201,190,38,80,0
938212,189,33,79,0
938223,182,27,72,0
938234,175,21,63,0
938245,166,16,57,0
938256,162,26,73,0
938267,150,9,54,0
938278,131,9,52,0
938289,114,3,51,0
938300,105,-1,53,0
938311,104,-1,64,0
938323,101,0,72,0
938334,107,6,69,0
938345,114,10,68,0
938356,118,10,57,0
938367,126,8,51,0
938378,128,5,48,0
938389,131,1,49,0
938400,130,6,58,0
938411,128,2,56,0
938422,130,3,61,0
938433,136,3,62,0
938444,141,6,65,0
938455,146,7,67,0
938466,153,6,67,0
938477,175,0,74,0
938488,184,-1,78,0
938499,202,-3,70,0
938510,210,9,69,0
938521,209,23,67,0
938532,224,31,68,0
938543,233,31,69,0
938554,238,25,70,0
938565,253,18,77,0
938576,268,19,78,0
938587,275,27,72,0
938598,280,31,60,0
938609,280,28,43,0
938620,275,21,24,0
938631,270,7,26,0
938642,278,-11,16,0
938653,281,-1,36,0
938664,299,25,59,0
938675,316,38,50,0
938686,327,50,46,0
938697,338,58,40,0
938708,341,55,37,0
938719,335,36,18,0
938730,337,8,9,0
938741,347,-1,21,0
938752,351,18,40,0
938763,362,52,48,0
938774,385,83,58,0
938785,443,123,79,0
938796,464,127,87,0
938807,473,113,84,0
938818,478,86,66,0
938829,464,66,49,0
938840,446,54,29,0
938851,421,47,23,0
938862,398,44,21,0
938873,379,38,28,0
938884,365,30,40,0
938895,352,25,46,0
938906,338,25,46,0
938917,321,32,49,0
938928,310,34,51,0
938939,298,23,57,0
938950,295,22,60,0
938961,291,26,60,0
938972,285,25,60,0
938983,274,30,63,0
938994,264,31,64,0
939005,258,29,63,0
939016,254,27,66,0
939027,253,28,66,0
939038,254,25,64,0
939049,257,23,66,0
939060,264,19,65,0
939071,265,15,65,0
939082,269,12,68,0
939093,261,16,76,0
939104,251,17,80,0
939115,235,19,78,0
939126,218,20,75,0
939137,197,25,70,0
939148,182,21,65,0
939159,168,10,57,0
939170,157,5,52,0
939181,148,2,49,0
939192,141,2,51,0
939203,133,4,54,0
939214,127,7,56,0
939225,120,8,59,0
939236,115,3,61,0
939247,100,3,68,0
939258,91,5,67,0
939269,75,5,66,0
939280,73,12,72,0
939291,65,9,65,0
939302,75,16,72,0
939313,70,7,55,0
939324,82,7,52,0
939335,93,1,42,0
939346,109,-2,36,0
939357,157,-30,40,0
939368,92,35,31,0
939379,188,-64,33,0
939390,152,-10,11,0
939401,175,-5,73,0
939412,184,-25,63,0
939423,189,-26,60,0
939434,180,-16,58,0
939445,196,-4,73,0
939456,184,11,72,0
939467,193,9,67,0
939478,208,-5,60,0
939489,185,10,55,0
939500,252,-4,73,0
939512,248,0,62,0
939523,211,43,83,0
939534,247,4,55,0
939545,255,-2,49,0
939556,262,-2,50,0
939567,272,-2,51,0
939578,288,6,50,0
939589,301,15,48,0
939600,310,32,49,0
939611,315,41,47,0
939622,320,40,53,0
939633,332,30,61,0
939644,349,16,75,0
939655,357,20,84,0
939666,361,32,83,0
939677,377,44,80,0
939688,414,75,66,0
939699,424,86,59,0
939710,437,74,59,0
939721,445,56,59,0
939732,448,42,57,0
939743,445,34,46,0
939754,432,25,33,0
939765,419,16,29,0
939776,407,11,35,0
939787,400,2,43,0
939798,390,1,56,0
939809,379,10,66,0
939820,364,24,77,0
939831,340,26,76,0
939842,308,17,73,0
939853,290,10,71,0
939865,276,3,65,0
939876,260,2,57,0
939887,248,6,53,0
939898,249,6,50,0
939909,242,13,59,0
939920,237,22,68,0
939931,243,19,69,0
939942,254,10,67,0
939953,266,5,63,0
939964,279,1,56,0
939975,300,-1,52,0
939986,305,5,49,0
939997,307,9,51,0
940008,302,22,58,0
940019,296,30,67,0
940030,290,36,75,0
940041,280,39,82,0
940052,273,36,85,0
940063,260,33,88,0
940074,256,23,85,0
940085,251,16,84,0
940096,242,12,86,0
940107,231,7,90,0
940118,218,4,89,0
940129,185,-3,81,0
940140,165,-3,77,0
940151,149,1,78,0
940162,131,5,78,0
940173,119,11,76,0
940184,108,8,76,0
940195,105,2,75,0
940206,109,7,86,0
940217,108,4,75,0
940228,108,6,67,0
940239,102,12,67,0
940250,119,23,92,0
940261,117,2,65,0
940272,117,-9,55,0
940283,101,-5,55,0
940294,158,-56,52,0
940305,114,-22,47,0
940316,79,-17,27,0
940327,110,22,44,0
940338,106,-23,57,0
940349,91,-32,45,0
940360,118,-25,44,0
940371,129,-18,59,0
940382,137,-23,57,0
940393,148,-26,60,0
940404,158,-24,67,0
940415,174,-25,79,0
940426,188,-30,80,0
940437,181,25,50,0
940448,221,13,75,0
940459,212,-10,55,0
940470,196,-12,42,0
940481,270,-1,99,0
940492,199,27,82,0
940503,279,-25,46,0
940514,240,11,71,0
940525,243,20,78,0
940536,254,22,79,0
940547,269,23,79,0
940558,272,24,77,0
940569,280,29,77,0
940580,292,24,66,0
940591,295,30,62,0
940602,290,27,57,0
940613,290,18,56,0
940624,297,8,59,0
940635,305,7,65,0
940646,315,16,70,0
940657,325,31,74,0
940668,339,42,73,0
940679,353,58,69,0
940690,371,71,69,0
940701,384,71,63,0
940712,399,71,65,0
940723,414,69,70,0
940734,433,58,66,0
940745,445,60,64,0
940756,446,59,61,0
940767,438,59,62,0
940778,423,60,63,0
940789,412,56,65,0
940800,392,53,65,0
940811,371,53,69,0
940822,351,48,71,0
940833,331,36,69,0
940844,321,25,74,0
940855,311,20,76,0
940866,304,19,78,0
940877,295,25,79,0
940888,294,44,86,0
940899,302,49,86,0
940910,302,59,92,0
940921,300,62,95,0
940932,302,55,90,0
940943,300,48,79,0
940954,290,39,72,0
940965,288,28,68,0
940976,289,19,68,0
940987,289,25,74,0
940998,285,29,80,0
941009,280,29,86,0
941020,272,31,88,0
941031,262,34,95,0
941042,237,37,98,0
941053,225,31,91,0
941064,214,25,90,0
941075,203,20,86,0
941086,192,16,81,0
941097,182,14,76,0
941108,173,13,76,0
941119,164,10,77,0
941130,156,8,76,0
941141,142,6,77,0
941152,132,5,75,0
941163,120,13,83,0
941174,104,4,61,0
941185,86,11,60,0
941196,82,16,70,0
941207,87,18,76,0
941218,88,21,78,0
941229,87,18,71,0
941240,86,7,55,0
941251,92,6,52,0
941262,101,6,47,0
941273,106,5,44,0
941284,116,1,35,0
941295,108,0,28,0
941306,127,-11,30,0
941317,160,6,41,0
941328,117,-37,0,0
941339,115,13,72,0
941350,137,1,76,0
941361,150,-8,75,0
941372,144,4,73,0
941383,177,-7,79,0
941394,203,-1,80,0
941405,187,17,79,0
941416,192,24,75,0
941427,209,27,91,0
941438,181,17,67,0
941449,257,-14,80,0
941460,230,18,94,0
941471,249,14,77,0
941482,257,26,63,0
941494,254,33,48,0
941505,252,21,49,0
941516,258,3,51,0
941527,267,-7,58,0
941538,281,-2,70,0
941549,295,10,79,0
941560,312,29,87,0
941571,322,53,88,0
941582,331,59,84,0
941593,336,65,80,0
941604,327,66,74,0
941615,310,58,65,0
941626,286,22,52,0
941637,286,7,45,0
941648,303,1,46,0
941659,327,12,54,0
941670,359,24,59,0
941681,394,35,62,0
941692,420,44,64,0
941703,440,43,69,0
941714,449,37,70,0
941725,445,34,67,0
941736,432,38,65,0
941747,410,42,61,0
941758,393,50,63,0
941769,373,62,71,0
941780,342,79,75,0
941791,336,79,76,0
941802,330,81,77,0
941813,327,75,71,0
941824,328,64,65,0
941835,325,54,61,0
941846,322,42,57,0
941857,320,29,55,0
941868,314,26,56,0
941879,302,30,60,0
941890,290,38,64,0
941901,279,43,63,0
941912,268,50,66,0
941923,262,52,64,0
941934,266,48,61,0
941945,271,50,61,0
941956,270,56,65,0
941967,273,58,68,0
941978,274,60,73,0
941989,278,60,78,0
942000,277,56,85,0
942011,277,51,86,0
942022,268,49,82,0
942033,258,48,80,0
942044,244,49,77,0
942055,229,46,77,0
942066,217,44,76,0
942077,206,41,78,0
942088,186,27,84,0
942099,177,18,84,0
942110,170,15,87,0
942121,160,15,84,0
942132,151,20,85,0
942143,142,17,80,0
942154,131,27,84,0
942165,123,25,73,0
942176,117,30,79,0
942187,99,23,63,0
942198,96,15,68,0
942209,114,9,74,0
942220,98,13,81,0
942231,94,2,62,0
942242,91,-4,64,0
942253,96,-7,57,0
942264,95,-9,46,0
942275,93,-6,42,0
942286,99,-4,43,0
942297,105,-1,44,0
942308,108,0,49,0
942319,116,-5,49,0
942330,126,-4,54,0
942341,135,-2,59,0
942352,144,0,58,0
942363,154,6,60,0
942374,160,7,64,0
942385,183,6,63,0
942396,201,13,68,0
942407,195,15,65,0
942418,205,17,69,0
942429,202,31,79,0
942440,219,13,65,0
942451,228,5,59,0
942462,235,15,64,0
942473,237,24,63,0
942484,233,33,76,0
942495,237,33,72,0
942506,243,29,68,0
942517,249,29,67,0
942528,257,32,66,0
942539,265,33,58,0
942550,269,33,54,0
942561,278,36,48,0
942572,291,40,49,0
942583,303,42,51,0
942594,319,45,53,0
942605,335,51,56,0
942616,349,61,56,0
942627,356,69,56,0
942638,364,70,52,0
942649,361,67,48,0
942660,363,62,43,0
942671,367,56,44,0
942682,373,60,50,0
942693,399,84,67,0
942704,417,102,70,0
942715,436,112,67,0
942726,450,114,61,0
942737,451,95,45,0
942748,440,71,38,0
942759,420,42,29,0
942770,409,17,28,0
942781,401,8,35,0
942792,387,19,44,0
942803,368,36,56,0
942814,348,44,65,0
942825,335,44,76,0
942836,324,42,85,0
942847,291,66,83,0
942858,278,59,74,0
942869,277,40,67,0
942880,278,29,53,0
942891,273,31,32,0
942902,274,33,27,0
942913,287,19,30,0
942924,292,23,36,0
942935,292,29,37,0
942946,288,34,45,0
942957,285,35,56,0
942968,277,34,60,0
942979,273,28,59,0
942990,258,12,55,0
943001,253,6,56,0
943012,250,10,58,0
943023,245,17,61,0
943034,239,25,67,0
943045,234,31,75,0
943056,226,36,84,0
943067,219,31,87,0
943078,214,17,91,0
943089,205,10,92,0
943100,194,6,84,0
943111,188,1,77,0
943122,185,-8,71,0
943133,177,-7,66,0
943144,164,2,65,0
943155,163,7,66,0
943166,154,17,71,0
943177,142,19,74,0
943188,134,19,79,0
943199,129,15,71,0
943210,123,12,64,0
943221,110,10,56,0
943232,100,8,48,0
943243,93,6,43,0
943254,96,3,42,0
943265,89,2,38,0
943276,83,5,38,0
943287,91,12,44,0
943298,101,15,50,0
943309,111,18,64,0
943320,121,10,62,0
943331,132,0,60,0
943342,144,-2,61,0
943353,155,-7,59,0
943364,168,-8,57,0
943375,176,0,49,0
943386,181,3,43,0
943397,181,7,43,0
943408,181,4,46,0
943419,188,3,53,0
943430,194,10,62,0
943441,196,17,64,0
943452,235,27,87,0
943463,235,41,84,0
943474,267,30,73,0
943485,279,23,60,0
943496,281,29,59,0
943507,284,19,52,0
943518,275,23,55,0
943529,275,14,49,0
943540,273,12,47,0
943551,274,14,49,0
943562,275,24,49,0
943574,280,41,53,0
943585,301,51,52,0
943596,310,50,52,0
943607,321,34,52,0
943618,334,20,55,0
943629,348,23,56,0
943640,364,33,50,0
943651,383,36,48,0
943662,401,40,43,0
943673,420,46,38,0
943684,439,56,37,0
943695,441,69,37,0
943706,435,70,43,0
943717,428,61,49,0
943728,420,51,49,0
943739,391,32,60,0
943750,376,21,62,0
943761,358,8,58,0
943772,349,-16,50,0
943783,341,-26,47,0
943794,327,-11,53,0
943805,315,2,61,0
943816,298,14,69,0
943827,291,24,76,0
943838,295,27,85,0
943849,306,35,82,0
943860,311,44,70,0
943871,317,43,64,0
943882,319,34,61,0
943893,316,17,44,0
943904,314,5,38,0
943915,313,-2,40,0
943926,307,0,44,0
943937,297,2,50,0
943948,289,2,61,0
943959,275,2,71,0
943970,263,5,79,0
943981,257,12,84,0
943992,253,11,83,0
944003,246,2,76,0
944014,242,-4,71,0
944025,238,-9,64,0
944036,219,-1,48,0
944047,212,-5,42,0
944058,210,-9,46,0
944069,206,-14,50,0
944081,203,-16,51,0
944092,201,-18,53,0
944103,201,-16,51,0
944114,196,-7,50,0
944125,191,-5,48,0
944136,180,-4,52,0
944147,170,-7,61,0
944158,162,-5,71,0
944169,153,2,81,0
944180,131,5,84,0
944191,127,3,76,0
944202,127,1,69,0
944213,132,9,70,0
944224,130,4,57,0
944235,133,1,49,0
944246,131,-2,47,0
944257,130,-4,49,0
944268,128,-2,51,0
944279,127,-7,46,0
944291,132,-7,48,0
944302,129,-1,41,0
944313,139,5,42,0
944324,144,5,43,0
944335,156,5,49,0
944346,166,10,56,0
944357,181,7,57,0
944368,196,6,62,0
944379,209,12,69,0
944390,213,9,69,0
944401,212,4,65,0
944412,207,0,62,0
944423,197,-2,56,0
944434,187,0,55,0
944445,184,1,61,0
944456,187,0,63,0
944467,207,4,65,0
944478,220,11,63,0
944489,223,12,57,0
944500,229,6,54,0
944511,236,4,48,0
944522,241,1,44,0
944533,246,1,46,0
944544,261,-1,52,0
944555,274,6,61,0
944566,292,20,64,0
944577,311,36,68,0
944588,324,49,71,0
944599,323,61,62,0
944610,314,55,48,0
944621,289,1,35,0
944632,287,-11,34,0
944643,292,-6,37,0
944654,309,10,39,0
944665,326,32,45,0
944676,348,47,54,0
944687,368,64,66,0
944698,378,71,69,0
944709,391,69,72,0
944720,384,70,69,0
944731,369,66,62,0
944742,355,60,55,0
944753,351,53,46,0
944764,351,45,29,0
944775,350,43,28,0
944786,350,32,30,0
944797,351,17,39,0
944808,353,6,46,0
944819,354,7,50,0
944830,350,14,54,0
944841,343,19,54,0
944852,334,25,50,0
944863,320,28,42,0
944874,314,38,38,0
944885,310,58,43,0
944896,310,74,51,0
944907,317,80,61,0
944918,341,65,81,0
944929,344,54,77,0
944940,345,36,69,0
944951,333,31,62,0
944962,321,31,57,0
944973,308,33,56,0
944984,290,36,52,0
944995,282,31,50,0
945006,280,23,46,0
945017,276,21,46,0
945028,265,19,46,0
945039,260,12,51,0
945050,259,11,61,0
945061,257,15,68,0
945072,246,33,81,0
945083,246,32,84,0
945094,253,27,86,0
945105,265,15,79,0
945116,275,10,79,0
945127,289,11,79,0
945138,295,20,76,0
945149,297,35,68,0
945160,295,49,59,0
945171,292,57,44,0
945182,291,52,41,0
945193,308,35,53,0
945204,329,16,62,0
945215,343,11,78,0
945226,331,28,82,0
945237,306,40,79,0
945248,270,53,81,0
945259,237,56,74,0
945270,221,52,80,0
945281,202,34,90,0
945292,180,11,109,0
945303,163,-22,126,0
945314,153,-28,148,0
945325,144,-36,159,0
945336,131,-45,141,0
945347,125,-58,87,0
945358,122,-79,38,0
945369,120,-60,38,0
945380,127,-34,35,0
945391,100,-24,27,0
945402,100,-16,26,0
945413,101,-23,16,0
945424,78,-29,22,0
945435,89,-37,33,0
945446,65,-10,49,0
945457,38,5,49,0
945468,81,-9,67,0
945479,88,-40,112,0
945490,47,-17,98,0
945501,110,-61,118,0
945512,118,-52,114,0
945523,75,-27,112,0
945534,84,-19,93,0
945545,96,18,84,0
945556,70,29,98,0
945567,64,39,93,0
945578,56,22,103,0
945589,75,5,113,0
945600,237,-301,214,0
945611,511,-33,401,0
945622,427,410,378,0
945633,402,207,242,0
945644,402,75,169,0
945655,313,74,196,0
945666,267,124,193,0
945677,323,-142,-29,0
945688,281,18,93,0
945699,250,44,135,0
945710,248,41,142,0
945721,217,65,166,0
945732,191,78,186,0
945743,147,87,191,0
945754,112,88,179,0
945765,98,53,129,0
945776,109,39,101,0
945787,111,30,76,0
945798,139,-25,47,0
945809,154,33,125,0
945820,134,38,107,0
945831,186,38,163,0
945842,203,60,177,0
945853,195,93,187,0
945864,211,86,178,0
945875,202,88,163,0
945886,194,77,155,0
945897,188,59,151,0
945908,177,39,146,0
945919,160,18,143,0
945930,147,14,143,0
945941,171,24,145,0
945952,195,42,165,0
945963,199,48,186,0
945974,201,6,188,0
945985,59,-44,184,0
945996,19,-33,173,0
946007,47,-26,173,0
946018,88,-15,195,0
946029,128,0,210,0
946040,157,2,202,0
946051,167,-10,198,0
946062,159,-20,202,0
946073,145,-29,208,0
946084,139,-39,202,0
946095,150,-49,203,0
946106,167,-37,204,0
946117,182,-26,198,0
946128,186,-10,200,0
946139,167,-2,196,0
946150,125,-6,189,0
946161,101,-14,191,0
946172,91,-18,195,0
946183,85,-26,201,0
946194,79,-39,212,0
946205,80,-51,225,0
946216,76,-49,240,0
946227,74,-43,252,0
946238,67,-28,253,0
946249,65,-13,260,0
946260,67,-26,253,0
946271,57,-13,258,0
946282,51,-10,254,0
946293,51,-16,250,0
946304,54,-17,250,0
946315,57,-17,250,0
946326,59,-22,245,0
946337,56,-25,242,0
946348,53,-21,243,0
946359,50,-18,244,0
946370,44,-11,248,0
946381,39,-8,247,0
946392,33,-2,243,0
946403,24,-1,239,0
946414,33,-6,241,0
946425,24,-2,238,0
946436,31,-3,238,0
946447,40,-9,228,0
946458,44,-17,226,0
946469,45,-5,237,0
946480,44,-3,243,0
946491,48,-2,242,0
946502,48,0,243,0
946513,43,3,245,0
946524,39,5,251,0
946535,37,-9,229,0
946546,12,37,255,0
946557,22,-12,206,0
946568,29,-2,227,0
946579,34,-2,230,0
946590,33,1,227,0
946601,26,10,226,0
946612,31,11,228,0
946623,28,14,229,0
946634,32,13,231,0
946645,29,12,231,0
946656,28,9,234,0
946667,27,14,233,0
946678,25,17,233,0
946689,22,19,229,0
946700,21,18,228,0
946711,19,19,227,0
946722,20,23,227,0
946733,18,25,227,0
946744,23,23,223,0
946755,19,22,226,0
946766,18,23,227,0
946777,11,26,229,0
946788,11,28,230,0
946799,6,28,224,0
946810,8,27,227,0
946821,8,19,219,0
946832,10,27,225,0
946843,6,27,227,0
946854,4,29,228,0
946865,0,33,228,0
946876,-4,35,229,0
946887,-6,36,229,0
946898,-6,36,227,0
946909,-8,37,229,0
946920,-5,37,228,0
946931,-3,38,230,0
946942,-4,38,225,0
946953,-1,39,223,0
946964,-1,39,222,0
946975,2,36,224,0
946986,0,38,224,0
946997,-3,35,223,0
947008,-4,44,227,0
947019,-5,46,223,0
947030,-1,44,223,0
947041,-3,44,221,0
947052,1,41,222,0
947063,1,38,221,0
947074,2,38,225,0
947085,0,38,226,0
947096,-17,42,226,0
947107,-10,47,233,0
947118,-12,47,235,0
947129,-7,84,286,0
947140,-19,55,249,0
947151,-1,35,225,0
947162,-30,25,240,0
947173,-14,29,213,0
947184,-2,25,209,0
947195,-26,-8,154,0
947206,5,15,224,0
947217,21,-2,199,0
947228,0,21,225,0
947239,8,2,213,0
947250,-91,116,268,0
947261,-7,51,236,0
947272,-10,49,237,0
947284,-14,40,228,0
947295,-13,42,227,0
947306,-16,48,233,0
947317,-18,39,228,0
947328,-16,32,226,0
947339,-21,30,225,0
947350,-25,32,229,0
947361,-12,38,238,0
947372,-22,36,224,0
947383,-36,58,244,0
947394,-43,59,250,0
947405,-17,57,239,0
947416,-50,49,248,0
947427,-21,36,232,0
947438,-8,-24,157,0
947449,22,19,193,0
947460,14,29,176,0
947471,-55,34,226,0
947482,10,53,256,0
947493,-59,57,205,0
947504,-47,61,234,0
947515,-45,58,234,0
947526,-75,57,203,0
947537,-6,48,222,0
947548,-10,77,235,0
947559,-59,40,233,0
947570,-45,44,241,0
947582,-31,34,216,0
947593,-31,33,211,0
947604,-20,34,206,0
947615,-43,60,254,0
947626,-26,42,221,0
947637,-19,46,226,0
947648,-20,51,229,0
947659,-20,51,233,0
947670,-20,48,232,0
947682,-19,48,234,0
947693,-20,49,234,0
947704,-19,34,226,0
947715,-43,41,227,0
947726,-34,44,212,0
947737,-39,42,215,0
947748,-39,55,227,0
947759,-33,55,222,0
947770,-21,57,228,0
947781,-26,65,230,0
947792,-18,61,226,0
947803,-16,58,227,0
947814,-15,58,229,0
947825,-19,57,226,0
947836,21,52,233,0
947847,-30,53,224,0
947858,-39,62,234,0
947869,-36,65,228,0
947880,-27,62,218,0
947891,-26,59,215,0
947902,-25,63,222,0
947913,-15,62,220,0
947924,-13,61,220,0
