timestamp,accX,accY,accZ,step
791038,41,-4,235,0
791049,43,-5,233,0
791060,44,-6,233,0
791071,42,-6,230,0
791082,41,-9,229,0
791092,42,-5,234,0
791103,40,-9,219,0
791114,43,-5,224,0
791125,42,-2,225,0
791136,44,-3,226,0
791146,44,-2,230,0
791157,43,-2,232,0
791168,42,-4,233,0
791178,37,-8,234,0
791189,41,-5,229,0
791199,42,0,233,0
791210,38,1,235,0
791221,39,-4,229,0
791232,48,-8,221,0
791243,53,0,231,0
791253,48,-1,228,0
791264,41,3,231,0
791275,41,-1,225,0
791286,40,1,227,0
791297,41,1,228,0
791308,42,2,231,0
791319,45,-1,232,0
791330,47,-1,231,0
791341,49,-1,230,0
791352,52,-1,229,0
791363,54,-2,226,0
791374,56,-3,224,0
791385,55,-3,222,0
791396,55,-3,224,0
791407,55,-1,224,0
791418,56,-1,229,0
791429,56,-1,229,0
791440,55,-2,230,0
791451,55,0,230,0
791462,53,0,229,0
791473,50,-1,226,0
791484,47,0,226,0
791495,47,0,227,0
791506,45,0,229,0
791517,44,0,230,0
791528,44,1,232,0
791539,44,1,233,0
791550,45,1,232,0
791561,45,1,231,0
791572,43,2,229,0
791583,41,4,228,0
791594,41,3,228,0
791605,42,3,229,0
791616,41,3,229,0
791627,42,4,227,0
791638,41,4,226,0
791649,40,5,225,0
791660,42,5,227,0
791671,43,8,229,0
791682,47,7,229,0
791693,50,7,232,0
791704,51,6,232,0
791715,51,3,232,0
791726,51,2,227,0
791737,51,2,225,0
791748,50,4,224,0
791759,52,5,227,0
791770,52,6,230,0
791781,54,4,230,0
791792,56,1,232,0
791803,55,0,228,0
791814,52,0,228,0
791825,48,1,227,0
791836,45,1,227,0
791847,43,2,228,0
791858,41,4,228,0
791869,39,2,230,0
791880,40,1,231,0
791891,41,2,230,0
791902,42,4,231,0
791913,41,3,230,0
791924,42,4,229,0
791935,42,2,229,0
791946,42,3,229,0
791957,44,2,230,0
791968,46,1,230,0
791979,48,0,229,0
791990,47,1,228,0
792001,46,1,227,0
792012,46,1,227,0
792023,44,3,227,0
792034,45,4,228,0
792045,47,3,229,0
792056,48,3,231,0
792067,49,1,229,0
792078,50,2,228,0
792089,50,2,228,0
792100,50,2,229,0
792111,49,2,229,0
792122,49,1,229,0
792133,49,1,228,0
792144,48,1,228,0
792155,49,1,228,0
792166,48,2,228,0
792177,48,2,228,0
792188,49,2,230,0
792199,50,3,230,0
792210,50,3,228,0
792221,52,3,227,0
792232,52,2,230,0
792243,52,2,230,0
792254,52,1,229,0
792265,49,3,229,0
792276,47,3,227,0
792287,44,3,229,0
792298,44,3,225,0
792309,45,3,226,0
792320,45,3,226,0
792331,43,4,229,0
792342,43,4,230,0
792354,44,2,232,0
792365,46,4,231,0
792376,46,2,230,0
792387,46,2,230,0
792398,46,2,231,0
792409,45,2,232,0
792420,44,3,230,0
792431,44,2,230,0
792442,45,1,230,0
792454,47,1,230,0
792465,48,2,228,0
792476,48,2,227,0
792487,48,2,227,0
792498,51,1,230,0
792509,53,1,229,0
792520,54,2,229,0
792531,49,1,228,0
792542,52,0,228,0
792553,54,1,229,0
792564,56,1,230,0
792575,57,0,230,0
792586,57,0,231,0
792597,59,0,232,0
792608,62,0,232,0
792619,63,0,230,0
792630,64,0,233,0
792641,69,-6,235,0
792653,73,-3,228,0
792664,68,0,234,0
792675,63,-3,239,0
792686,68,4,231,0
792697,67,4,230,0
792708,68,1,232,0
792719,72,2,231,0
792730,74,1,227,0
792741,76,-6,235,0
792752,88,-10,232,0
792763,92,-7,225,0
792774,93,-9,220,0
792785,94,-12,214,0
792796,93,-14,207,0
792807,93,-14,203,0
792818,91,-8,200,0
792829,88,-1,198,0
792840,79,2,200,0
792851,57,2,188,0
792862,42,2,185,0
792873,28,5,181,0
792884,24,5,166,0
792895,19,1,149,0
792906,18,-1,134,0
792917,19,-2,125,0
792928,21,-1,125,0
792939,23,10,132,0
792950,37,21,131,0
792961,54,30,124,0
792972,63,37,115,0
792983,60,32,125,0
792994,70,33,142,0
793005,77,7,182,0
793016,69,-21,198,0
793027,63,-34,183,0
793038,51,-31,176,0
793049,42,-40,183,0
793060,49,-31,216,0
793071,36,-40,178,0
793082,63,-8,174,0
793093,29,3,173,0
793104,25,3,202,0
793115,24,-6,192,0
793126,31,-12,181,0
793137,33,-14,158,0
793148,34,-24,158,0
793159,42,-29,167,0
793170,64,-25,173,0
793181,41,-17,167,0
793192,29,3,169,0
793203,6,7,167,0
793214,-8,9,179,0
793225,-2,4,190,0
793236,-2,-9,193,0
793247,3,-30,190,0
793258,25,-54,207,0
793269,55,-76,183,0
793280,72,-67,191,0
793291,80,-63,191,0
793302,81,-53,203,0
793313,96,-40,216,0
793324,87,-34,229,0
793335,65,-40,223,0
793346,66,-63,206,0
793357,76,-69,197,0
793368,45,-60,191,0
793379,36,-63,196,0
793390,48,-52,227,0
793401,59,-46,266,0
793412,69,-43,279,0
793423,73,-37,261,0
793434,71,-54,249,0
793445,65,-66,232,0
793456,62,-87,222,0
793467,57,-93,220,0
793478,29,-89,209,0
793489,1,-65,220,0
793500,-26,-26,241,0
793511,-20,-26,239,0
793522,-9,-36,237,0
793533,-3,-57,227,0
793544,-19,-73,218,0
793555,-45,-76,208,0
793566,-27,-72,228,0
793577,-35,-30,254,0
793588,-60,-21,275,0
793599,-66,-20,306,0
793610,-67,-28,318,0
793621,-66,-47,326,0
793632,-52,-61,323,0
793643,-50,-66,332,0
793654,-59,-71,356,0
793665,-87,-67,409,0
793676,-91,-68,455,0
793687,-94,-71,480,0
793698,-106,-88,496,0
793709,-113,-94,511,0
793720,-111,-99,511,0
793731,-119,-104,511,0
793742,-125,-99,511,0
793753,-123,-96,511,0
793764,-118,-93,511,0
793775,-113,-87,511,0
793786,-100,-93,482,0
793797,-86,-94,447,0
793808,-76,-87,424,0
793819,-71,-76,403,0
793830,-49,-62,346,0
793841,-39,-52,325,0
793852,-24,-53,312,0
793863,-14,-54,295,0
793874,-2,-45,280,0
793885,3,-37,264,0
793896,14,-55,256,0
793907,26,-57,249,0
793918,31,-51,257,0
793929,34,-47,267,0
793940,36,-46,270,0
793951,41,-46,273,0
793962,51,-32,267,0
793973,42,-23,259,0
793984,37,-11,254,0
793995,37,-13,246,0
794006,28,25,254,0
794017,23,-17,224,0
794028,20,-7,226,0
794039,19,-5,221,0
794050,10,-8,214,0
794061,0,-8,197,0
794072,-1,-12,185,0
794083,3,-12,185,0
794094,3,-8,175,0
794105,4,-9,169,0
794116,5,-7,162,0
794127,12,-1,156,0
794138,16,-4,144,0
794149,17,1,149,0
794160,1,-1,144,0
794171,0,1,159,0
794182,-6,-4,162,0
794193,-2,3,176,0
794204,2,-8,169,0
794215,7,-16,144,0
794226,15,-19,137,0
794237,32,-20,138,0
794248,44,-21,140,0
794259,53,-14,133,0
794270,49,-10,127,0
794281,43,-6,130,0
794292,35,-4,125,0
794303,30,-6,127,0
794314,26,-2,130,0
794325,29,-11,123,0
794336,35,-11,118,0
794347,50,-12,120,0
794358,65,-11,123,0
794369,72,-11,127,0
794380,79,-11,130,0
794391,89,-11,134,0
794402,97,-10,137,0
794413,100,-8,135,0
794424,108,4,135,0
794435,115,-2,133,0
794446,122,-13,168,0
794457,133,-9,158,0
794468,132,-5,165,0
794479,139,-12,170,0
794490,133,-16,161,0
794501,129,-15,151,0
794512,124,-13,147,0
794523,118,-13,137,0
794534,112,-7,132,0
794545,112,-10,122,0
794556,105,-15,103,0
794567,86,-21,91,0
794578,70,-27,82,0
794589,62,-20,88,0
794600,57,-29,104,0
794611,58,-17,120,0
794622,49,1,125,0
794633,49,14,134,0
794644,54,7,173,0
794656,72,6,141,0
794667,63,-3,115,0
794678,63,6,118,0
794689,65,3,123,0
794700,63,-3,140,0
794711,58,-24,165,0
794722,64,-37,154,0
794733,49,-4,155,0
794744,7,-25,154,0
794755,16,-36,163,0
794766,25,-35,163,0
794777,27,-22,172,0
794788,34,-12,189,0
794799,60,-29,222,0
794810,63,-36,219,0
794821,67,-25,220,0
794832,50,-23,213,0
794843,34,-40,204,0
794854,14,-46,187,0
794865,-3,-41,189,0
794876,-7,-34,206,0
794887,-9,-39,207,0
794898,1,-40,220,0
794909,15,-52,227,0
794920,20,-50,221,0
794931,45,-65,208,0
794942,61,-78,207,0
794953,55,-81,218,0
794964,49,-79,245,0
794975,41,-67,247,0
794986,39,-71,243,0
794997,53,-55,238,0
795008,56,-33,221,0
795019,63,-32,211,0
795030,61,-74,213,0
795041,12,-84,188,0
795053,-21,-104,194,0
795064,-52,-73,227,0
795075,-60,-69,286,0
795086,-53,-57,333,0
795097,-55,-51,360,0
795108,-81,-41,367,0
795119,-75,-66,366,0
795130,-70,-95,365,0
795141,-58,-119,390,0
795152,-44,-117,423,0
795163,-47,-114,463,0
795174,-64,-117,506,0
795185,-73,-118,511,0
795196,-72,-123,511,0
795207,-70,-135,511,0
795218,-67,-147,511,0
795229,-57,-157,511,0
795240,-60,-153,511,0
795251,-58,-153,508,0
795262,-54,-131,491,0
795273,-48,-109,450,0
795284,-46,-105,423,0
795295,-33,-108,401,0
795306,-27,-100,377,0
795317,-20,-102,357,0
795328,-12,-98,342,0
795339,-5,-97,323,0
795351,4,-91,305,0
795362,7,-81,284,0
795373,10,-78,265,0
795384,23,-71,250,0
795395,33,-73,239,0
795406,48,-73,231,0
795417,61,-67,226,0
795428,52,-50,224,0
795439,54,-44,227,0
795450,34,-51,222,0
795461,25,-55,223,0
795472,20,-54,214,0
795483,20,-48,208,0
795494,11,-43,213,0
795505,18,-36,214,0
795516,19,-30,220,0
795527,16,-32,216,0
795538,19,-33,211,0
795549,25,-27,207,0
795560,30,-25,194,0
795571,28,-21,186,0
795582,24,-22,179,0
795593,25,-31,162,0
795604,25,-31,151,0
795615,22,-32,141,0
795626,25,-32,131,0
795637,30,-27,129,0
795648,32,-20,131,0
795659,39,-18,134,0
795670,42,-20,138,0
795681,51,-13,144,0
795692,57,-11,144,0
795703,58,-30,125,0
795714,64,-37,129,0
795725,72,-33,139,0
795736,74,-25,154,0
795747,59,-19,159,0
795758,41,-24,151,0
795769,39,-15,158,0
795780,41,5,161,0
795791,40,16,150,0
795802,38,8,129,0
795813,40,0,116,0
795824,41,-1,107,0
795835,45,-2,101,0
795846,50,-5,99,0
795857,55,-7,101,0
795868,63,-8,100,0
795879,73,-14,101,0
795890,83,-22,104,0
795901,96,-26,109,0
795912,109,-38,112,0
795923,112,-38,115,0
795934,117,-30,124,0
795945,112,-23,127,0
795956,109,-11,126,0
795967,105,0,117,0
795978,89,-3,107,0
795989,68,-9,102,0
796000,58,-6,97,0
796011,61,7,83,0
796022,61,27,65,0
796033,42,29,56,0
796044,19,-4,91,0
796055,15,-14,135,0
796066,11,-28,139,0
796077,17,-26,66,0
796088,50,-16,72,0
796099,71,-16,102,0
796110,67,-27,120,0
796121,60,-41,97,0
796132,45,-23,74,0
796143,35,-16,126,0
796154,49,-14,181,0
796165,69,-9,214,0
796176,65,-6,222,0
796187,45,-34,194,0
796198,30,-72,166,0
796209,31,-64,187,0
796220,33,-68,176,0
796231,38,-48,185,0
796242,57,13,248,0
796253,47,24,255,0
796264,26,-3,231,0
796275,49,-44,212,0
796286,56,-72,196,0
796297,57,-78,216,0
796308,53,-70,223,0
796319,62,-58,226,0
796330,45,-24,245,0
796341,49,-37,277,0
796352,62,-68,274,0
796363,62,-84,247,0
796374,45,-88,241,0
796385,47,-82,237,0
796396,57,-56,240,0
796407,5,-5,271,0
796418,-78,-2,249,0
796429,-130,-41,237,0
796440,-121,-81,230,0
796451,-100,-102,226,0
796462,-65,-93,242,0
796473,-41,-83,262,0
796484,-39,-66,297,0
796495,-69,-53,338,0
796506,-102,-60,388,0
796517,-94,-76,442,0
796528,-66,-89,469,0
796539,-56,-120,497,0
796550,-32,-142,511,0
796561,-30,-153,511,0
796572,-51,-171,511,0
796583,-44,-167,511,0
796594,-37,-166,511,0
796605,-38,-168,511,0
796616,-43,-167,511,0
796627,-56,-157,511,0
796638,-62,-152,511,0
796649,-65,-132,511,0
796660,-63,-125,468,0
796671,-47,-113,428,0
796682,-38,-99,385,0
796693,-21,-96,346,0
796704,-7,-85,319,0
796715,12,-87,298,0
796726,21,-76,290,0
796737,40,-73,272,0
796748,45,-67,268,0
796759,49,-60,258,0
796770,51,-54,253,0
796781,59,-54,240,0
796792,66,-45,237,0
796803,73,-41,231,0
796814,79,-40,226,0
796825,75,-40,214,0
796836,67,-2,227,0
796847,57,-41,209,0
796858,51,-33,211,0
796869,50,-32,212,0
796880,45,-30,210,0
796891,38,-25,203,0
796903,38,-24,194,0
796914,32,-27,182,0
796925,35,-33,172,0
796936,39,-31,172,0
796947,38,-32,163,0
796958,41,-29,149,0
796969,42,-22,144,0
796980,34,-28,138,0
796991,37,-19,135,0
797003,49,-16,145,0
797014,55,-22,139,0
797025,57,-18,133,0
797036,59,-36,140,0
797047,69,-41,152,0
797058,74,-27,173,0
797069,77,-21,163,0
797080,74,-23,115,0
797091,68,-23,73,0
797102,62,-22,66,0
797113,56,-17,60,0
797124,49,-12,54,0
797135,46,-8,50,0
797146,40,-14,40,0
797158,43,-7,44,0
797169,52,-3,44,0
797180,70,-7,46,0
797191,81,-9,56,0
797202,93,-20,60,0
797213,106,-22,71,0
797224,117,-21,79,0
797235,132,-13,87,0
797246,140,-12,97,0
797257,137,-17,114,0
797268,134,-20,123,0
797279,122,-16,134,0
797290,112,-16,133,0
797301,95,-14,118,0
797312,86,-1,94,0
797323,75,4,83,0
797334,59,4,85,0
797345,57,3,124,0
797356,60,12,120,0
797367,36,10,108,0
797378,29,-10,113,0
797389,31,-13,111,0
797400,14,-11,91,0
797411,2,-12,72,0
797422,10,-18,81,0
797433,35,-18,110,0
797444,39,-11,148,0
797455,51,-27,172,0
797466,66,-24,172,0
797477,68,-29,166,0
797488,60,-28,160,0
797499,48,-40,176,0
797510,29,-16,197,0
797521,24,-23,193,0
797532,31,-33,186,0
797543,46,-31,199,0
797554,69,-44,200,0
797565,79,-27,230,0
797576,75,-15,241,0
797587,64,-26,223,0
797598,37,-36,212,0
797609,39,-56,213,0
797620,44,-71,224,0
797631,50,-84,241,0
797642,73,-81,269,0
797653,86,-82,267,0
797664,85,-76,247,0
797675,95,-70,236,0
797686,96,-94,240,0
797697,52,-76,204,0
797708,53,-80,214,0
797719,53,-76,237,0
797730,48,-77,255,0
797741,49,-67,271,0
797752,28,-57,294,0
797763,-1,-62,298,0
797774,-14,-75,287,0
797785,-19,-82,263,0
797796,-18,-96,268,0
797807,-4,-105,295,0
797818,2,-104,327,0
797829,-6,-85,365,0
797840,-37,-86,458,0
797851,-35,-104,483,0
797862,-23,-122,507,0
797873,-8,-142,511,0
797884,0,-153,511,0
797895,-4,-162,511,0
797906,-15,-159,511,0
797917,-14,-149,511,0
797928,-18,-136,511,0
797939,-12,-135,511,0
797950,-2,-138,511,0
797961,4,-140,492,0
797972,4,-134,462,0
797983,1,-125,434,0
797994,1,-113,415,0
798005,5,-92,360,0
798016,18,-88,323,0
798027,35,-84,296,0
798038,52,-83,283,0
798049,57,-81,274,0
798060,59,-83,265,0
798071,52,-76,259,0
798082,56,-68,255,0
798094,50,-56,257,0
798105,53,-52,243,0
798116,59,-45,231,0
798127,63,-46,225,0
798138,71,-48,224,0
798149,74,-51,221,0
798160,76,-40,226,0
798171,76,-31,233,0
798182,73,-44,229,0
798193,71,-46,216,0
798204,69,-36,210,0
798215,61,-31,208,0
798226,51,-29,203,0
798237,44,-29,191,0
798248,47,-29,192,0
798259,43,-31,193,0
798270,40,-30,193,0
798281,42,-29,189,0
798292,44,-26,178,0
798303,35,-26,172,0
798314,30,-19,158,0
798325,33,-16,139,0
798336,34,-12,127,0
798347,34,-15,134,0
798358,46,-7,138,0
798369,49,-12,135,0
798380,54,1,134,0
798391,53,2,128,0
798402,48,-11,120,0
798413,49,-6,116,0
798424,41,-8,115,0
798435,40,-13,102,0
798446,41,-10,107,0
798457,46,-13,106,0
798468,47,-10,114,0
798479,48,-4,118,0
798490,58,-9,108,0
798501,57,-11,101,0
798512,61,-9,97,0
798523,68,-4,97,0
798534,76,-3,99,0
798545,84,-6,97,0
798556,92,-2,106,0
798567,96,-2,105,0
798578,98,-3,110,0
798589,100,-5,113,0
798600,105,-4,120,0
798611,106,-7,125,0
798622,106,-15,126,0
798633,95,-24,103,0
798644,94,-12,102,0
798655,89,-11,104,0
798666,83,-11,108,0
798678,73,-9,114,0
798689,72,-8,115,0
798700,68,-3,113,0
798711,69,1,112,0
798722,68,4,124,0
798733,65,8,127,0
798744,64,12,129,0
798755,64,5,135,0
798766,67,1,134,0
798777,69,0,128,0
798788,65,-4,132,0
798799,61,-9,111,0
798810,62,-12,120,0
798821,55,-25,136,0
798832,57,-33,146,0
798843,53,-30,152,0
798854,51,-35,155,0
798865,50,-32,158,0
798876,53,-35,164,0
798887,65,-39,156,0
798898,74,-23,178,0
798909,67,-18,202,0
798920,64,-2,225,0
798931,61,3,241,0
798942,38,8,247,0
798953,6,-7,231,0
798964,25,-67,241,0
798975,20,-83,226,0
798986,39,-72,182,0
798997,52,-41,193,0
799008,57,-41,216,0
799019,64,-27,247,0
799030,45,2,280,0
799041,39,-9,279,0
799052,42,-21,267,0
799063,51,-62,241,0
799074,84,-97,229,0
799085,119,-112,222,0
799096,139,-119,223,0
799107,132,-96,221,0
799118,94,-62,234,0
799129,-80,-7,275,0
799140,-112,-33,305,0
799151,-65,-67,318,0
799162,-17,-91,313,0
799173,27,-103,307,0
799184,69,-111,331,0
799195,65,-80,366,0
799206,-4,-26,426,0
799217,-59,-29,472,0
799228,-61,-52,490,0
799239,-20,-86,501,0
799250,29,-119,505,0
799261,65,-142,509,0
799272,72,-129,511,0
799283,45,-155,511,0
799294,16,-133,511,0
799306,5,-135,511,0
799317,4,-142,511,0
799328,12,-146,495,0
799339,14,-133,464,0
799350,18,-127,445,0
799361,13,-111,417,0
799372,19,-106,390,0
799383,28,-89,367,0
799394,29,-86,336,0
799405,45,-87,315,0
799416,53,-73,297,0
799427,61,-73,285,0
799438,68,-63,269,0
799449,67,-55,263,0
799461,63,-51,266,0
799472,58,-45,268,0
799483,62,-45,263,0
799494,61,-38,269,0
799505,58,-31,267,0
799516,55,-40,254,0
799527,51,-38,262,0
799538,43,-31,252,0
799549,36,-30,236,0
799560,34,-28,230,0
799571,33,-21,234,0
799582,36,-28,231,0
799593,47,-26,222,0
799605,48,-26,218,0
799615,43,-28,210,0
799626,37,-25,200,0
799637,32,-24,186,0
799648,28,-26,177,0
799659,26,-25,163,0
799670,32,-26,148,0
799681,41,-19,141,0
799692,45,-16,124,0
799703,45,-8,112,0
799714,50,-9,100,0
799725,55,-10,94,0
799736,45,-11,77,0
799747,50,-19,66,0
799758,56,-16,69,0
799769,63,-18,65,0
799780,65,-14,61,0
799791,75,-7,63,0
799802,80,-5,55,0
799813,84,-4,52,0
799824,88,-1,56,0
799835,89,0,52,0
799846,86,-3,42,0
799857,79,0,38,0
799868,82,0,42,0
799879,89,1,48,0
799890,88,-4,54,0
799901,90,-13,55,0
799912,92,-15,61,0
799923,98,-24,91,0
799934,103,-17,98,0
799945,95,-13,89,0
799956,90,-4,79,0
799967,75,0,81,0
799978,65,-5,83,0
799989,64,-9,76,0
800000,62,3,68,0
800011,58,4,73,0
800022,53,5,85,0
800033,56,-7,101,0
800044,57,-5,120,0
800055,46,-18,112,0
800066,45,-17,115,0
800077,58,-11,107,0
800088,83,-14,122,0
800099,87,-11,148,0
800110,83,-15,165,0
800121,92,-19,165,0
800132,95,-13,162,0
800143,92,-36,147,0
800154,102,-51,164,0
800165,98,-50,172,0
800176,90,-69,165,0
800187,77,-65,171,0
800198,70,-62,194,0
800209,75,-41,224,0
800220,66,-2,260,0
800231,44,10,271,0
800242,34,3,264,0
800253,24,-15,251,0
800264,17,-35,247,0
800275,30,-56,227,0
800286,31,-60,224,0
800298,41,-58,254,0
800309,63,-64,262,0
800320,69,-49,256,0
800331,74,-48,252,0
800342,86,-52,241,0
800353,86,-64,237,0
800364,98,-95,240,0
800375,109,-110,233,0
800386,83,-101,236,0
800397,32,-53,297,0
800408,-11,-43,323,0
800419,-23,-75,349,0
800430,-38,-83,332,0
800441,-35,-97,353,0
800452,-18,-97,360,0
800463,-5,-95,375,0
800474,1,-88,418,0
800485,6,-95,459,0
800496,4,-100,482,0
800507,8,-117,511,0
800518,25,-126,511,0
800529,25,-125,511,0
800540,29,-124,511,0
800551,35,-127,511,0
800562,43,-126,479,0
800573,54,-127,467,0
800584,56,-124,454,0
800595,53,-115,445,0
800606,51,-102,430,0
800617,45,-92,405,0
800628,47,-97,373,0
800639,56,-94,343,0
800650,62,-92,326,0
800661,68,-90,306,0
800672,66,-87,290,0
800683,63,-81,278,0
800694,64,-75,271,0
800705,68,-66,272,0
800716,68,-66,262,0
800727,67,-58,256,0
800738,64,-54,249,0
800749,69,-53,240,0
800760,74,-54,239,0
800771,80,-51,241,0
800782,78,-43,247,0
800793,78,-40,245,0
800804,74,-41,239,0
800815,78,-41,228,0
800826,71,-36,222,0
800837,69,-31,205,0
800848,66,-34,202,0
800859,63,-23,197,0
800870,66,-23,195,0
800881,65,-20,203,0
800892,51,-17,196,0
800903,49,-14,191,0
800914,48,-14,180,0
800925,42,-15,173,0
800936,44,-20,166,0
800947,41,-17,155,0
800958,49,-13,154,0
800969,50,-12,147,0
800980,49,-9,151,0
800991,49,4,132,0
801002,52,0,149,0
801013,44,-8,124,0
801024,50,2,122,0
801035,43,4,125,0
801046,40,2,115,0
801057,32,-3,100,0
801068,35,1,103,0
801079,43,-8,85,0
801090,50,-6,86,0
801101,55,-3,86,0
801112,61,-4,84,0
801123,67,-10,73,0
801134,72,-11,68,0
801145,81,-11,69,0
801156,92,-10,74,0
801167,100,-6,80,0
801178,105,-1,82,0
801189,112,-1,78,0
801200,111,-2,85,0
801211,108,0,90,0
801222,92,-2,96,0
801233,86,0,99,0
801244,74,-10,99,0
801255,76,-6,99,0
801266,72,-2,98,0
801277,75,-1,100,0
801288,79,-1,105,0
801299,82,3,101,0
801310,81,2,102,0
801321,71,2,94,0
801332,67,1,100,0
801343,64,4,109,0
801354,57,-2,114,0
801365,63,1,115,0
801376,70,-5,129,0
801387,75,-14,140,0
801398,82,-18,141,0
801409,90,-19,151,0
801420,93,-30,162,0
801431,102,-31,164,0
801442,110,-27,168,0
801453,119,-29,175,0
801464,111,-28,182,0
801475,93,-32,166,0
801486,88,-23,167,0
801497,87,-23,194,0
801508,90,-25,203,0
801519,93,-33,221,0
801530,99,-33,236,0
801541,85,-28,226,0
801552,78,-60,235,0
801563,93,-46,253,0
801574,85,-16,259,0
801585,69,8,260,0
801596,40,6,264,0
801607,29,-20,266,0
801618,20,-39,280,0
801629,40,-65,264,0
801640,43,-77,238,0
801651,76,-78,232,0
801662,108,-79,217,0
801673,132,-65,225,0
801684,135,-70,207,0
801695,143,-88,195,0
801706,111,-102,192,0
801717,79,-81,147,0
801728,45,-64,193,0
801739,42,-74,236,0
801750,72,-70,268,0
801761,93,-75,272,0
801772,81,-65,301,0
801783,62,-64,319,0
801794,68,-73,329,0
801805,23,-56,380,0
801816,12,-78,420,0
801827,37,-87,470,0
801838,47,-89,497,0
801849,34,-104,511,0
801860,44,-131,511,0
801871,37,-146,511,0
801882,33,-157,511,0
801893,23,-159,511,0
801904,5,-147,511,0
801915,-2,-133,478,0
801926,0,-128,448,0
801937,8,-127,409,0
801948,28,-127,385,0
801959,41,-122,370,0
801970,43,-114,357,0
801981,42,-104,346,0
801992,46,-100,333,0
802003,44,-89,329,0
802014,38,-89,317,0
802025,38,-90,296,0
802036,58,-88,267,0
802047,62,-91,268,0
802058,71,-85,261,0
802069,73,-73,250,0
802080,72,-64,240,0
802091,71,-64,239,0
802102,74,-60,234,0
802113,74,-52,229,0
802124,72,-45,233,0
802135,71,-50,223,0
802146,76,-40,229,0
802157,75,-45,224,0
802168,70,-39,220,0
802179,66,-36,210,0
802190,61,-26,204,0
802201,61,-32,205,0
802212,60,-31,197,0
802223,59,-30,189,0
802234,54,-29,183,0
802245,52,-27,178,0
802256,51,-17,176,0
802267,45,-21,164,0
802278,48,-13,156,0
802289,47,-21,140,0
802300,50,-22,130,0
802311,47,-18,126,0
802322,52,-23,116,0
802333,48,-16,114,0
802344,61,-24,101,0
802355,64,-15,109,0
802366,68,-8,112,0
802377,67,-15,99,0
802388,66,-10,95,0
802399,66,-9,92,0
802410,64,-5,95,0
802421,64,-10,87,0
802432,70,-7,87,0
802443,70,-5,81,0
802454,78,0,91,0
802465,78,-2,85,0
802476,79,-1,91,0
802487,78,4,102,0
802498,77,0,100,0
802509,76,1,100,0
802520,76,-2,97,0
802531,79,-6,91,0
802542,82,-4,92,0
802553,82,-10,91,0
802564,88,-17,95,0
802575,86,-15,88,0
802586,87,-10,90,0
802597,88,-7,91,0
802608,77,-2,86,0
802619,74,-16,81,0
802630,81,-3,90,0
802641,80,-8,88,0
802652,77,-15,78,0
802663,78,-21,88,0
802674,82,-24,106,0
802685,83,-17,127,0
802696,82,-4,148,0
802707,77,-2,148,0
802718,66,4,144,0
802729,61,8,135,0
802740,61,16,140,0
802751,52,11,152,0
802762,59,-1,161,0
802773,64,-10,168,0
802784,61,-25,185,0
802795,63,-26,192,0
802806,68,-20,185,0
802817,83,-11,203,0
802828,72,9,223,0
802839,86,22,254,0
802850,39,-6,258,0
802861,21,-48,241,0
802872,23,-75,221,0
802883,40,-95,197,0
802894,56,-88,209,0
802905,70,-61,222,0
802917,90,-23,226,0
802928,83,-11,227,0
802939,75,-27,230,0
802950,60,-42,259,0
802961,52,-76,268,0
802972,57,-87,263,0
802983,72,-95,260,0
802994,94,-92,246,0
803005,82,-68,236,0
803016,55,-45,232,0
803027,-8,-15,223,0
803038,-50,-19,278,0
803049,-62,-59,296,0
803060,-53,-114,307,0
803071,2,-131,332,0
803082,43,-130,342,0
803093,43,-91,349,0
803104,28,-66,362,0
803115,13,-57,377,0
803126,-16,-60,385,0
803137,-26,-84,387,0
803149,33,-126,416,0
803160,57,-132,438,0
803171,54,-128,452,0
803182,41,-122,467,0
803193,28,-106,467,0
803204,30,-100,470,0
803215,42,-107,454,0
803226,54,-120,431,0
803237,61,-131,416,0
803248,61,-141,406,0
803259,68,-136,413,0
803270,59,-125,411,0
803281,45,-105,402,0
803292,39,-88,387,0
803303,37,-92,356,0
803314,58,-102,313,0
803325,59,-93,305,0
803336,52,-79,307,0
803347,49,-67,295,0
803359,45,-67,286,0
803370,52,-72,283,0
803381,55,-73,284,0
803392,66,-72,288,0
803403,77,-74,272,0
803414,85,-70,264,0
803425,86,-66,255,0
803436,78,-59,249,0
803447,74,-51,245,0
803458,76,-45,250,0
803469,64,-31,249,0
803480,52,-26,245,0
803491,39,-27,235,0
803502,32,-33,223,0
803513,37,-34,211,0
803524,52,-44,207,0
803535,55,-45,203,0
803546,55,-40,199,0
803557,56,-38,199,0
803568,51,-25,198,0
803580,51,-21,187,0
803591,53,-18,183,0
803602,55,-17,173,0
803613,50,-15,154,0
803624,51,-25,154,0
803635,49,-23,150,0
803646,49,-17,137,0
803657,49,-21,161,0
803668,51,-17,136,0
803679,50,-10,126,0
803690,51,-7,111,0
803701,43,-2,80,0
803712,38,0,75,0
803723,44,11,75,0
803734,37,-9,42,0
803745,38,2,51,0
803756,52,-4,43,0
803767,63,-4,45,0
803778,77,1,66,0
803789,89,-2,70,0
803800,99,0,73,0
803811,104,1,78,0
803822,106,1,86,0
803834,105,1,92,0
803845,97,-6,89,0
803856,93,-14,87,0
803867,85,-15,79,0
803878,84,-19,69,0
803889,90,-17,74,0
803900,88,-26,73,0
803911,95,-20,70,0
803922,101,-11,65,0
803933,67,-10,43,0
803944,65,-18,49,0
803955,66,-10,59,0
803966,71,-7,66,0
803977,72,-12,71,0
803988,73,-5,75,0
803999,71,4,90,0
804010,70,-2,96,0
804021,68,-15,91,0
804032,74,-11,93,0
804043,70,-11,91,0
804054,61,-23,112,0
804065,69,-34,154,0
804076,64,-46,191,0
804087,63,-54,209,0
804098,64,-46,220,0
804109,64,-28,235,0
804120,53,-21,215,0
804131,41,-6,229,0
804142,62,-13,235,0
804153,83,-17,245,0
804164,73,-32,238,0
804175,59,-69,227,0
804186,27,-106,199,0
804197,28,-97,218,0
804208,35,-75,231,0
804219,45,-42,252,0
804230,56,-18,265,0
804241,63,-27,264,0
804252,66,-47,253,0
804263,96,-106,262,0
804274,93,-115,263,0
804285,88,-115,259,0
804296,73,-90,279,0
804307,61,-58,300,0
804318,48,-46,311,0
804330,44,-59,329,0
804340,39,-76,331,0
804352,59,-111,342,0
804363,58,-129,341,0
804374,24,-125,349,0
804385,30,-111,388,0
804396,25,-94,416,0
804407,29,-97,467,0
804418,30,-112,473,0
804429,49,-138,483,0
804440,49,-150,487,0
804451,34,-148,485,0
804462,33,-151,488,0
804473,38,-147,488,0
804484,37,-141,477,0
804495,47,-136,467,0
804506,49,-129,451,0
804517,56,-126,438,0
804528,56,-122,411,0
804539,61,-126,388,0
804550,62,-116,371,0
804561,69,-100,330,0
804572,67,-91,312,0
804583,69,-84,296,0
804594,82,-84,286,0
804605,90,-82,275,0
804616,91,-70,266,0
804627,97,-61,259,0
804638,97,-55,255,0
804649,92,-50,266,0
804660,93,-42,261,0
804671,95,-35,250,0
804682,90,-36,242,0
804693,85,-41,233,0
804704,85,-46,218,0
804715,78,-51,205,0
804726,83,-53,201,0
804737,79,-49,198,0
804748,70,-52,200,0
804759,66,-51,195,0
804770,64,-53,188,0
804781,68,-47,183,0
804792,68,-40,178,0
804803,68,-38,176,0
804814,78,-39,170,0
804825,88,-37,166,0
804836,95,-32,165,0
804847,99,-32,168,0
804858,100,-29,173,0
804869,96,-27,171,0
804880,92,-27,168,0
804891,90,-30,165,0
804902,77,-32,153,0
804913,69,-31,149,0
804924,72,-27,153,0
804935,70,-18,144,0
804946,63,-20,147,0
804957,69,-8,165,0
804968,62,1,144,0
804979,62,0,160,0
804990,57,-9,132,0
805001,57,-2,133,0
805012,53,-11,112,0
805023,57,-8,114,0
805034,58,-9,106,0
805045,59,0,104,0
805056,63,-9,84,0
805067,68,-10,79,0
805078,71,-8,79,0
805089,73,-3,80,0
805100,75,0,89,0
805111,79,3,92,0
805123,79,-3,92,0
805134,90,-12,97,0
805145,105,-20,91,0
805156,94,-17,84,0
805167,89,-7,90,0
805178,99,-7,100,0
805189,102,-3,106,0
805200,97,-3,101,0
805211,79,-16,88,0
805222,81,-18,91,0
805233,84,-22,89,0
805244,77,-13,80,0
805255,78,0,86,0
805266,78,2,100,0
805277,70,-3,114,0
805288,71,-6,120,0
805299,72,-7,119,0
805310,77,-22,117,0
805321,75,-21,130,0
805332,69,-21,130,0
805343,72,-20,138,0
805354,68,-11,143,0
805365,63,-16,142,0
805376,72,-24,179,0
805387,72,-43,194,0
805398,66,-57,198,0
805409,70,-49,199,0
805420,67,-33,192,0
805431,73,-19,227,0
805442,79,-7,242,0
805453,62,3,253,0
805464,51,-5,252,0
805475,40,-20,245,0
805486,39,-62,231,0
805497,32,-87,200,0
805508,46,-91,193,0
805519,55,-76,192,0
805530,60,-52,193,0
805541,73,-45,221,0
805552,89,-45,269,0
805563,87,-63,287,0
805574,90,-85,264,0
805585,92,-99,255,0
805596,85,-103,256,0
805607,90,-90,233,0
805618,91,-68,251,0
805629,84,-66,230,0
805640,87,-69,257,0
805651,80,-70,267,0
805662,72,-91,269,0
805673,72,-113,274,0
805684,49,-127,266,0
805695,52,-106,287,0
805706,31,-83,325,0
805717,26,-75,342,0
805728,17,-53,359,0
805739,3,-55,367,0
805750,14,-95,374,0
805761,38,-125,382,0
805772,55,-137,385,0
805783,67,-147,399,0
805794,65,-145,412,0
805805,50,-131,426,0
805816,38,-126,446,0
805828,23,-113,450,0
805839,15,-111,444,0
805850,45,-148,423,0
805861,64,-161,408,0
805872,60,-155,397,0
805883,50,-137,392,0
805894,51,-124,386,0
805905,55,-118,370,0
805916,57,-110,361,0
805927,59,-106,348,0
805938,67,-104,323,0
805949,73,-107,307,0
805960,82,-117,288,0
805971,91,-118,274,0
805982,92,-106,261,0
805993,83,-88,261,0
806004,82,-66,256,0
806015,84,-67,249,0
806026,90,-63,249,0
806037,90,-56,248,0
806048,90,-56,246,0
806060,84,-54,251,0
806071,79,-52,250,0
806082,75,-45,252,0
806093,70,-44,248,0
806104,65,-45,248,0
806115,58,-48,243,0
806126,60,-46,238,0
806137,58,-40,233,0
806148,59,-36,235,0
806159,63,-36,221,0
806170,65,-35,202,0
806181,71,-36,197,0
806192,73,-33,191,0
806203,65,-25,178,0
806214,69,-26,162,0
806225,69,-22,156,0
806236,68,-20,146,0
806247,68,-15,130,0
806258,66,-12,135,0
806269,67,-12,128,0
806280,64,-5,122,0
806291,64,-1,116,0
806302,63,-10,119,0
806313,63,-12,111,0
806325,68,-4,115,0
806336,70,1,108,0
806347,71,-11,109,0
806358,78,-11,101,0
806369,75,-13,97,0
806380,73,-10,87,0
806391,73,-6,87,0
806402,74,-9,78,0
806413,76,-7,80,0
806424,79,-3,89,0
806435,84,-2,92,0
806446,89,-7,92,0
806457,93,-8,90,0
806468,96,-8,97,0
806479,88,-16,108,0
806490,88,-20,104,0
806501,82,-14,100,0
806512,78,-2,99,0
806523,78,5,100,0
806534,72,6,95,0
806545,64,1,96,0
806556,62,3,97,0
806567,57,4,99,0
806578,50,4,103,0
806589,39,0,110,0
806600,42,-7,111,0
806611,51,-13,108,0
806622,63,-22,105,0
806633,71,-16,99,0
806644,89,-19,113,0
806655,92,-11,122,0
806666,97,-14,134,0
806677,92,-9,146,0
806688,93,-21,147,0
806699,98,-29,164,0
806710,98,-38,179,0
806721,91,-29,187,0
806732,73,-38,145,0
806743,65,-31,144,0
806754,59,-7,175,0
806765,46,1,184,0
806776,39,-2,183,0
806787,27,-14,181,0
806798,44,-35,181,0
806809,64,-58,166,0
806820,83,-60,185,0
806831,95,-55,212,0
806842,89,-40,223,0
806853,85,-33,226,0
806864,76,-42,210,0
806875,60,-45,212,0
806886,51,-61,212,0
806897,63,-80,218,0
806908,82,-90,222,0
806919,90,-77,229,0
806930,93,-66,234,0
806941,100,-66,254,0
806952,107,-58,261,0
806963,96,-56,275,0
806974,97,-114,287,0
806985,104,-141,299,0
806996,134,-140,298,0
807007,137,-125,298,0
807018,119,-93,317,0
807029,84,-60,317,0
807040,46,-56,336,0
807051,12,-75,361,0
807062,-3,-105,372,0
807073,2,-128,376,0
807084,22,-137,390,0
807095,46,-152,415,0
807106,47,-143,440,0
807117,30,-147,471,0
807128,42,-132,496,0
807139,39,-137,493,0
807150,43,-148,475,0
807161,50,-154,463,0
807172,53,-161,452,0
807183,58,-158,441,0
807194,53,-146,427,0
807205,52,-138,412,0
807216,55,-128,396,0
807227,61,-123,376,0
807238,68,-115,355,0
807249,70,-107,338,0
807260,71,-104,320,0
807271,72,-102,306,0
807282,73,-96,291,0
807293,75,-90,276,0
807304,80,-90,242,0
807315,88,-90,239,0
807326,94,-84,234,0
807337,95,-71,237,0
807348,95,-67,238,0
807359,91,-60,238,0
807370,86,-53,238,0
807381,85,-43,231,0
807392,87,-44,224,0
807403,85,-45,217,0
807414,86,-51,208,0
807425,88,-43,200,0
807436,79,-43,195,0
807447,75,-49,198,0
807458,68,-43,200,0
807469,59,-38,194,0
807480,56,-47,198,0
807491,58,-42,192,0
807502,60,-46,189,0
807513,67,-45,186,0
807524,70,-39,173,0
807535,68,-34,167,0
807546,65,-34,160,0
807557,69,-33,153,0
807568,69,-29,143,0
807579,66,-32,131,0
807590,65,-29,123,0
807601,66,-29,115,0
807612,66,-31,109,0
807623,69,-29,103,0
807634,64,-27,91,0
807645,63,-24,90,0
807656,61,-26,84,0
807667,67,-13,101,0
807678,68,-22,97,0
807689,67,-18,97,0
807700,70,-23,96,0
807711,80,-23,102,0
807722,94,-28,106,0
807733,98,-22,107,0
807744,96,-21,101,0
807755,96,-20,93,0
807766,96,-24,91,0
807777,103,-22,92,0
807788,102,-14,93,0
807800,104,-18,90,0
807811,109,-22,91,0
807822,110,-27,91,0
807833,106,-30,90,0
807844,100,-29,91,0
807855,94,-27,88,0
807866,85,-22,83,0
807877,72,-15,77,0
807888,65,-9,77,0
807899,65,-8,93,0
807910,70,1,110,0
807921,71,6,117,0
807932,76,3,110,0
807943,99,-7,96,0
807954,94,-27,88,0
807965,79,-30,80,0
807976,66,-27,89,0
807987,54,-33,114,0
807998,55,-27,150,0
808009,58,-9,181,0
808021,59,-12,192,0
808032,71,-13,199,0
808043,70,-15,200,0
808054,62,-24,151,0
808065,53,-31,141,0
808076,55,-54,126,0
808087,69,-64,127,0
808098,92,-48,182,0
808109,94,-40,186,0
808120,98,-31,188,0
808131,96,-22,201,0
808142,81,-27,207,0
808153,67,-41,200,0
808164,60,-52,195,0
808175,53,-70,215,0
808186,61,-101,233,0
808197,79,-116,247,0
808208,105,-105,251,0
808219,128,-89,263,0
808230,121,-62,256,0
808241,101,-43,250,0
808252,77,-43,216,0
808263,49,-108,226,0
808274,70,-150,245,0
808285,107,-163,269,0
808296,114,-125,278,0
808307,113,-115,293,0
808318,90,-97,318,0
808330,52,-91,349,0
808340,30,-89,377,0
808351,19,-100,394,0
808362,3,-133,386,0
808373,29,-165,402,0
808384,58,-172,418,0
808395,71,-172,444,0
808406,81,-169,469,0
808417,67,-151,486,0
808428,19,-132,511,0
808439,21,-140,511,0
808450,31,-146,511,0
808461,34,-151,482,0
808472,43,-160,455,0
808483,42,-149,431,0
808494,43,-138,418,0
808505,41,-124,405,0
808516,41,-106,391,0
808527,43,-109,377,0
808539,48,-111,362,0
808549,45,-107,348,0
808560,42,-98,331,0
808571,46,-99,317,0
808582,50,-100,307,0
808593,60,-102,251,0
808604,62,-87,234,0
808615,62,-89,224,0
808626,62,-74,212,0
808637,73,-76,202,0
808648,78,-78,207,0
808659,81,-74,213,0
808670,85,-66,226,0
808681,85,-59,227,0
808692,83,-52,217,0
808703,82,-53,216,0
808714,86,-45,218,0
808725,86,-47,212,0
808736,78,-53,206,0
808747,82,-48,203,0
808758,80,-45,205,0
808769,76,-50,201,0
808780,68,-44,192,0
808791,63,-44,182,0
808802,62,-47,174,0
808813,62,-45,167,0
808824,64,-44,165,0
808835,65,-40,162,0
808846,66,-37,149,0
808857,70,-38,136,0
808868,73,-33,126,0
808879,77,-31,117,0
808890,76,-25,112,0
808901,76,-26,108,0
808912,79,-26,103,0
808923,81,-22,114,0
808934,78,-21,116,0
808945,71,-17,118,0
808956,67,-17,111,0
808968,70,-16,107,0
808979,76,-14,114,0
808990,80,-9,103,0
809001,85,-5,92,0
809012,87,-9,79,0
809023,82,-11,67,0
809034,78,-13,60,0
809045,82,-9,66,0
809056,90,-11,63,0
809067,103,-8,63,0
809078,111,-7,75,0
809089,111,-14,84,0
809100,114,-15,87,0
809111,116,-13,95,0
809122,108,-14,98,0
809133,98,-19,93,0
809144,87,-14,91,0
809155,76,-12,90,0
809166,74,-10,94,0
809177,70,-15,103,0
809188,68,-24,108,0
809199,61,-23,103,0
809210,52,-25,103,0
809221,56,-22,107,0
809232,58,-19,103,0
809243,59,-14,102,0
809254,63,-7,104,0
809265,62,3,107,0
809276,57,4,107,0
809287,56,-1,114,0
809298,53,-15,123,0
809309,52,-35,130,0
809320,54,-41,139,0
809331,48,-39,138,0
809342,43,-46,139,0
809353,48,-47,141,0
809364,56,-39,150,0
809375,70,-16,179,0
809386,73,-5,208,0
809397,52,-28,182,0
809408,49,-53,168,0
809419,53,-68,169,0
809430,62,-70,185,0
809441,68,-69,197,0
809452,80,-67,213,0
809463,98,-68,227,0
809474,104,-65,240,0
809485,104,-55,240,0
809496,99,-52,232,0
809507,89,-61,230,0
809518,68,-78,221,0
809529,80,-89,231,0
809540,105,-114,266,0
809551,120,-117,248,0
809562,57,-55,267,0
809573,17,-32,275,0
809584,-4,-44,297,0
809595,-13,-59,309,0
809606,6,-84,322,0
809617,34,-115,324,0
809628,38,-128,320,0
809639,26,-127,323,0
809650,-3,-128,347,0
809661,-35,-107,380,0
809672,-50,-101,424,0
809683,-40,-105,473,0
809694,-30,-103,498,0
809705,-37,-118,511,0
809716,-35,-142,511,0
809727,3,-175,511,0
809738,6,-177,511,0
809749,0,-166,511,0
809760,-12,-149,511,0
809771,-25,-127,511,0
809782,-26,-117,506,0
809793,-20,-118,476,0
809804,-9,-121,439,0
809815,0,-125,402,0
809826,4,-118,380,0
809837,5,-103,360,0
809848,6,-87,335,0
809859,7,-73,308,0
809870,11,-64,280,0
809881,25,-70,254,0
809892,53,-77,226,0
809903,60,-75,222,0
809914,54,-68,225,0
809925,47,-64,232,0
809936,52,-64,233,0
809947,59,-60,233,0
809958,60,-49,231,0
809969,63,-45,222,0
809980,72,-38,221,0
809991,78,-39,222,0
810002,82,-41,225,0
810013,81,-43,228,0
810024,86,-46,231,0
810035,87,-38,226,0
810046,84,-44,214,0
810058,81,-30,206,0
810069,79,-34,199,0
810080,82,-30,192,0
810091,79,-27,196,0
810102,78,-25,193,0
810113,77,-24,193,0
810124,78,-21,188,0
810135,79,-18,179,0
810146,80,-21,177,0
810157,75,-20,174,0
810168,68,-22,162,0
810179,72,-26,144,0
810190,78,-29,142,0
810201,77,-17,135,0
810212,76,-20,144,0
810223,71,-20,137,0
810234,65,-14,134,0
810245,57,-21,113,0
810256,54,-8,106,0
810267,35,-8,79,0
810278,38,2,81,0
810289,29,-1,61,0
810300,29,12,66,0
810311,32,7,65,0
810323,40,1,45,0
810334,45,3,47,0
810345,59,-1,47,0
810356,83,-8,69,0
810367,95,-20,75,0
810378,105,-24,62,0
810389,112,-20,62,0
810400,112,-17,66,0
810411,107,-19,76,0
810422,106,-21,89,0
810433,98,-23,90,0
810444,86,-24,93,0
810455,82,-24,98,0
810466,76,-23,100,0
810477,69,-21,87,0
810488,59,-15,72,0
810499,47,-6,62,0
810510,40,3,66,0
810521,42,9,92,0
810532,48,-12,103,0
810543,56,-25,103,0
810554,62,-25,79,0
810565,60,-31,73,0
810576,50,-36,75,0
810587,53,-27,81,0
810598,57,-26,99,0
810609,58,-18,134,0
810620,58,-18,158,0
810631,61,-22,174,0
810642,63,-10,168,0
810653,61,-4,141,0
810664,50,-9,141,0
810675,52,-31,152,0
810686,58,-67,198,0
810697,75,-64,214,0
810708,85,-44,231,0
810719,62,-9,245,0
810730,41,2,246,0
810741,19,-2,242,0
810752,9,-21,230,0
810763,9,-51,231,0
810774,30,-100,231,0
810785,74,-135,246,0
810796,109,-147,272,0
810807,134,-118,287,0
810818,136,-83,277,0
810829,108,-51,277,0
810840,74,-32,270,0
810851,11,-63,246,0
810862,8,-103,229,0
810873,40,-122,224,0
810884,75,-128,236,0
810895,95,-120,260,0
810906,74,-81,287,0
810917,40,-59,317,0
810928,5,-45,351,0
810939,-40,-47,356,0
810950,-66,-89,339,0
810961,-38,-123,353,0
810972,-17,-145,376,0
810983,0,-147,409,0
810994,16,-139,459,0
811005,3,-133,506,0
811016,-42,-132,511,0
811027,-50,-141,511,0
811038,-40,-161,511,0
811049,-23,-173,511,0
811060,-18,-165,511,0
811071,-22,-157,507,0
811082,-25,-147,488,0
811094,-27,-129,464,0
811105,-20,-125,440,0
811116,-5,-112,412,0
811127,2,-106,381,0
811138,8,-99,358,0
811149,13,-87,337,0
811160,22,-80,300,0
811171,22,-67,282,0
811182,30,-69,262,0
811193,31,-73,251,0
811204,38,-74,236,0
811215,53,-67,243,0
811226,58,-73,232,0
811238,61,-58,236,0
811249,63,-50,241,0
811260,58,-45,241,0
811271,62,-43,240,0
811282,63,-46,245,0
811293,65,-53,242,0
811304,65,-37,244,0
811315,66,-49,227,0
811326,64,-51,219,0
811337,65,-49,210,0
811348,62,-50,203,0
811359,62,-50,209,0
811370,60,-44,208,0
811381,59,-42,200,0
811392,57,-37,193,0
811403,57,-37,187,0
811414,63,-38,180,0
811425,64,-37,171,0
811436,65,-38,162,0
811447,68,-39,149,0
811458,66,-37,137,0
811469,68,-31,128,0
811480,61,-20,106,0
811492,54,-22,105,0
811503,56,-20,101,0
811514,56,-23,88,0
811525,55,-19,86,0
811536,54,-17,79,0
811547,55,-16,67,0
811558,58,-14,65,0
811569,62,-17,60,0
811580,60,-13,53,0
811591,66,-7,59,0
811602,64,-12,60,0
811613,68,-4,64,0
811624,81,-10,76,0
811635,84,-11,78,0
811646,91,-14,74,0
811657,91,-19,66,0
811668,88,-17,62,0
811679,81,-11,63,0
811690,74,-6,65,0
811701,73,-7,68,0
811712,76,0,68,0
811723,72,3,68,0
811734,70,5,75,0
811745,67,2,83,0
811756,67,-2,90,0
811767,60,-5,97,0
811778,55,-13,98,0
811789,63,-28,105,0
811800,75,-28,102,0
811811,76,-20,101,0
811822,74,-10,94,0
811833,71,-3,100,0
811844,71,2,117,0
811855,79,1,141,0
811866,75,-11,147,0
811877,75,-17,135,0
811888,73,-29,108,0
811899,72,-30,132,0
811910,70,-33,165,0
811921,56,-33,167,0
811932,51,-35,166,0
811943,62,-39,195,0
811954,47,-23,193,0
811965,49,-20,192,0
811976,51,-21,200,0
811987,39,-34,205,0
811998,52,-33,222,0
812009,63,-56,228,0
812020,74,-63,234,0
812031,84,-83,242,0
812042,73,-65,256,0
812053,67,-62,244,0
812064,65,-41,249,0
812075,54,-29,249,0
812086,44,-19,255,0
812097,45,-31,262,0
812108,46,-64,264,0
812119,63,-97,273,0
812130,66,-90,285,0
812141,47,-75,293,0
812152,36,-67,302,0
812163,31,-68,319,0
812174,22,-57,320,0
812185,-9,-61,322,0
812196,-3,-74,324,0
812207,-11,-114,338,0
812218,11,-141,357,0
812229,52,-152,404,0
812240,50,-140,434,0
812251,14,-127,458,0
812262,-21,-105,494,0
812273,-40,-104,511,0
812284,-12,-139,511,0
812295,-2,-150,511,0
812306,-8,-155,511,0
812317,-11,-158,511,0
812328,-10,-139,511,0
812339,-2,-124,510,0
812350,5,-114,476,0
812361,20,-113,442,0
812372,34,-106,403,0
812383,45,-99,380,0
812394,46,-95,356,0
812405,53,-92,338,0
812416,55,-86,325,0
812427,57,-80,318,0
812438,66,-71,273,0
812449,69,-60,259,0
812460,69,-53,256,0
812471,70,-51,249,0
812482,73,-47,239,0
812493,73,-37,243,0
812504,71,-37,251,0
812515,75,-33,245,0
812526,74,-36,240,0
812537,69,-35,227,0
812548,76,-33,219,0
812559,79,-28,216,0
812570,80,-25,213,0
812581,80,-26,214,0
812592,78,13,227,0
812603,77,-29,194,0
812614,73,-26,186,0
812625,70,-28,178,0
812636,73,-24,178,0
812647,71,-27,171,0
812658,69,-26,167,0
812669,69,-30,160,0
812680,69,-24,155,0
812691,67,-21,151,0
812702,66,-23,140,0
812713,70,-22,137,0
812724,66,-21,125,0
812735,63,-21,128,0
812746,63,-18,127,0
812757,61,-14,123,0
812768,57,-12,107,0
812779,57,-15,95,0
812790,56,-12,104,0
812801,59,-22,121,0
812812,67,-14,113,0
812823,77,-27,115,0
812834,79,-17,77,0
812845,83,-25,52,0
812856,91,-23,54,0
812867,88,-14,52,0
812878,92,-14,62,0
812889,94,-12,68,0
812900,89,-19,73,0
812911,90,-19,76,0
812922,89,-19,82,0
812933,89,-17,81,0
812944,85,-13,82,0
812955,86,-10,84,0
812966,84,-15,94,0
812977,78,-16,99,0
812988,77,-13,103,0
812999,70,-12,102,0
813010,62,-10,92,0
813021,59,-14,84,0
813032,57,-10,77,0
813043,53,-13,76,0
813054,52,-15,74,0
813065,50,-17,70,0
813076,46,-8,71,0
813087,45,-6,87,0
813098,54,-29,109,0
813109,60,-32,102,0
813120,60,-23,106,0
813131,62,-16,111,0
813142,64,-1,125,0
813153,59,5,130,0
813164,51,-1,141,0
813175,58,-16,160,0
813186,57,-44,160,0
813197,56,-70,156,0
813208,68,-73,175,0
813219,95,-58,192,0
813230,107,-25,216,0
813241,102,-5,227,0
813252,96,2,230,0
813263,59,-28,205,0
813274,55,-44,202,0
813285,48,-60,198,0
813296,58,-77,196,0
813307,72,-91,207,0
813318,90,-64,227,0
813329,97,-40,251,0
813340,98,-34,254,0
813351,81,-34,255,0
813362,60,-54,248,0
813373,61,-86,253,0
813384,58,-104,262,0
813395,53,-116,254,0
813406,60,-111,251,0
813417,55,-95,247,0
813428,39,-75,274,0
813439,50,-84,297,0
813450,48,-92,292,0
813461,36,-109,290,0
813472,22,-121,301,0
813483,16,-107,309,0
813494,-7,-117,326,0
813505,-26,-108,355,0
813516,-19,-109,385,0
813527,3,-135,420,0
813538,19,-152,443,0
813549,14,-156,453,0
813560,10,-162,494,0
813571,-1,-171,511,0
813582,2,-165,511,0
813593,-4,-167,511,0
813604,-6,-176,511,0
813615,1,-171,511,0
813626,5,-161,487,0
813637,14,-160,461,0
813648,20,-159,436,0
813659,21,-153,411,0
813670,25,-134,394,0
813681,25,-126,374,0
813692,15,-111,349,0
813703,19,-109,321,0
813714,35,-100,305,0
813725,44,-86,274,0
813736,43,-92,255,0
813747,51,-83,239,0
813758,61,-80,245,0
813769,64,-82,253,0
813780,62,-71,252,0
813791,64,-64,250,0
813802,66,-61,242,0
813813,65,-52,237,0
813824,70,-47,234,0
813835,76,-48,230,0
813846,78,-51,232,0
813857,76,-47,232,0
813868,79,-42,227,0
813879,63,-54,219,0
813890,66,-56,212,0
813901,66,-53,204,0
813912,62,-49,202,0
813923,59,-41,198,0
813934,59,-36,192,0
813945,56,-32,189,0
813956,53,-29,178,0
813967,50,-24,172,0
813978,53,-28,167,0
813989,52,-31,164,0
814000,55,-31,155,0
814012,58,-34,146,0
814023,56,-33,130,0
814034,61,-25,132,0
814045,60,-24,123,0
814056,58,-17,119,0
814067,59,-15,112,0
814078,50,-13,115,0
814089,46,-12,102,0
814100,35,-6,91,0
814111,35,1,93,0
814122,35,-3,87,0
814133,34,-2,76,0
814144,35,-1,76,0
814155,46,0,73,0
814166,61,2,78,0
814177,69,-2,79,0
814188,76,-3,83,0
814199,80,-11,86,0
814210,87,-26,81,0
814221,111,-35,69,0
814232,119,-36,68,0
814243,127,-28,70,0
814254,129,-23,75,0
814265,126,-12,78,0
814276,119,-6,80,0
814287,115,-9,77,0
814298,114,-8,71,0
814309,113,-14,70,0
814320,117,-13,75,0
814331,103,-10,71,0
814342,91,-14,65,0
814353,86,-20,67,0
814364,86,-30,82,0
814375,92,-30,96,0
814386,83,-17,101,0
814397,76,-9,108,0
814408,81,-7,110,0
814419,111,-2,110,0
814430,134,-12,117,0
814441,132,-37,113,0
814452,102,-48,89,0
814463,81,-51,67,0
814474,72,-48,76,0
814485,52,-25,114,0
814496,39,-9,142,0
814507,23,-2,163,0
814518,11,-14,170,0
814529,12,-15,180,0
814540,57,-29,177,0
814551,143,-40,209,0
814563,136,-40,207,0
814574,118,-34,179,0
814585,80,-28,142,0
814596,55,-34,166,0
814607,32,-45,214,0
814618,15,-67,224,0
814629,42,-76,224,0
814640,95,-94,237,0
814651,143,-110,233,0
814662,130,-93,245,0
814673,111,-82,243,0
814684,84,-47,260,0
814695,74,-51,256,0
814706,66,-61,264,0
814717,88,-111,240,0
814728,117,-164,217,0
814739,68,-162,200,0
814750,37,-138,236,0
814762,31,-111,291,0
814773,-17,-26,322,0
814784,-69,-10,378,0
814795,-70,-38,392,0
814806,-71,-73,375,0
814817,-64,-101,390,0
814828,-32,-152,413,0
814839,2,-196,433,0
814851,-1,-172,511,0
814862,-33,-133,511,0
814873,-34,-121,511,0
814884,-29,-122,511,0
814895,-18,-147,511,0
814906,3,-175,511,0
814917,13,-189,511,0
814928,13,-188,511,0
814939,3,-170,511,0
814950,0,-147,489,0
814961,2,-128,452,0
814972,2,-108,407,0
814983,11,-99,373,0
814994,19,-104,344,0
815005,26,-107,314,0
815016,25,-98,302,0
815027,18,-87,292,0
815038,24,-89,273,0
815049,41,-89,239,0
815060,56,-79,212,0
815071,56,-66,213,0
815082,61,-66,220,0
815093,60,-66,222,0
815104,57,-64,224,0
815115,65,-57,229,0
815126,68,-46,234,0
815137,64,-34,236,0
815148,64,-41,228,0
815159,68,-54,226,0
815170,63,-46,216,0
815181,63,-46,203,0
815192,69,-49,203,0
815203,76,-40,201,0
815214,77,-32,203,0
815225,80,-30,197,0
815236,81,-30,188,0
815247,83,-32,165,0
815258,76,-34,156,0
815269,72,-39,143,0
815280,63,-38,130,0
815291,60,-39,125,0
815302,54,-33,125,0
815313,50,-28,121,0
815324,53,-24,119,0
815335,52,-12,118,0
815346,53,-3,119,0
815357,52,-5,108,0
815368,51,-1,106,0
815379,49,-5,99,0
815390,49,-11,95,0
815401,50,-9,96,0
815412,60,-5,91,0
815423,67,-11,84,0
815434,77,-4,95,0
815445,90,-1,99,0
815456,102,-3,91,0
815467,107,-2,88,0
815478,108,0,89,0
815489,108,2,83,0
815500,104,1,76,0
815511,104,2,77,0
815522,106,6,81,0
815533,110,6,85,0
815544,119,7,82,0
815555,123,5,79,0
815566,121,1,78,0
815577,112,-6,74,0
815588,97,-14,72,0
815599,87,-9,74,0
815610,77,-1,84,0
815621,73,-4,98,0
815632,68,-12,108,0
815643,61,-14,110,0
815654,54,-25,104,0
815665,64,-18,92,0
815676,68,-20,91,0
815688,76,-13,88,0
815699,82,-1,76,0
815710,95,-1,59,0
815721,103,-1,64,0
815732,110,-3,73,0
815743,105,0,97,0
815754,78,-10,91,0
815765,63,-33,81,0
815776,59,-44,83,0
815787,40,-43,99,0
815798,27,-27,135,0
815809,43,28,188,0
815820,58,24,195,0
815831,71,1,206,0
815842,88,-26,205,0
815853,74,-43,200,0
815864,40,-65,175,0
815875,36,-77,171,0
815886,40,-56,192,0
815897,32,-17,224,0
815908,49,-6,240,0
815919,72,-10,232,0
815930,79,-47,221,0
815941,78,-87,218,0
815952,85,-112,236,0
815963,93,-123,255,0
815974,100,-85,291,0
815985,91,-53,300,0
815996,97,-43,271,0
816007,88,-45,275,0
816018,66,-66,260,0
816029,25,-103,245,0
816040,17,-121,267,0
816051,60,-137,312,0
816062,87,-125,340,0
816073,68,-95,365,0
816084,57,-72,403,0
816095,40,-77,431,0
816106,1,-78,452,0
816117,-11,-107,489,0
816128,12,-147,505,0
816139,43,-163,511,0
816150,26,-156,511,0
816161,12,-154,511,0
816172,7,-145,511,0
816183,18,-146,511,0
816194,34,-152,511,0
816205,41,-161,511,0
816216,46,-168,503,0
816227,44,-147,483,0
816238,35,-121,459,0
816249,31,-100,429,0
816260,31,-98,391,0
816271,41,-98,341,0
816282,53,-96,298,0
816293,62,-100,286,0
816304,71,-88,266,0
816315,64,-81,258,0
816326,60,-71,259,0
816337,61,-62,254,0
816348,60,-58,251,0
816359,64,-61,243,0
816370,66,-59,239,0
816381,68,-57,230,0
816392,78,-53,221,0
816403,82,-55,221,0
816414,80,-55,214,0
816425,84,-44,216,0
816436,77,-51,211,0
816447,83,-51,205,0
816458,79,-46,200,0
816469,80,-38,183,0
816480,85,-35,182,0
816491,85,-33,190,0
816502,75,-33,187,0
816513,71,-32,182,0
816524,65,-27,175,0
816535,62,-20,165,0
816546,61,-23,155,0
816557,59,-28,141,0
816568,63,-29,130,0
816579,69,-30,113,0
816590,70,-30,110,0
816601,69,-19,98,0
816612,65,-24,98,0
816623,65,-26,94,0
816634,68,-11,91,0
816645,69,-17,83,0
816656,67,-16,92,0
816667,62,-17,92,0
816678,57,-26,91,0
816689,60,-20,107,0
816700,63,-28,100,0
816711,66,-22,100,0
816722,77,-19,98,0
816733,84,-14,95,0
816744,86,-5,94,0
816755,83,2,95,0
816766,76,8,93,0
816777,82,8,88,0
816788,89,1,74,0
816799,105,-8,84,0
816810,110,-8,83,0
816822,108,-12,82,0
816833,105,-20,75,0
816844,103,-20,69,0
816855,99,-18,66,0
816866,91,-18,65,0
816877,81,-20,65,0
816888,78,-20,64,0
816899,70,-20,64,0
816910,68,-23,71,0
816921,68,-22,72,0
816932,64,-11,67,0
816943,59,-5,59,0
816954,62,-1,74,0
816965,63,-1,83,0
816976,65,0,95,0
816987,63,-12,96,0
816998,68,-28,100,0
817009,59,-38,106,0
817020,52,-54,102,0
817031,53,-41,117,0
817042,37,-27,135,0
817053,31,-8,142,0
817064,31,-1,149,0
817075,33,5,157,0
817086,33,-14,153,0
817097,41,-29,166,0
817108,47,-38,195,0
817119,60,-55,201,0
817130,85,-49,214,0
817141,98,-45,200,0
817152,95,-38,215,0
817163,82,-43,229,0
817174,87,-52,258,0
817185,72,-48,267,0
817196,61,-75,274,0
817207,64,-49,296,0
817218,68,-118,264,0
817229,85,-105,261,0
817240,105,-89,276,0
817251,100,-52,265,0
817262,83,-28,261,0
817273,79,-90,298,0
817284,50,-116,300,0
817295,60,-134,333,0
817306,72,-131,351,0
817317,66,-93,383,0
817328,60,-95,418,0
817339,37,-83,442,0
817350,13,-110,473,0
817361,-18,-140,486,0
817372,-26,-164,495,0
817383,-11,-181,493,0
817394,0,-181,499,0
817405,1,-159,511,0
817416,-10,-140,511,0
817427,-24,-137,511,0
817439,-7,-142,511,0
817450,-1,-145,511,0
817461,8,-147,477,0
817472,10,-138,431,0
817483,20,-122,397,0
817494,27,-106,374,0
817505,31,-92,359,0
817516,34,-89,343,0
817527,41,-86,327,0
817538,47,-83,311,0
817549,40,-78,299,0
817560,46,-78,283,0
817571,51,-72,275,0
817582,39,-57,259,0
817593,42,-48,252,0
817604,44,-42,249,0
817615,55,-38,245,0
817626,61,-39,240,0
817637,62,-41,238,0
817648,62,-36,239,0
817659,65,-27,232,0
817670,64,-28,237,0
817681,63,-32,234,0
817692,56,-27,227,0
817703,62,-32,215,0
817714,64,-29,209,0
817725,64,-29,198,0
817736,65,-27,185,0
817747,60,-18,165,0
817758,58,-15,159,0
817769,58,-18,151,0
817780,56,-19,144,0
817791,58,-22,147,0
817802,63,-24,151,0
817813,65,-25,148,0
817824,64,-22,149,0
817835,60,-22,135,0
817846,60,-11,137,0
817857,57,-9,129,0
817868,56,-6,134,0
817879,53,-6,130,0
817890,50,-12,121,0
817901,53,-11,122,0
817912,60,-13,118,0
817923,62,-16,117,0
817934,61,-17,103,0
817945,63,-11,100,0
817956,71,-13,94,0
817967,80,-13,85,0
817978,91,-15,81,0
817989,97,-13,81,0
818000,100,-13,82,0
818011,104,-17,80,0
818022,107,-19,73,0
818033,110,-21,69,0
818044,110,-23,73,0
818055,110,-21,79,0
818066,102,-22,79,0
818077,92,-20,87,0
818088,89,-18,84,0
818099,83,-15,80,0
818110,78,-12,80,0
818121,70,-6,81,0
818132,66,-6,85,0
818143,64,-13,85,0
818154,62,-4,76,0
818165,60,-1,75,0
818176,50,-7,84,0
818187,47,-7,87,0
818198,48,-9,87,0
818209,45,-14,73,0
818220,52,-18,67,0
818231,60,-15,72,0
818242,64,-6,103,0
818253,59,-8,111,0
818264,43,2,125,0
818275,36,-2,135,0
818286,46,-24,165,0
818297,59,-41,173,0
818308,76,-48,155,0
818319,94,-36,150,0
818330,110,-17,154,0
818341,116,0,183,0
818352,106,13,204,0
818363,73,-4,184,0
818374,45,-41,159,0
818385,37,-61,164,0
818396,44,-52,190,0
818407,73,-44,221,0
818418,78,-28,246,0
818429,79,-28,272,0
818440,71,-36,294,0
818451,36,-46,296,0
818462,-4,-71,273,0
818473,-11,-77,265,0
818484,-4,-80,267,0
818495,29,-99,262,0
818506,80,-108,289,0
818517,123,-114,290,0
818528,134,-88,290,0
818539,112,-66,297,0
818550,56,-63,292,0
818561,-41,-99,300,0
818572,-26,-110,323,0
818583,-2,-121,352,0
818594,48,-132,419,0
818605,63,-107,480,0
818617,24,-108,511,0
818628,-19,-117,511,0
818639,-45,-141,511,0
818650,-56,-164,511,0
818661,-47,-164,511,0
818672,-42,-158,511,0
818683,-38,-167,511,0
818694,-32,-154,511,0
818705,-26,-138,511,0
818716,-1,-139,504,0
818727,21,-145,474,0
818738,27,-131,434,0
818749,27,-123,391,0
818760,32,-116,364,0
818771,37,-103,330,0
818782,36,-91,306,0
818793,33,-81,302,0
818804,36,-77,290,0
818815,33,-82,282,0
818826,40,-79,282,0
818837,38,-68,271,0
818848,34,-61,256,0
818859,39,-42,253,0
818870,38,-50,247,0
818881,52,-56,231,0
818892,48,-58,225,0
818903,60,-46,212,0
818914,65,-37,214,0
818925,67,-27,212,0
818936,73,-28,198,0
818947,72,-36,187,0
818958,69,-39,177,0
818969,70,-42,175,0
818980,65,-36,175,0
818991,63,-37,173,0
819002,57,-35,176,0
819013,58,-30,178,0
819024,58,-29,182,0
819035,57,-24,186,0
819046,47,-22,162,0
819057,50,-21,156,0
819068,51,-20,160,0
819079,50,-22,153,0
819090,55,-23,163,0
819101,55,-21,155,0
819112,57,-21,155,0
819123,59,-22,150,0
819134,60,-13,159,0
819145,57,-13,155,0
819156,60,-10,166,0
819167,47,-17,154,0
819178,48,-11,157,0
819189,49,-25,141,0
819200,61,-24,135,0
819211,73,-20,126,0
819222,72,-17,124,0
819233,74,-13,122,0
819244,67,-7,124,0
819255,54,-3,128,0
819266,51,-1,128,0
819277,53,-2,123,0
819288,54,-8,118,0
819299,62,-10,125,0
819310,73,-7,134,0
819321,84,-7,138,0
819332,93,-8,146,0
819343,94,-11,155,0
819354,91,-11,162,0
819365,89,-12,173,0
819376,83,-1,184,0
819387,75,4,188,0
819398,74,10,191,0
819409,75,19,191,0
819420,73,24,179,0
819431,80,10,215,0
819442,95,-11,218,0
819453,95,21,203,0
819464,104,-3,221,0
819475,102,2,219,0
819486,104,0,216,0
819497,106,0,217,0
819508,107,1,214,0
819519,104,2,215,0
819530,95,2,219,0
819541,86,8,224,0
819552,83,13,224,0
819563,82,13,221,0
819574,79,9,218,0
819585,79,12,216,0
819596,77,11,214,0
819607,81,8,215,0
819618,82,0,219,0
819629,82,-2,225,0
819640,76,-2,234,0
819651,73,-1,235,0
819662,69,3,230,0
819673,65,3,222,0
819684,63,2,214,0
819695,55,3,215,0
819706,54,9,219,0
819717,52,13,226,0
819728,49,11,230,0
819739,44,4,232,0
819750,44,0,232,0
819761,43,0,228,0
819772,46,1,221,0
819783,50,2,217,0
819794,54,2,214,0
819805,53,1,215,0
819816,50,4,220,0
819827,53,3,230,0
819838,51,4,234,0
819849,51,4,235,0
819860,51,-1,229,0
819871,52,0,230,0
819882,52,0,225,0
819893,55,2,225,0
819904,57,6,227,0
819915,58,2,230,0
819926,59,1,234,0
819937,60,-1,241,0
819948,62,-1,237,0
819959,64,-1,232,0
819970,65,-1,227,0
819981,66,-1,225,0
819992,66,0,225,0
820003,66,-1,219,0
820014,65,1,223,0
820025,63,0,229,0
820036,59,1,228,0
820047,56,3,228,0
820058,55,2,231,0
820069,54,3,230,0
820080,52,3,230,0
820091,52,2,227,0
820102,52,2,226,0
820113,52,2,226,0
820124,52,2,227,0
820135,52,3,227,0
820146,52,3,228,0
820157,50,2,229,0
820168,50,0,229,0
820179,50,0,231,0
820190,48,2,227,0
820201,45,1,226,0
820212,42,1,225,0
820223,43,2,224,0
820234,44,5,226,0
820245,46,5,227,0
820256,48,6,227,0
820267,43,4,228,0
820278,41,0,228,0
820289,41,1,230,0
820300,45,0,232,0
820311,48,2,230,0
820322,48,4,229,0
820333,48,3,228,0
820344,46,3,227,0
820355,47,2,229,0
820366,48,2,230,0
820377,48,2,229,0
820388,49,1,228,0
820399,49,1,230,0
820410,48,0,228,0
820421,47,1,227,0
820432,47,1,227,0
820443,47,2,227,0
820454,45,3,227,0
820465,47,3,229,0
820476,49,1,232,0
820487,46,1,229,0
820498,47,1,228,0
820509,44,1,229,0
820520,45,1,231,0
820531,45,1,231,0
820542,47,0,229,0
820553,46,0,231,0
820564,46,1,232,0
820575,45,1,231,0
820586,44,1,230,0
820597,45,1,230,0
820608,43,3,230,0
