timestamp,accX,accY,accZ,step
399726,39,15,223,0
399737,39,11,217,0
399748,38,15,226,0
399759,37,16,227,0
399770,37,16,223,0
399781,38,20,231,0
399791,40,17,232,0
399801,38,18,230,0
399812,38,18,230,0
399823,39,15,227,0
399834,38,18,231,0
399845,38,17,228,0
399856,38,17,229,0
399866,39,16,230,0
399877,40,16,231,0
399888,38,15,232,0
399898,40,15,230,0
399909,41,13,231,0
399920,44,13,229,0
399931,46,16,225,0
399942,47,15,225,0
399953,47,17,226,0
399964,47,17,228,0
399975,47,15,229,0
399986,47,15,226,0
399997,46,15,227,0
400008,43,16,231,0
400019,43,17,234,0
400030,43,17,230,0
400041,44,15,233,0
400052,42,16,230,0
400063,42,14,231,0
400074,39,12,232,0
400085,39,12,233,0
400096,38,12,227,0
400107,35,12,230,0
400118,35,14,231,0
400129,34,13,228,0
400140,34,13,229,0
400151,35,15,228,0
400162,34,15,229,0
400173,33,13,228,0
400184,33,12,227,0
400195,36,15,226,0
400206,38,17,226,0
400217,40,17,227,0
400228,42,18,227,0
400239,43,17,228,0
400250,46,15,227,0
400261,50,10,227,0
400272,52,9,225,0
400283,56,10,226,0
400294,57,12,226,0
400305,61,11,228,0
400316,60,12,227,0
400327,57,13,225,0
400338,52,14,224,0
400349,47,15,226,0
400360,44,19,225,0
400371,42,19,229,0
400382,40,21,232,0
400393,40,19,232,0
400404,39,21,235,0
400415,39,19,232,0
400426,36,16,226,0
400437,36,19,224,0
400448,35,21,223,0
400459,34,18,224,0
400470,32,18,227,0
400481,33,17,229,0
400492,33,17,233,0
400503,34,23,234,0
400514,34,25,235,0
400525,37,29,234,0
400536,38,29,232,0
400547,33,29,228,0
400558,33,25,226,0
400569,30,23,224,0
400580,27,25,226,0
400591,25,28,233,0
400602,30,32,233,0
400613,34,34,232,0
400624,36,38,230,0
400635,38,39,230,0
400646,41,36,230,0
400657,43,31,231,0
400669,46,34,228,0
400680,46,34,223,0
400691,45,31,225,0
400702,48,34,224,0
400713,47,35,230,0
400724,46,36,234,0
400735,44,36,238,0
400746,43,38,240,0
400757,42,37,236,0
400768,40,34,234,0
400779,38,30,235,0
400790,37,32,230,0
400801,37,29,223,0
400812,37,18,223,0
400823,36,11,222,0
400834,32,12,223,0
400845,28,11,225,0
400856,27,10,227,0
400867,26,12,229,0
400878,27,14,230,0
400889,30,15,230,0
400900,30,17,233,0
400911,32,19,232,0
400922,31,22,227,0
400933,32,19,229,0
400944,32,16,229,0
400955,34,14,231,0
400966,33,15,229,0
400977,32,14,226,0
400988,32,13,225,0
400999,33,11,224,0
401010,34,8,227,0
401021,34,11,228,0
401032,34,12,229,0
401043,30,7,234,0
401054,25,8,236,0
401065,22,15,235,0
401076,19,17,234,0
401087,20,14,232,0
401098,22,10,233,0
401109,24,11,229,0
401120,28,10,226,0
401131,30,9,226,0
401142,32,11,227,0
401153,34,15,229,0
401164,33,15,231,0
401175,31,14,232,0
401186,31,11,234,0
401197,30,13,232,0
401208,27,12,232,0
401219,26,12,231,0
401230,27,12,231,0
401241,29,10,231,0
401252,30,11,230,0
401263,30,11,229,0
401274,32,11,230,0
401285,34,11,229,0
401296,37,12,229,0
401307,36,13,228,0
401318,38,13,229,0
401329,37,12,228,0
401340,36,13,228,0
401351,35,11,229,0
401362,33,13,229,0
401373,31,12,230,0
401384,29,12,232,0
401395,28,14,232,0
401406,23,13,230,0
401417,20,12,232,0
401428,18,12,230,0
401439,17,11,231,0
401450,18,12,232,0
401461,20,14,232,0
401472,22,15,231,0
401483,26,14,234,0
401494,32,13,236,0
401505,36,12,235,0
401516,41,14,232,0
401527,45,12,229,0
401538,46,10,230,0
401549,45,6,230,0
401560,47,6,228,0
401571,46,8,226,0
401582,46,8,227,0
401593,46,7,231,0
401604,48,6,235,0
401615,49,11,234,0
401626,49,14,235,0
401637,46,13,234,0
401648,46,9,233,0
401659,50,4,232,0
401670,53,4,232,0
401681,55,5,230,0
401692,54,3,229,0
401703,54,2,226,0
401714,57,1,226,0
401725,61,4,225,0
401736,60,2,227,0
401747,60,2,229,0
401758,60,5,230,0
401769,57,4,232,0
401780,51,1,230,0
401791,47,2,227,0
401802,44,9,231,0
401813,45,8,231,0
401824,42,2,231,0
401835,43,-2,229,0
401846,49,-9,226,0
401857,59,-13,223,0
401868,59,-4,228,0
401879,66,-1,230,0
401890,69,8,217,0
401901,65,3,200,0
401912,59,5,182,0
401923,54,10,173,0
401934,50,5,175,0
401945,45,5,186,0
401956,37,2,193,0
401967,34,0,195,0
401978,28,0,193,0
401989,10,3,185,0
402000,-7,1,188,0
402011,-30,2,186,0
402022,-39,-1,180,0
402033,-37,-6,180,0
402044,-22,-11,179,0
402055,2,-12,178,0
402066,43,-36,181,0
402077,56,-33,175,0
402088,56,-28,168,0
402099,58,-22,154,0
402110,59,-6,130,0
402121,62,-10,118,0
402132,68,-15,137,0
402143,69,-18,178,0
402154,73,-32,201,0
402165,69,-16,203,0
402176,44,-31,173,0
402187,26,-7,193,0
402198,1,-10,156,0
402209,1,1,141,0
402220,-5,-9,129,0
402231,7,0,167,0
402242,14,-5,186,0
402253,21,-17,194,0
402264,15,-33,198,0
402275,33,-42,189,0
402286,50,-19,175,0
402297,48,-18,187,0
402308,53,-13,201,0
402319,66,-6,219,0
402330,67,-5,229,0
402341,58,-20,212,0
402352,46,-10,226,0
402363,28,-17,216,0
402374,31,-32,212,0
402385,47,-43,213,0
402396,92,-22,223,0
402407,99,-20,226,0
402418,95,-12,236,0
402430,76,-17,241,0
402441,66,-26,250,0
402452,35,-28,246,0
402463,23,-46,238,0
402474,40,-41,237,0
402485,55,-34,247,0
402496,76,-34,254,0
402507,87,-43,251,0
402518,98,-41,255,0
402530,72,-44,263,0
402541,49,-38,258,0
402552,4,-25,267,0
402563,-25,-49,256,0
402574,3,-46,258,0
402585,27,-50,276,0
402596,58,-49,277,0
402607,67,-50,278,0
402618,68,-39,253,0
402629,47,-37,259,0
402640,19,-35,244,0
402651,5,-41,238,0
402662,-4,-48,231,0
402673,-15,-40,231,0
402684,-41,-25,230,0
402695,-3,-32,234,0
402706,8,-32,241,0
402717,18,-39,244,0
402728,18,-43,246,0
402739,12,-47,246,0
402750,5,-55,240,0
402761,3,-56,240,0
402772,2,-52,249,0
402783,-10,-42,258,0
402794,-18,-39,266,0
402805,-24,-47,270,0
402816,-30,-51,274,0
402827,-35,-61,262,0
402838,-17,-72,259,0
402849,-1,-73,269,0
402860,0,-70,271,0
402871,-7,-64,289,0
402882,-18,-56,303,0
402893,-32,-49,307,0
402904,-47,-44,306,0
402915,-53,-51,306,0
402926,-43,-66,313,0
402937,-33,-73,326,0
402948,-34,-73,340,0
402959,-41,-74,347,0
402970,-43,-72,348,0
402981,-50,-74,359,0
402992,-58,-73,373,0
403003,-56,-71,377,0
403014,-60,-69,378,0
403025,-55,-78,376,0
403036,-51,-95,381,0
403047,-49,-93,379,0
403058,-55,-79,380,0
403069,-57,-75,371,0
403080,-48,-70,353,0
403091,-41,-68,339,0
403102,-32,-72,325,0
403113,-22,-70,310,0
403124,-22,-68,302,0
403135,-11,-66,297,0
403146,-11,-63,291,0
403157,-8,-62,285,0
403168,-6,-55,276,0
403179,-2,-51,275,0
403190,1,-49,276,0
403201,10,-41,267,0
403212,19,-37,257,0
403223,24,-34,256,0
403234,26,-36,258,0
403245,32,-39,259,0
403256,35,-30,265,0
403267,34,-30,263,0
403278,33,-25,263,0
403289,31,-28,261,0
403300,27,-24,257,0
403311,21,-26,253,0
403322,22,-25,248,0
403333,21,-24,242,0
403344,28,-23,233,0
403355,27,-18,231,0
403366,17,-12,218,0
403377,12,-11,215,0
403388,12,-12,208,0
403399,12,-10,206,0
403410,12,-10,208,0
403421,12,0,218,0
403432,15,-15,203,0
403443,21,-7,206,0
403454,24,-8,200,0
403465,26,-6,198,0
403476,26,-7,189,0
403487,24,-8,190,0
403498,23,-5,189,0
403509,23,0,185,0
403520,25,-3,182,0
403531,23,-11,176,0
403542,24,-13,174,0
403553,30,-13,179,0
403564,29,-3,184,0
403575,21,-8,182,0
403586,17,-4,183,0
403597,17,1,177,0
403608,14,1,173,0
403619,13,1,173,0
403630,10,4,177,0
403641,11,-1,172,0
403652,15,0,172,0
403663,16,3,175,0
403674,21,-2,171,0
403685,29,-4,163,0
403696,36,1,162,0
403707,34,0,165,0
403718,35,3,172,0
403729,46,10,180,0
403740,46,7,181,0
403751,46,1,178,0
403762,56,-1,170,0
403773,62,0,158,0
403784,59,-4,147,0
403795,60,1,140,0
403806,56,-5,142,0
403817,63,7,179,0
403828,68,-6,180,0
403839,64,14,167,0
403850,64,1,177,0
403861,65,11,178,0
403872,65,8,176,0
403883,67,13,188,0
403894,69,8,196,0
403905,66,15,209,0
403916,68,14,219,0
403927,67,11,221,0
403938,68,13,218,0
403949,69,13,210,0
403960,68,12,206,0
403971,65,12,205,0
403982,60,13,212,0
403993,55,11,214,0
404004,52,14,222,0
404015,47,14,229,0
404026,48,18,235,0
404037,48,16,238,0
404048,48,18,234,0
404059,47,22,232,0
404070,48,22,233,0
404081,48,23,236,0
404092,49,19,237,0
404103,47,17,231,0
404114,46,13,229,0
404125,50,14,227,0
404136,54,19,227,0
404147,59,18,229,0
404158,61,18,230,0
404169,62,16,230,0
404180,63,15,224,0
404191,60,15,229,0
404202,58,17,235,0
404213,59,15,237,0
404224,60,13,234,0
404235,60,14,233,0
404246,62,14,230,0
404257,63,14,228,0
404268,64,12,221,0
404279,68,14,219,0
404290,71,14,217,0
404301,71,14,216,0
404312,71,14,213,0
404323,69,14,211,0
404334,67,14,210,0
404345,65,13,206,0
404356,70,11,204,0
404367,72,7,201,0
404378,65,2,198,0
404389,61,9,196,0
404400,53,15,195,0
404411,50,11,191,0
404422,54,6,188,0
404433,53,3,191,0
404444,52,10,175,0
404455,59,11,155,0
404466,53,18,144,0
404477,46,9,144,0
404488,47,2,133,0
404499,42,8,114,0
404510,39,11,112,0
404521,34,12,122,0
404532,27,5,115,0
404543,27,5,111,0
404554,29,3,118,0
404565,31,7,123,0
404576,22,1,131,0
404587,12,-1,127,0
404598,12,-1,124,0
404609,9,-11,119,0
404620,12,-9,129,0
404631,17,-9,156,0
404642,32,-3,175,0
404653,42,-6,202,0
404664,47,-22,210,0
404675,47,-12,204,0
404686,34,-11,191,0
404697,20,-20,178,0
404708,20,-7,200,0
404720,20,-3,204,0
404731,13,-21,198,0
404742,26,-27,217,0
404753,26,-40,214,0
404764,40,-55,226,0
404775,72,-38,247,0
404786,87,-31,212,0
404797,86,-24,197,0
404808,74,-13,206,0
404819,66,-18,220,0
404830,68,-41,232,0
404841,45,-63,238,0
404852,48,-59,235,0
404863,27,-49,244,0
404874,19,-51,267,0
404885,19,-50,272,0
404896,32,-53,259,0
404907,35,-40,257,0
404918,45,-40,258,0
404929,60,-63,257,0
404940,57,-65,265,0
404951,57,-69,264,0
404962,35,-75,249,0
404973,-13,-68,233,0
404984,-16,-70,237,0
404995,39,-43,277,0
405006,34,-45,269,0
405017,28,-46,263,0
405028,8,-53,265,0
405039,-28,-42,273,0
405050,-31,-49,282,0
405061,-16,-58,294,0
405072,-27,-60,295,0
405083,-7,-71,296,0
405094,5,-62,296,0
405105,-1,-56,297,0
405116,-13,-57,312,0
405127,-23,-52,313,0
405138,-36,-50,321,0
405149,-55,-49,328,0
405160,-50,-60,336,0
405171,-29,-82,373,0
405182,-23,-90,399,0
405193,-24,-86,408,0
405204,-40,-83,408,0
405215,-50,-83,420,0
405226,-63,-81,423,0
405237,-67,-81,435,0
405248,-68,-83,436,0
405259,-66,-86,429,0
405270,-61,-96,417,0
405281,-56,-102,404,0
405292,-52,-98,390,0
405303,-46,-86,378,0
405314,-46,-78,372,0
405325,-41,-77,364,0
405336,-27,-74,343,0
405347,-18,-72,328,0
405358,-2,-73,310,0
405369,3,-78,296,0
405380,17,-82,277,0
405391,21,-71,270,0
405402,19,-63,270,0
405414,19,-58,273,0
405424,18,-50,274,0
405435,16,-47,270,0
405446,19,-41,276,0
405457,23,-39,269,0
405468,25,-28,270,0
405479,26,-34,271,0
405490,31,-40,258,0
405501,45,-28,256,0
405512,44,-24,254,0
405523,43,-21,250,0
405534,39,-15,253,0
405545,33,-19,246,0
405556,26,-14,237,0
405567,25,-16,228,0
405578,27,-21,226,0
405589,29,-18,227,0
405600,33,-17,227,0
405611,38,-15,218,0
405622,41,-13,215,0
405633,41,-11,208,0
405644,41,-11,202,0
405655,40,-7,195,0
405666,34,-3,183,0
405677,34,-1,183,0
405688,36,-1,179,0
405699,31,2,179,0
405710,35,2,179,0
405721,38,-1,172,0
405732,38,3,166,0
405743,36,-11,164,0
405755,41,-2,175,0
405766,45,8,170,0
405777,37,9,171,0
405788,31,7,163,0
405799,35,2,158,0
405810,41,3,164,0
405821,41,2,157,0
405832,39,1,143,0
405843,38,-1,137,0
405854,47,-4,129,0
405865,47,-1,128,0
405876,43,0,132,0
405887,41,1,130,0
405898,38,2,130,0
405909,43,2,135,0
405920,47,0,138,0
405931,57,-3,133,0
405942,65,-3,132,0
405953,76,-5,127,0
405964,80,-1,124,0
405975,88,5,125,0
405986,93,13,127,0
405997,98,-2,134,0
406008,111,9,196,0
406019,123,-22,181,0
406030,124,3,172,0
406041,122,12,198,0
406052,107,13,205,0
406063,87,9,207,0
406074,75,11,210,0
406085,70,22,223,0
406096,69,25,234,0
406107,70,20,239,0
406118,74,16,248,0
406129,62,30,253,0
406140,51,23,245,0
406151,50,19,241,0
406162,55,16,237,0
406173,56,15,232,0
406184,58,15,227,0
406195,62,15,226,0
406206,63,16,222,0
406217,58,11,217,0
406228,54,13,212,0
406239,52,18,211,0
406250,56,18,212,0
406261,59,18,211,0
406272,63,18,213,0
406283,66,18,212,0
406294,69,19,209,0
406305,70,16,206,0
406316,67,16,204,0
406327,64,13,202,0
406338,67,9,198,0
406349,73,6,194,0
406360,80,6,190,0
406371,81,5,179,0
406382,76,3,173,0
406393,69,4,172,0
406404,67,13,176,0
406415,64,5,174,0
406426,66,13,174,0
406437,62,19,172,0
406448,57,6,171,0
406459,62,-2,162,0
406470,50,13,133,0
406481,57,10,124,0
406492,61,16,115,0
406503,58,21,100,0
406514,49,14,93,0
406525,49,5,88,0
406536,48,12,92,0
406547,35,9,84,0
406558,22,1,86,0
406569,20,-16,98,0
406580,30,4,125,0
406591,19,12,144,0
406602,17,-2,144,0
406613,27,-3,140,0
406624,42,-10,151,0
406635,53,-20,162,0
406646,54,-24,179,0
406657,57,-23,187,0
406668,72,-42,173,0
406679,67,-22,186,0
406690,64,-6,200,0
406701,66,0,201,0
406712,56,-2,203,0
406723,43,2,240,0
406734,16,-12,229,0
406745,18,-46,227,0
406756,39,-53,235,0
406767,55,-60,242,0
406778,61,-50,255,0
406789,67,-41,248,0
406800,77,-36,212,0
406811,80,-41,196,0
406822,49,-30,186,0
406833,24,-41,207,0
406844,36,-52,236,0
406855,35,-62,294,0
406866,48,-37,328,0
406877,71,-23,314,0
406888,81,-37,303,0
406899,68,-48,271,0
406910,22,-57,197,0
406921,4,-67,159,0
406932,-22,-55,163,0
406943,-13,-53,192,0
406954,14,-27,247,0
406965,-7,-24,331,0
406976,-31,-37,333,0
406987,-33,-38,334,0
406998,-64,-43,319,0
407009,-81,-49,280,0
407020,-44,-50,269,0
407031,-39,-33,276,0
407042,-67,-32,271,0
407053,-51,-43,293,0
407064,-40,-50,315,0
407075,-32,-61,333,0
407086,-35,-64,361,0
407097,-49,-69,358,0
407108,-56,-72,374,0
407119,-62,-77,394,0
407130,-64,-80,420,0
407141,-66,-79,442,0
407152,-70,-77,458,0
407163,-70,-78,480,0
407174,-70,-80,498,0
407185,-71,-89,490,0
407196,-74,-97,487,0
407207,-71,-97,484,0
407218,-67,-88,464,0
407229,-68,-83,448,0
407240,-66,-77,436,0
407251,-63,-68,410,0
407262,-60,-65,385,0
407273,-55,-67,362,0
407285,-29,-61,330,0
407296,-19,-55,321,0
407307,-10,-45,309,0
407318,-3,-42,294,0
407329,2,-53,285,0
407340,8,-61,283,0
407351,18,-64,276,0
407362,27,-60,262,0
407373,34,-51,254,0
407384,40,-43,252,0
407395,44,-26,258,0
407406,44,-19,267,0
407417,38,-6,281,0
407428,36,-6,281,0
407439,30,-13,280,0
407450,34,-16,263,0
407461,33,-23,251,0
407472,42,-21,250,0
407483,40,-11,244,0
407494,37,-7,247,0
407505,41,-12,232,0
407516,39,-13,221,0
407527,37,-11,211,0
407538,35,-9,213,0
407550,37,-13,208,0
407561,38,-16,199,0
407572,37,-14,195,0
407583,29,-12,193,0
407594,16,-1,177,0
407605,9,-2,177,0
407616,15,0,172,0
407627,21,-1,164,0
407638,18,0,159,0
407649,19,-1,158,0
407660,19,-2,132,0
407671,17,8,156,0
407682,14,2,135,0
407693,13,-4,123,0
407704,10,6,138,0
407715,13,8,150,0
407726,13,6,147,0
407737,16,6,141,0
407748,23,1,133,0
407759,36,-2,133,0
407770,41,-1,138,0
407781,43,0,130,0
407792,36,1,117,0
407803,35,0,114,0
407814,41,1,120,0
407825,48,10,120,0
407836,58,6,114,0
407847,65,9,116,0
407858,73,3,117,0
407869,74,4,114,0
407880,85,6,110,0
407891,93,8,110,0
407902,100,14,133,0
407913,112,-17,161,0
407924,121,9,149,0
407935,120,7,166,0
407946,112,7,180,0
407957,102,11,193,0
407968,93,14,206,0
407979,85,17,225,0
407990,86,18,237,0
408001,87,21,246,0
408012,81,17,251,0
408023,71,19,252,0
408034,60,19,251,0
408045,51,14,250,0
408056,42,-2,255,0
408067,48,6,251,0
408078,52,9,240,0
408089,52,26,230,0
408100,53,25,234,0
408111,55,24,233,0
408122,54,26,227,0
408133,52,30,223,0
408144,48,27,215,0
408155,49,27,206,0
408166,52,26,200,0
408177,58,25,203,0
408188,63,27,213,0
408199,62,26,222,0
408210,61,25,229,0
408221,62,26,236,0
408232,61,30,241,0
408243,59,31,239,0
408254,54,25,226,0
408265,52,23,224,0
408276,52,23,226,0
408287,52,27,228,0
408298,49,27,229,0
408309,48,28,229,0
408320,46,29,232,0
408331,43,25,230,0
408342,43,21,224,0
408353,45,25,219,0
408364,51,24,215,0
408375,54,17,214,0
408386,54,12,215,0
408397,53,13,218,0
408408,54,11,216,0
408419,57,10,209,0
408430,61,10,204,0
408441,68,14,200,0
408452,72,18,198,0
408463,75,18,196,0
408474,74,17,193,0
408485,74,23,186,0
408496,75,25,178,0
408507,68,21,166,0
408518,64,12,158,0
408529,57,10,149,0
408540,49,11,144,0
408551,48,14,146,0
408562,52,15,143,0
408573,55,-1,148,0
408584,77,-7,137,0
408595,88,9,112,0
408606,98,16,97,0
408617,85,13,87,0
408628,72,11,73,0
408639,63,21,77,0
408650,53,12,79,0
408661,49,10,87,0
408672,45,-6,96,0
408683,46,-5,110,0
408694,48,-11,126,0
408705,54,-14,144,0
408716,54,4,178,0
408727,43,4,154,0
408738,34,-7,156,0
408749,35,-10,170,0
408760,49,-18,186,0
408771,59,-25,202,0
408782,69,-21,230,0
408793,79,-10,240,0
408804,78,-2,229,0
408815,70,-16,201,0
408826,48,-12,198,0
408837,20,-12,202,0
408848,10,-27,209,0
408859,19,-41,223,0
408870,38,-56,239,0
408881,69,-73,247,0
408892,103,-58,252,0
408903,94,-39,258,0
408914,68,-34,262,0
408925,51,-39,260,0
408936,37,-51,246,0
408947,18,-43,255,0
408958,15,-53,262,0
408969,47,-59,259,0
408980,65,-63,252,0
408991,83,-71,248,0
409002,97,-89,236,0
409013,97,-102,217,0
409024,43,-26,230,0
409035,-13,-23,258,0
409046,3,-45,265,0
409057,-12,-49,247,0
409068,40,-44,239,0
409079,43,-43,236,0
409090,43,-57,244,0
409101,24,-62,242,0
409112,-4,-48,257,0
409123,-31,-13,280,0
409134,-48,-23,286,0
409145,-61,-35,284,0
409156,-60,-31,290,0
409167,-36,-37,298,0
409178,-22,-50,295,0
409189,-12,-65,299,0
409200,-8,-73,317,0
409211,-25,-63,329,0
409222,-56,-62,335,0
409233,-81,-64,386,0
409244,-78,-78,422,0
409255,-72,-76,448,0
409266,-71,-71,463,0
409277,-73,-78,473,0
409288,-70,-97,479,0
409299,-63,-98,486,0
409310,-68,-86,489,0
409321,-76,-85,480,0
409332,-76,-81,470,0
409343,-72,-80,456,0
409354,-60,-82,436,0
409366,-53,-77,413,0
409377,-56,-69,391,0
409388,-50,-66,350,0
409399,-41,-67,335,0
409410,-22,-67,321,0
409421,-8,-63,310,0
409432,3,-60,298,0
409443,12,-61,283,0
409454,17,-58,275,0
409465,27,-50,271,0
409476,24,-46,268,0
409487,24,-47,270,0
409498,27,-50,270,0
409509,35,-46,265,0
409520,37,-37,257,0
409531,41,-35,254,0
409542,53,-32,255,0
409553,47,-28,249,0
409564,48,-17,259,0
409575,45,-19,257,0
409586,41,-24,255,0
409597,39,-16,255,0
409608,31,-29,259,0
409619,36,-20,254,0
409630,43,-20,248,0
409641,50,-18,244,0
409652,46,-12,237,0
409663,41,-8,224,0
409674,41,-14,217,0
409685,42,-13,213,0
409696,41,-14,205,0
409707,37,-12,202,0
409718,36,-11,190,0
409729,33,-13,180,0
409740,27,-7,180,0
409751,24,-5,176,0
409762,19,0,165,0
409773,15,1,156,0
409784,17,-1,145,0
409795,18,-1,139,0
409806,9,15,166,0
409817,8,-1,140,0
409828,10,1,132,0
409839,12,0,133,0
409850,14,2,127,0
409861,11,3,127,0
409872,18,3,117,0
409883,23,9,118,0
409894,24,7,116,0
409905,36,4,117,0
409916,47,2,118,0
409927,52,3,122,0
409938,51,-1,126,0
409949,58,4,127,0
409960,63,11,134,0
409971,64,10,133,0
409982,65,17,124,0
409993,67,-9,131,0
410004,75,-14,181,0
410015,75,-6,137,0
410026,89,5,141,0
410037,76,2,145,0
410048,67,4,161,0
410059,60,4,173,0
410070,52,4,187,0
410081,47,7,202,0
410092,40,11,217,0
410103,41,12,229,0
410114,46,18,242,0
410125,49,18,249,0
410136,46,12,247,0
410147,47,12,242,0
410158,50,18,236,0
410169,53,19,231,0
410180,53,21,225,0
410191,53,20,219,0
410202,54,21,212,0
410213,51,6,212,0
410224,46,6,215,0
410235,45,10,214,0
410246,43,12,212,0
410257,44,14,210,0
410268,49,14,208,0
410279,55,15,208,0
410290,63,16,207,0
410301,68,15,202,0
410312,71,12,198,0
410323,73,6,197,0
410334,82,7,196,0
410345,86,10,194,0
410356,84,6,183,0
410367,80,13,176,0
410378,51,-3,183,0
410389,35,-7,187,0
410400,31,4,173,0
410411,34,15,165,0
410422,42,16,166,0
410433,46,0,160,0
410444,59,-1,134,0
410455,72,17,101,0
410466,61,18,72,0
410477,56,12,68,0
410488,56,14,75,0
410499,33,13,84,0
410510,18,7,100,0
410521,18,-1,116,0
410532,25,-5,117,0
410543,48,-18,140,0
410554,47,-26,152,0
410565,48,-21,156,0
410576,49,-1,154,0
410587,46,1,149,0
410598,44,13,147,0
410609,30,17,148,0
410620,26,-5,166,0
410631,35,-6,204,0
410642,48,-20,207,0
410653,41,-24,207,0
410664,40,-17,222,0
410675,38,0,238,0
410686,31,11,247,0
410697,18,-18,222,0
410708,42,-32,229,0
410719,64,-49,210,0
410730,53,-44,196,0
410741,48,-38,184,0
410752,62,-10,198,0
410763,57,-8,227,0
410774,57,-14,241,0
410785,47,-39,239,0
410796,55,-56,249,0
410807,66,-76,246,0
410818,83,-77,259,0
410829,121,-88,273,0
410840,121,-63,290,0
410851,78,-32,306,0
410862,-5,-31,279,0
410873,-44,-68,253,0
410884,-26,-89,238,0
410895,30,-94,224,0
410906,73,-84,227,0
410917,71,-56,243,0
410928,19,-14,281,0
410939,-22,-11,327,0
410950,-80,-12,332,0
410961,-117,-43,311,0
410972,-98,-72,295,0
410983,-51,-89,272,0
410994,-17,-87,258,0
411005,-11,-83,250,0
411016,-22,-51,273,0
411027,-72,-26,296,0
411038,-73,-58,339,0
411049,-79,-57,349,0
411060,-61,-79,371,0
411071,-39,-99,391,0
411082,-46,-99,413,0
411093,-66,-89,423,0
411104,-78,-86,427,0
411115,-72,-90,446,0
411126,-63,-94,470,0
411137,-51,-100,502,0
411148,-43,-96,506,0
411160,-48,-100,493,0
411171,-47,-110,491,0
411182,-48,-100,452,0
411193,-52,-91,434,0
411204,-59,-75,407,0
411215,-52,-69,374,0
411226,-35,-65,344,0
411237,-12,-65,323,0
411248,5,-62,313,0
411259,21,-60,301,0
411270,35,-56,299,0
411281,40,-59,293,0
411292,45,-56,289,0
411303,51,-53,286,0
411314,52,-48,274,0
411325,52,-17,278,0
411336,55,-52,256,0
411347,57,-33,260,0
411358,57,-23,261,0
411369,52,-24,262,0
411380,49,-31,262,0
411391,50,-36,268,0
411402,51,-30,267,0
411413,44,-16,261,0
411424,45,-13,254,0
411435,41,-9,252,0
411446,34,-9,239,0
411457,28,-14,224,0
411468,26,-20,216,0
411479,24,-17,212,0
411490,21,-18,209,0
411501,18,-15,211,0
411512,28,-8,204,0
411523,29,-11,195,0
411534,32,-10,188,0
411545,29,-12,174,0
411556,26,-7,176,0
411567,18,-10,167,0
411578,12,-8,164,0
411589,12,-6,164,0
411600,15,-5,165,0
411611,12,4,162,0
411622,14,5,173,0
411633,14,1,151,0
411644,9,1,138,0
411655,12,1,134,0
411666,9,0,126,0
411677,8,7,132,0
411688,8,-1,122,0
411699,14,-2,113,0
411710,12,1,115,0
411721,13,-1,115,0
411732,22,4,127,0
411743,29,6,126,0
411754,28,8,127,0
411765,34,0,129,0
411776,49,0,132,0
411787,59,-3,128,0
411798,65,-1,126,0
411809,72,3,127,0
411820,70,-1,123,0
411831,72,0,120,0
411842,82,-1,141,0
411853,83,7,155,0
411864,78,3,158,0
411875,80,5,162,0
411886,74,10,169,0
411897,73,6,177,0
411908,69,6,190,0
411920,69,6,199,0
411931,66,9,212,0
411942,64,10,225,0
411953,63,15,230,0
411964,63,16,235,0
411975,65,16,240,0
411986,67,13,243,0
411997,64,3,237,0
412008,62,-1,229,0
412019,64,-1,224,0
412030,69,-1,221,0
412041,75,2,220,0
412052,80,7,221,0
412063,79,12,212,0
412074,78,10,203,0
412085,73,8,197,0
412096,72,8,193,0
412107,72,5,193,0
412118,76,1,190,0
412129,84,0,194,0
412140,88,-5,197,0
412151,91,-11,196,0
412162,93,-19,190,0
412173,92,-5,178,0
412184,87,0,169,0
412195,82,1,167,0
412206,78,1,166,0
412217,68,5,164,0
412228,62,11,153,0
412239,54,8,153,0
412250,54,3,154,0
412261,59,8,150,0
412272,62,12,144,0
412283,61,11,142,0
412294,55,13,122,0
412305,49,7,106,0
412316,45,-4,108,0
412327,45,-31,119,0
412338,41,-25,124,0
412349,47,-8,137,0
412360,49,0,164,0
412371,53,0,159,0
412382,51,1,140,0
412393,42,-7,129,0
412404,29,-14,117,0
412415,8,-17,104,0
412426,4,-18,114,0
412437,12,-15,143,0
412448,19,-27,159,0
412459,34,-26,179,0
412470,47,-20,189,0
412481,65,-4,197,0
412492,90,9,211,0
412503,73,22,206,0
412514,48,11,228,0
412525,42,-28,222,0
412536,53,-50,219,0
412547,44,-66,206,0
412558,51,-73,201,0
412569,84,-83,212,0
412580,120,-59,214,0
412591,115,-27,217,0
412602,127,-16,248,0
412613,119,-19,269,0
412624,104,-48,277,0
412635,114,-76,266,0
412646,99,-98,241,0
412657,86,-111,219,0
412668,92,-76,222,0
412679,88,-47,244,0
412690,76,-27,261,0
412701,42,-2,267,0
412712,-19,-5,295,0
412723,-50,-52,293,0
412735,-31,-70,299,0
412746,-35,-68,295,0
412757,-3,-83,293,0
412768,27,-82,278,0
412779,25,-55,271,0
412790,-3,-39,270,0
412801,-60,-40,283,0
412812,-56,-55,304,0
412823,-31,-68,333,0
412834,-14,-91,368,0
412845,0,-111,416,0
412856,10,-110,461,0
412867,-21,-100,481,0
412878,-45,-105,505,0
412889,-36,-114,511,0
412900,-24,-120,511,0
412911,-25,-121,511,0
412922,-22,-118,511,0
412933,-22,-109,511,0
412944,-29,-109,511,0
412955,-31,-108,495,0
412966,-18,-106,447,0
412977,-22,-92,424,0
412988,-19,-83,399,0
412999,-15,-74,376,0
413010,-9,-68,350,0
413021,5,-66,327,0
413032,19,-61,307,0
413043,31,-54,290,0
413054,43,-45,278,0
413065,54,-41,267,0
413076,55,-45,258,0
413087,64,-61,255,0
413098,70,-55,253,0
413109,70,-44,258,0
413120,75,-33,259,0
413131,78,-27,266,0
413142,78,-29,259,0
413153,83,-22,256,0
413164,82,-24,253,0
413175,75,-18,247,0
413186,64,-22,238,0
413197,58,-17,235,0
413208,50,-29,236,0
413219,50,-25,232,0
413230,48,-27,224,0
413241,40,-24,219,0
413252,42,-26,212,0
413263,46,-24,201,0
413274,45,-21,196,0
413285,50,-18,188,0
413296,41,-13,163,0
413307,38,-12,158,0
413318,38,-10,153,0
413329,33,-3,150,0
413340,30,-3,140,0
413351,34,-7,134,0
413362,38,-10,130,0
413373,44,-12,123,0
413384,48,-3,115,0
413395,45,-1,129,0
413406,42,-10,105,0
413417,42,-6,119,0
413428,42,1,126,0
413439,41,4,126,0
413450,46,1,117,0
413461,58,-5,108,0
413472,56,0,110,0
413483,55,-1,119,0
413494,58,-1,115,0
413505,58,3,117,0
413516,57,4,125,0
413527,55,1,126,0
413538,59,-3,133,0
413549,60,-1,139,0
413560,67,-1,141,0
413571,76,-5,144,0
413582,84,-6,147,0
413593,88,6,143,0
413604,91,-5,136,0
413615,105,-14,207,0
413626,102,-2,173,0
413637,94,1,187,0
413648,78,0,190,0
413659,67,4,196,0
413670,64,9,209,0
413681,62,15,218,0
413692,66,19,226,0
413703,72,17,228,0
413714,81,12,227,0
413725,85,5,219,0
413736,80,2,213,0
413747,74,-5,201,0
413758,71,-6,189,0
413769,68,-2,184,0
413780,73,2,183,0
413791,83,1,185,0
413802,89,3,191,0
413813,85,0,191,0
413824,73,-7,187,0
413835,69,-6,184,0
413846,62,-6,184,0
413857,47,-6,191,0
413868,43,-6,194,0
413879,56,1,167,0
413890,63,25,148,0
413901,66,24,125,0
413912,64,21,90,0
413923,56,21,78,0
413934,41,19,71,0
413945,33,29,70,0
413956,22,26,85,0
413967,23,10,97,0
413978,33,0,94,0
413989,27,-8,89,0
414000,33,-24,94,0
414011,39,-31,110,0
414022,43,-31,115,0
414033,42,-20,101,0
414044,29,-13,93,0
414055,14,-18,83,0
414066,21,-7,100,0
414077,20,11,110,0
414088,8,12,140,0
414099,6,1,193,0
414110,38,-21,222,0
414121,50,-19,209,0
414132,22,-47,170,0
414143,13,-52,168,0
414154,34,-50,205,0
414165,53,-35,238,0
414176,63,-25,246,0
414187,82,-23,247,0
414198,99,-32,225,0
414209,101,-33,226,0
414220,95,-36,249,0
414231,96,-43,255,0
414242,104,-55,273,0
414253,121,-66,284,0
414265,101,-134,286,0
414276,153,-120,287,0
414287,146,-57,273,0
414298,105,7,289,0
414309,71,-17,318,0
414320,18,-41,315,0
414331,-28,-62,315,0
414342,-35,-95,333,0
414353,-52,-104,301,0
414364,-60,-74,278,0
414375,-16,-53,304,0
414386,-11,-14,312,0
414397,-67,5,317,0
414408,-74,-6,344,0
414419,-78,-27,359,0
414430,-66,-73,379,0
414441,-49,-88,401,0
414452,-49,-88,412,0
414463,-53,-87,436,0
414474,-54,-88,479,0
414485,-58,-76,496,0
414496,-48,-71,509,0
414507,-38,-76,511,0
414518,-46,-92,511,0
414529,-44,-99,511,0
414540,-43,-96,511,0
414552,-53,-95,508,0
414563,-56,-93,492,0
414574,-58,-81,457,0
414585,-41,-69,401,0
414596,-27,-65,377,0
414607,-14,-68,354,0
414618,-5,-66,332,0
414629,4,-61,319,0
414640,18,-48,316,0
414651,23,-45,304,0
414662,23,-31,291,0
414673,33,-53,275,0
414684,49,-45,265,0
414695,52,-40,260,0
414706,55,-36,265,0
414717,62,-30,267,0
414728,66,-33,267,0
414739,66,-19,273,0
414750,76,-22,268,0
414761,77,-21,265,0
414772,69,-16,253,0
414783,67,-16,249,0
414794,66,-9,246,0
414805,62,9,255,0
414816,56,-18,237,0
414827,50,-14,232,0
414838,45,-19,215,0
414849,46,-23,208,0
414860,50,-25,203,0
414871,51,-25,191,0
414882,51,-24,183,0
414893,47,-22,172,0
414904,43,-20,159,0
414915,37,-8,141,0
414926,36,-3,140,0
414937,29,-2,133,0
414948,26,-1,129,0
414959,21,-4,123,0
414970,24,-6,128,0
414981,21,-8,124,0
414992,19,-10,133,0
415003,19,-6,125,0
415014,18,-7,127,0
415025,27,-15,108,0
415036,26,-6,114,0
415047,32,-6,107,0
415058,38,-5,104,0
415069,43,-7,99,0
415080,61,1,108,0
415091,70,-6,105,0
415102,70,-11,101,0
415113,76,-10,108,0
415124,81,-16,105,0
415135,86,-11,103,0
415146,95,-11,107,0
415157,93,-13,105,0
415168,94,-6,112,0
415179,103,-7,114,0
415190,109,-9,115,0
415201,115,-2,123,0
415212,119,-5,129,0
415223,119,-9,133,0
415234,118,-12,134,0
415245,110,-16,136,0
415256,102,-9,127,0
415267,97,0,125,0
415278,84,-12,126,0
415289,81,-22,116,0
415300,68,-16,94,0
415311,63,-9,86,0
415322,58,6,82,0
415333,59,16,87,0
415344,58,18,98,0
415355,39,10,106,0
415366,31,1,105,0
415377,31,7,106,0
415388,29,3,101,0
415399,32,3,107,0
415410,49,-24,104,0
415421,53,-10,90,0
415432,39,-17,76,0
415443,47,-11,102,0
415454,58,-9,125,0
415465,54,-7,157,0
415476,32,-22,182,0
415487,31,-32,184,0
415498,34,3,172,0
415509,22,-29,166,0
415520,19,-36,182,0
415531,8,-19,161,0
415542,3,-25,147,0
415553,-4,-22,173,0
415564,30,0,256,0
415575,40,-48,228,0
415586,37,-67,210,0
415597,42,-65,199,0
415608,60,-39,211,0
415619,48,-25,217,0
415630,52,-26,228,0
415641,61,-24,251,0
415652,71,-55,269,0
415663,90,-97,272,0
415674,81,-101,236,0
415685,53,-111,221,0
415696,51,-102,225,0
415707,49,-68,259,0
415718,9,2,299,0
415729,-26,18,334,0
415740,-63,-28,302,0
415751,-86,-62,301,0
415762,-76,-81,308,0
415773,-76,-98,305,0
415784,-83,-68,331,0
415795,-76,-36,395,0
415806,-86,-2,456,0
415817,-121,1,489,0
415828,-145,-41,509,0
415839,-139,-78,511,0
415850,-116,-81,511,0
415861,-113,-86,511,0
415872,-121,-93,511,0
415883,-117,-100,511,0
415894,-110,-102,511,0
415906,-87,-90,511,0
415917,-72,-95,511,0
415928,-65,-92,511,0
415939,-71,-89,502,0
415950,-64,-97,474,0
415961,-60,-82,444,0
415972,-59,-70,411,0
415983,-49,-63,365,0
415994,-24,-48,331,0
416005,-14,-38,309,0
416016,2,-36,300,0
416027,13,-40,284,0
416038,20,-34,286,0
416049,31,-33,285,0
416060,53,-28,258,0
416071,62,-26,257,0
416082,66,-14,254,0
416093,72,-22,250,0
416104,74,-20,245,0
416115,68,-22,240,0
416126,56,-25,242,0
416137,46,-21,241,0
416148,39,-15,228,0
416159,36,-11,240,0
416170,29,-17,227,0
416181,33,-15,222,0
416192,32,-13,221,0
416203,34,-20,218,0
416214,37,-23,216,0
416225,31,-15,194,0
416236,26,-21,184,0
416247,25,-13,174,0
416258,28,-6,168,0
416269,29,-2,163,0
416280,33,-8,156,0
416291,43,-6,156,0
416302,46,-8,144,0
416313,40,-12,143,0
416324,38,-10,124,0
416335,26,-8,110,0
416346,18,-5,95,0
416357,16,5,95,0
416368,15,-4,70,0
416379,19,-3,70,0
416390,34,-5,64,0
416401,44,2,71,0
416412,51,2,68,0
416423,55,1,62,0
416434,61,0,55,0
416445,69,-4,54,0
416456,75,-5,56,0
416467,86,-9,53,0
416478,100,-9,55,0
416489,108,-10,59,0
416500,118,-10,61,0
416511,124,-11,58,0
416522,126,-4,75,0
416533,122,-21,80,0
416544,123,-3,100,0
416555,111,-3,102,0
416566,86,0,112,0
416577,62,-2,99,0
416588,46,20,96,0
416599,39,18,93,0
416610,38,8,88,0
416621,32,6,90,0
416632,26,-1,83,0
416643,35,12,81,0
416654,38,16,92,0
416665,44,20,97,0
416676,38,18,94,0
416687,35,8,80,0
416698,47,22,77,0
416709,52,4,94,0
416720,60,2,91,0
416731,61,-6,100,0
416742,66,1,126,0
416753,58,12,133,0
416764,82,-7,165,0
416775,110,5,240,0
416786,91,7,269,0
416797,58,-4,262,0
416808,19,-18,225,0
416819,30,-37,172,0
416830,18,-54,164,0
416841,2,-55,179,0
416852,18,-59,186,0
416863,44,-44,193,0
416874,65,23,234,0
416885,56,17,220,0
416896,48,-1,211,0
416907,11,-54,206,0
416918,39,-86,205,0
416929,60,-99,207,0
416940,93,-95,203,0
416951,124,-75,217,0
416962,117,-2,240,0
416973,67,-2,242,0
416984,18,-24,245,0
416995,-56,-48,238,0
417006,-59,-71,245,0
417017,-18,-104,259,0
417028,32,-117,259,0
417039,0,-45,319,0
417050,-59,-22,387,0
417061,-121,-29,462,0
417072,-156,-55,510,0
417083,-160,-119,511,0
417094,-112,-159,511,0
417105,-78,-163,511,0
417116,-68,-162,511,0
417127,-72,-147,511,0
417138,-71,-131,511,0
417149,-63,-124,511,0
417160,-31,-129,511,0
417171,-18,-143,511,0
417182,-14,-143,511,0
417193,-17,-132,511,0
417204,-28,-106,501,0
417215,-36,-102,445,0
417226,-28,-96,399,0
417237,-23,-73,346,0
417248,-13,-66,309,0
417259,8,-59,278,0
417270,26,-51,259,0
417281,40,-55,251,0
417292,56,-54,236,0
417303,62,-51,224,0
417314,62,-49,238,0
417325,65,-46,234,0
417336,75,-27,229,0
417347,81,-21,236,0
417358,80,-21,228,0
417369,76,-36,206,0
417380,78,-36,203,0
417391,74,-25,209,0
417402,68,-29,212,0
417413,64,-28,209,0
417424,58,-25,204,0
417435,59,-24,205,0
417446,52,-20,197,0
417457,41,-17,192,0
417468,36,-22,185,0
417479,33,-22,179,0
417490,29,-21,169,0
417501,37,-24,164,0
417512,38,-29,157,0
417523,38,-11,164,0
417534,38,-7,148,0
417545,45,3,155,0
417556,44,4,133,0
417567,32,0,101,0
417578,27,5,93,0
417589,25,-2,74,0
417600,19,-1,64,0
417611,16,0,49,0
417622,25,-16,20,0
417633,33,-7,36,0
417644,46,-13,20,0
417655,61,-10,15,0
417666,74,-5,19,0
417677,84,3,26,0
417688,94,2,29,0
417699,116,-3,26,0
417710,122,-9,27,0
417721,124,-10,22,0
417732,126,-4,39,0
417743,133,-2,60,0
417754,136,2,79,0
417765,135,7,101,0
417776,159,-10,142,0
417787,185,-19,156,0
417798,190,-13,150,0
417809,174,-1,134,0
417820,141,-10,97,0
417831,95,-13,51,0
417842,67,6,35,0
417853,36,16,60,0
417864,-10,13,72,0
417875,-10,17,85,0
417886,11,25,122,0
417897,19,-7,149,0
417908,35,-21,126,0
417919,58,-22,62,0
417930,80,-22,16,0
417941,89,-28,3,0
417952,89,-18,36,0
417963,86,-25,83,0
417974,89,-30,127,0
417985,84,15,146,0
417996,74,2,153,0
418007,70,-11,159,0
418018,50,-15,159,0
418029,25,-41,183,0
418040,33,-44,220,0
418051,37,-42,241,0
418062,46,-4,279,0
418073,50,29,299,0
418084,22,11,269,0
418095,31,-5,234,0
418106,11,-32,191,0
418117,-15,-60,181,0
418128,11,-74,176,0
418139,39,-84,209,0
418150,91,-86,222,0
418161,150,-59,252,0
418172,182,-42,250,0
418183,157,-32,249,0
418194,66,-56,234,0
418205,56,-62,261,0
418216,15,-58,271,0
418227,-16,-48,278,0
418238,-26,-30,289,0
418249,-67,-8,312,0
418260,-64,-8,336,0
418271,-57,-34,343,0
418282,-47,-72,352,0
418293,-36,-79,372,0
418304,-57,-93,396,0
418315,-87,-101,412,0
418326,-115,-88,442,0
418337,-127,-70,493,0
418348,-122,-62,511,0
418359,-96,-74,511,0
418370,-72,-90,511,0
418381,-62,-101,511,0
418392,-59,-107,511,0
418403,-57,-110,511,0
418414,-63,-106,511,0
418425,-59,-99,511,0
418436,-56,-89,511,0
418447,-46,-94,482,0
418458,-38,-98,450,0
418469,-41,-90,425,0
418480,-52,-72,408,0
418491,-56,-60,375,0
418502,-53,-55,328,0
418513,-6,-38,281,0
418524,4,-33,265,0
418535,16,-26,254,0
418546,21,-56,252,0
418557,36,-40,260,0
418568,41,-28,262,0
418579,39,-18,265,0
418590,39,-26,259,0
418601,44,-30,245,0
418612,37,-25,246,0
418623,30,-24,234,0
418634,28,-21,228,0
418645,31,-25,219,0
418656,36,-15,221,0
418667,29,-26,218,0
418678,29,-21,222,0
418689,35,-14,235,0
418700,32,-23,241,0
418711,30,-25,234,0
418722,24,-33,205,0
418733,22,-38,183,0
418744,31,-34,172,0
418755,27,-24,159,0
418766,18,-8,141,0
418777,16,-6,131,0
418788,14,5,120,0
418799,14,2,130,0
418810,11,-1,112,0
418821,9,1,113,0
418832,11,-9,108,0
418843,18,-9,108,0
418854,22,-24,90,0
418865,34,-15,94,0
418876,43,-13,87,0
418887,46,-9,83,0
418898,53,-2,81,0
418909,55,0,76,0
418920,51,-1,66,0
418931,49,2,61,0
418942,55,0,48,0
418953,59,-2,38,0
418964,68,1,40,0
418975,78,-2,40,0
418986,93,-2,45,0
418997,105,3,60,0
419008,114,4,74,0
419019,142,-2,108,0
419030,162,-15,120,0
419041,174,-27,126,0
419052,174,-27,134,0
419063,161,-30,136,0
419074,141,-18,121,0
419085,109,-7,105,0
419096,83,-4,88,0
419107,64,0,78,0
419118,43,3,70,0
419129,21,0,64,0
419140,5,3,74,0
419151,4,8,94,0
419162,6,14,115,0
419173,1,5,117,0
419184,20,-11,67,0
419195,33,-5,66,0
419206,29,-5,59,0
419217,30,-1,53,0
419228,45,-10,70,0
419239,65,-8,123,0
419250,65,-15,180,0
419261,56,-41,201,0
419272,44,-46,153,0
419283,37,-28,109,0
419294,38,-26,128,0
419305,35,-38,163,0
419316,25,-32,186,0
419327,4,-7,207,0
419338,-7,-22,215,0
419349,14,5,269,0
419360,28,13,280,0
419371,8,-12,244,0
419382,16,-45,180,0
419393,38,-44,147,0
419404,32,-65,176,0
419416,73,-17,255,0
419427,98,-4,284,0
419438,86,-23,275,0
419449,59,-37,260,0
419460,32,-56,253,0
419471,46,-71,272,0
419482,50,-67,273,0
419493,33,-35,267,0
419504,39,-31,291,0
419515,10,-44,309,0
419526,-31,-59,298,0
419537,-58,-50,325,0
419548,-99,-69,344,0
419559,-72,-111,369,0
419570,-29,-102,419,0
419581,-46,-85,438,0
419592,-74,-77,484,0
419603,-110,-54,511,0
419614,-141,-55,511,0
419625,-141,-85,511,0
419636,-130,-97,511,0
419647,-115,-108,511,0
419658,-82,-121,511,0
419669,-58,-109,511,0
419680,-42,-100,511,0
419691,-29,-92,511,0
419702,-32,-89,511,0
419713,-30,-87,493,0
419724,-31,-79,447,0
419735,-20,-79,416,0
419747,-13,-67,389,0
419758,-10,-55,358,0
419769,-3,-48,337,0
419780,11,-37,318,0
419791,27,-38,292,0
419802,44,-41,291,0
419813,47,-27,250,0
419824,37,-19,260,0
419835,27,-23,259,0
419846,12,-17,227,0
419857,9,-8,212,0
419868,12,-10,213,0
419879,26,-1,214,0
419890,20,-10,211,0
419901,32,-14,208,0
419912,46,-15,211,0
419923,51,-11,220,0
419934,51,-2,231,0
419945,53,-6,229,0
419956,51,-3,223,0
419967,43,-2,216,0
419978,30,-17,200,0
419989,28,-16,185,0
420000,26,-21,179,0
420011,27,-20,172,0
420022,34,-19,163,0
420033,39,-19,151,0
420044,49,-19,135,0
420055,50,-19,123,0
420066,43,-3,104,0
420077,34,-10,96,0
420088,34,-4,99,0
420099,30,-1,110,0
420110,28,13,117,0
420121,28,7,115,0
420132,32,-2,106,0
420143,50,-6,91,0
420154,50,-3,77,0
420165,49,-2,70,0
420176,56,-1,63,0
420187,65,-2,59,0
420198,77,-3,60,0
420209,89,-9,50,0
420220,95,-4,38,0
420231,98,2,40,0
420242,101,9,42,0
420253,103,12,49,0
420264,107,10,59,0
420275,114,6,71,0
420286,125,3,80,0
420297,134,-1,87,0
420308,145,-16,109,0
420319,138,-27,105,0
420330,125,-19,91,0
420341,92,-8,82,0
420352,61,-4,88,0
420363,50,0,88,0
420374,37,10,76,0
420385,30,10,77,0
420396,37,11,98,0
420407,41,6,119,0
420418,41,-11,127,0
420429,43,-15,98,0
420440,49,-1,74,0
420451,45,0,74,0
420462,43,-1,66,0
420473,44,-2,75,0
420484,48,26,83,0
420495,49,17,109,0
420506,74,19,138,0
420517,73,10,136,0
420528,60,13,159,0
420539,40,14,190,0
420550,22,-19,194,0
420561,13,-48,171,0
420572,-5,-49,169,0
420583,12,-30,199,0
420594,49,-13,185,0
420605,87,18,249,0
420616,106,31,248,0
420627,87,19,221,0
420638,18,-23,207,0
420649,6,-37,237,0
420660,25,-38,262,0
420671,41,-42,267,0
420682,73,-30,298,0
420693,68,-42,289,0
420704,80,-61,272,0
420715,74,-74,257,0
420726,50,-85,253,0
420737,35,-81,261,0
420748,16,-52,272,0
420759,27,-56,312,0
420770,14,-42,340,0
420781,-17,-36,363,0
420792,-19,-47,401,0
420803,-95,-94,410,0
420814,-58,-118,467,0
420825,-28,-126,503,0
420837,-51,-133,511,0
420848,-67,-113,511,0
420859,-78,-88,511,0
420870,-48,-97,511,0
420881,-30,-132,511,0
420892,-25,-137,511,0
420903,-35,-134,511,0
420914,-36,-140,511,0
420925,-29,-141,511,0
420936,-21,-131,511,0
420947,-16,-111,498,0
420958,-4,-90,428,0
420969,13,-74,389,0
420980,20,-60,371,0
420991,31,-59,353,0
421002,40,-54,319,0
421013,41,-45,291,0
421024,35,-41,283,0
421035,44,-33,262,0
421046,58,-31,248,0
421057,73,-48,243,0
421068,81,-50,231,0
421079,88,-46,236,0
421090,80,-35,235,0
421101,67,-30,237,0
421112,66,-23,240,0
421123,64,-16,238,0
421134,58,-11,238,0
421145,52,-12,231,0
421156,45,-15,217,0
421167,42,-17,204,0
421178,38,-15,191,0
421189,34,-14,180,0
421200,37,-16,171,0
421211,31,-22,156,0
421222,38,-21,135,0
421233,38,-18,128,0
421244,34,2,126,0
421255,32,0,126,0
421266,39,7,137,0
421277,49,-13,112,0
421288,53,-9,112,0
421299,59,-7,112,0
421310,58,-18,80,0
421321,58,-9,73,0
421332,55,-6,71,0
421343,51,-7,64,0
421354,55,1,64,0
421365,55,1,50,0
421376,55,2,50,0
421387,57,6,57,0
421398,60,5,55,0
421409,66,7,56,0
421420,69,2,49,0
421431,72,-4,48,0
421442,82,-12,49,0
421453,89,-13,61,0
421464,98,-21,64,0
421475,112,-21,69,0
421486,127,-10,82,0
421497,137,-9,96,0
421508,134,-7,93,0
421519,123,-15,85,0
421530,114,-22,80,0
421541,112,-15,79,0
421552,104,-11,78,0
421563,94,-17,77,0
421574,85,-13,73,0
421585,71,-13,58,0
421596,54,0,48,0
421607,39,-3,62,0
421618,36,-1,66,0
421629,15,-10,63,0
421640,8,-32,55,0
421651,30,-20,51,0
421662,40,-1,61,0
421673,28,2,71,0
421684,24,-2,81,0
421695,32,2,107,0
421706,46,-10,114,0
421717,45,-7,142,0
421728,59,-24,155,0
421739,71,-15,173,0
421750,52,-27,156,0
421761,21,-58,159,0
421772,23,-47,195,0
421783,33,1,262,0
421794,22,12,247,0
421805,35,24,247,0
421816,35,4,251,0
421827,40,-46,240,0
421838,60,-81,247,0
421849,56,-96,265,0
421860,54,-91,276,0
421871,67,-74,292,0
421882,80,-56,281,0
421893,63,-20,258,0
421904,53,-21,248,0
421915,26,-38,226,0
421926,8,-73,214,0
421937,20,-110,239,0
421948,-18,-82,307,0
421959,-9,-72,380,0
421970,-34,-61,423,0
421981,-66,-60,452,0
421992,-77,-49,468,0
422003,-74,-60,509,0
422014,-114,-73,511,0
422025,-92,-99,511,0
422036,-58,-119,511,0
422047,-13,-145,511,0
422058,-59,-131,511,0
422069,-66,-125,511,0
422080,-99,-112,511,0
422091,-108,-116,511,0
422102,-87,-129,511,0
422113,-62,-110,511,0
422124,-55,-103,501,0
422135,-44,-93,460,0
422146,-36,-77,423,0
422157,-24,-76,380,0
422168,-9,-67,349,0
422179,4,-50,324,0
422190,10,-41,305,0
422201,27,-43,285,0
422212,45,-46,271,0
422223,49,-38,266,0
422234,45,-33,272,0
422245,48,-47,266,0
422256,57,-35,261,0
422267,60,-23,253,0
422278,76,-26,264,0
422289,68,-17,261,0
422300,58,-26,238,0
422311,54,-26,222,0
422322,59,-26,211,0
422333,50,-20,206,0
422344,45,-17,213,0
422355,47,-15,220,0
422366,48,-11,219,0
422377,47,-11,220,0
422388,44,-14,209,0
422399,40,-14,196,0
422410,28,-15,181,0
422421,23,-16,162,0
422432,26,-17,149,0
422443,29,-2,128,0
422454,30,-5,123,0
422465,37,2,112,0
422476,44,-1,105,0
422487,34,-2,99,0
422498,37,4,96,0
422509,32,-8,69,0
422520,30,-5,66,0
422531,34,-13,45,0
422542,36,-3,40,0
422553,42,-15,27,0
422564,50,-3,29,0
422575,56,0,27,0
422586,67,3,28,0
422597,75,8,30,0
422608,91,8,37,0
422619,99,2,38,0
422630,104,0,43,0
422641,107,-2,49,0
422652,114,-4,53,0
422663,116,-4,59,0
422674,116,-5,66,0
422685,119,-3,78,0
422696,117,0,89,0
422707,101,-13,94,0
422718,83,-24,97,0
422729,68,-24,98,0
422740,55,-18,94,0
422751,46,-3,98,0
422762,41,-10,91,0
422773,43,15,60,0
422784,45,13,63,0
422796,60,2,67,0
422806,69,9,70,0
422817,60,10,85,0
422828,51,3,87,0
422839,47,-6,75,0
422850,40,-13,64,0
422861,36,-10,57,0
422872,29,-16,58,0
422883,26,-18,85,0
422894,17,-27,113,0
422905,23,-25,151,0
422916,20,1,167,0
422927,7,-8,166,0
422938,-9,-38,178,0
422949,15,-24,211,0
422960,29,12,230,0
422971,36,6,235,0
422982,47,5,252,0
422993,60,16,238,0
423004,47,-15,202,0
423015,38,-45,186,0
423026,25,-75,187,0
423037,29,-58,247,0
423048,34,-57,258,0
423059,60,-77,280,0
423070,102,-79,288,0
423081,115,-101,288,0
423092,109,-103,262,0
423103,32,-79,245,0
423114,7,-45,279,0
423125,-35,-36,315,0
423136,-56,-57,324,0
423147,-50,-59,355,0
423158,-48,-70,402,0
423169,-92,-82,425,0
423180,-96,-88,457,0
423191,-86,-93,511,0
423202,-111,-97,511,0
423213,-116,-96,511,0
423224,-104,-100,511,0
423235,-105,-110,511,0
423246,-105,-125,511,0
423257,-106,-135,511,0
423268,-96,-140,511,0
423279,-98,-134,511,0
423290,-98,-141,511,0
423301,-82,-145,511,0
423312,-69,-136,501,0
423323,-64,-117,463,0
423334,-65,-99,421,0
423345,-68,-70,383,0
423356,-52,-63,339,0
423367,-23,-66,295,0
423378,-2,-56,268,0
423389,26,-53,249,0
423400,43,-50,238,0
423411,63,-54,244,0
423422,74,-59,256,0
423433,65,-48,249,0
423444,65,-48,224,0
423455,50,-42,220,0
423466,39,-29,220,0
423477,22,-26,211,0
423488,26,-19,202,0
423499,40,-16,204,0
423510,47,-13,214,0
423521,52,-16,214,0
423532,53,-14,224,0
423543,55,-17,222,0
423554,50,-22,215,0
423565,52,-31,200,0
423576,42,-34,181,0
423587,35,-34,152,0
423598,46,-32,135,0
423609,51,-22,120,0
423620,55,-10,123,0
423631,58,-4,107,0
423642,58,2,91,0
423653,58,-1,84,0
423664,62,0,68,0
423675,55,1,79,0
423686,49,-3,78,0
423697,48,-3,79,0
423708,50,-5,74,0
423719,45,-3,71,0
423730,52,-1,70,0
423741,54,-1,55,0
423752,54,2,56,0
423763,65,-2,50,0
423774,79,-6,49,0
423785,88,-5,51,0
423796,100,-7,57,0
423807,106,-13,47,0
423818,105,-11,41,0
423829,106,-11,38,0
423840,112,-6,37,0
423851,116,1,38,0
423862,115,4,44,0
423873,110,1,49,0
423884,99,-6,57,0
423895,86,-22,56,0
423906,76,-16,52,0
423917,58,-12,47,0
423928,32,-12,53,0
423939,42,-13,52,0
423950,53,-1,50,0
423961,56,4,60,0
423972,51,10,69,0
423983,37,5,71,0
423994,47,4,81,0
424005,64,6,86,0
424016,59,-1,96,0
424027,57,-7,99,0
424038,54,-2,105,0
424049,52,0,131,0
424060,32,1,143,0
424071,33,-2,136,0
424082,52,-4,168,0
424093,32,-15,206,0
424104,26,-40,180,0
424115,15,-52,150,0
424126,16,-56,118,0
424137,45,-37,168,0
424148,74,-21,181,0
424159,73,-9,193,0
424170,73,-10,205,0
424181,61,15,209,0
424192,27,-9,214,0
424203,18,-41,219,0
424214,13,-95,242,0
424225,47,-119,246,0
424236,88,-129,240,0
424247,152,-122,250,0
424258,85,-9,273,0
424269,7,-10,325,0
424280,-65,-60,345,0
424291,-98,-105,349,0
424302,-71,-120,380,0
424313,-39,-122,372,0
424324,-44,-116,395,0
424335,-59,-67,463,0
424346,-90,-41,511,0
424357,-135,-50,511,0
424368,-139,-89,511,0
424379,-122,-111,511,0
424390,-88,-149,511,0
424401,-54,-162,511,0
424412,-30,-152,511,0
424423,-24,-140,511,0
424434,-10,-134,511,0
424445,-4,-129,511,0
424456,1,-130,511,0
424467,7,-132,511,0
424478,3,-124,479,0
424489,-2,-103,443,0
424500,-5,-85,395,0
424511,-4,-68,366,0
424522,2,-71,334,0
424533,24,-73,304,0
424544,33,-63,269,0
424555,24,-50,262,0
424566,19,-43,263,0
424577,20,-46,252,0
424588,31,-46,249,0
424599,39,-53,254,0
424610,56,-49,252,0
424621,72,-40,249,0
424632,70,-37,251,0
424643,71,-37,247,0
424654,72,-35,243,0
424665,79,-32,249,0
424676,74,-19,249,0
424687,63,-36,223,0
424698,52,-33,211,0
424709,43,-23,215,0
424720,34,-15,203,0
424731,29,-13,198,0
424742,25,-11,183,0
424753,27,-22,154,0
424764,28,-20,150,0
424775,28,-25,123,0
424786,34,-14,120,0
424797,33,-5,111,0
424808,32,1,96,0
424819,32,3,94,0
424830,32,14,89,0
424841,25,5,71,0
424852,24,20,70,0
424863,22,7,41,0
424874,22,16,47,0
424885,25,5,29,0
424896,32,0,25,0
424907,44,-12,14,0
424918,68,-14,24,0
424929,87,-19,27,0
424940,99,-11,30,0
424951,110,-8,33,0
424962,125,-1,40,0
424973,136,2,44,0
424984,143,1,56,0
424995,151,-1,65,0
425006,150,-3,69,0
425017,140,1,74,0
425028,132,3,78,0
425039,122,6,90,0
425050,105,-14,99,0
425062,102,-17,111,0
425073,53,-3,97,0
425084,38,-7,101,0
425095,42,-5,95,0
425106,50,-3,96,0
425117,62,6,90,0
425128,60,18,70,0
425139,51,24,47,0
425150,40,10,30,0
425161,23,10,29,0
425172,16,5,32,0
425183,27,-7,43,0
425194,30,-7,65,0
425205,24,-27,86,0
425216,37,-29,114,0
425228,41,-24,135,0
425239,36,-20,156,0
425250,40,-12,180,0
425261,29,-2,189,0
425272,5,-16,178,0
425283,11,-17,181,0
425294,8,-25,171,0
425305,24,-67,149,0
425316,28,-52,186,0
425327,32,-29,200,0
425338,65,-14,192,0
425350,89,-6,172,0
425361,95,19,205,0
425372,34,-23,229,0
425383,-8,-74,236,0
425394,28,-118,278,0
425405,62,-114,289,0
425416,89,-84,276,0
425427,113,-36,274,0
425438,94,-22,259,0
425449,38,-24,260,0
425460,-16,-57,274,0
425471,-36,-100,279,0
425482,-28,-140,288,0
425493,-18,-98,302,0
425504,-47,-65,368,0
425515,-46,-67,463,0
425526,-74,-43,511,0
425537,-101,-82,511,0
425548,-81,-132,511,0
425559,-39,-153,511,0
425570,-22,-144,511,0
425581,-27,-132,511,0
425592,-45,-120,511,0
425603,-58,-100,511,0
425614,-52,-106,511,0
425625,-42,-112,511,0
425636,-33,-126,511,0
425647,-27,-120,511,0
425658,-23,-94,499,0
425669,-18,-95,454,0
425680,-2,-85,406,0
425691,13,-65,371,0
425702,49,-49,317,0
425713,72,-53,298,0
425724,90,-51,280,0
425735,88,-47,269,0
425746,66,-42,269,0
425757,64,-39,270,0
425768,62,-36,264,0
425779,57,-31,259,0
425790,62,-42,252,0
425801,65,-25,253,0
425812,67,-29,243,0
425823,61,-35,225,0
425834,61,-33,215,0
425845,63,-28,211,0
425856,60,-10,214,0
425867,52,-15,220,0
425878,44,-17,222,0
425889,43,-23,221,0
425900,39,-17,219,0
425911,22,-16,203,0
425922,13,-20,176,0
425933,8,-25,152,0
425944,11,-19,133,0
425955,10,-22,114,0
425966,16,-8,113,0
425977,20,-8,102,0
425988,28,-6,80,0
425999,26,-11,60,0
426010,33,-6,43,0
426021,40,-12,28,0
426032,28,-4,27,0
426043,31,-4,27,0
426054,36,-8,13,0
426065,40,-7,5,0
426077,49,-4,17,0
426088,57,0,24,0
426099,63,-3,20,0
426110,78,-10,20,0
426121,94,-6,24,0
426132,108,-9,23,0
426143,125,-12,30,0
426154,137,-8,37,0
426165,143,-9,37,0
426176,139,-12,57,0
426187,130,-7,61,0
426198,112,-1,64,0
426209,93,1,64,0
426220,65,-3,60,0
426231,51,-7,60,0
426242,48,-2,60,0
426253,34,-9,49,0
426264,33,2,51,0
426275,24,4,47,0
426286,22,15,42,0
426297,20,4,52,0
426308,20,2,80,0
426319,9,18,102,0
426330,12,16,95,0
426341,9,0,46,0
426352,18,-30,48,0
426363,36,-54,97,0
426374,25,-66,153,0
426385,10,-72,154,0
426396,31,-29,170,0
426407,65,-20,182,0
426418,76,-9,173,0
426429,88,6,168,0
426440,109,0,161,0
426451,103,11,208,0
426462,107,-27,227,0
426473,113,-57,221,0
426484,103,-79,203,0
426495,103,-74,193,0
426506,44,-34,233,0
426517,-4,-10,235,0
426528,-17,0,212,0
426539,3,-24,242,0
426550,65,-86,253,0
426561,137,-144,223,0
426572,149,-200,189,0
426583,128,-194,182,0
426594,76,-84,223,0
426605,-43,28,292,0
426616,-124,63,377,0
426627,-129,25,414,0
426638,-86,-27,446,0
426649,-37,-106,472,0
426660,-14,-163,488,0
426671,-66,-125,511,0
426682,-65,-94,511,0
426693,-58,-69,511,0
426704,-80,-65,511,0
426715,-98,-81,511,0
426726,-73,-126,511,0
426737,-14,-171,511,0
426748,9,-181,511,0
426759,1,-172,511,0
426770,-17,-148,511,0
426782,-30,-125,511,0
426793,-41,-116,511,0
426804,-44,-99,484,0
426815,-67,-72,417,0
426826,-61,-66,381,0
426837,-31,-72,347,0
426848,-1,-80,331,0
426859,28,-76,300,0
426870,70,-67,262,0
426881,83,-64,242,0
426892,84,-62,244,0
426903,79,-62,245,0
426914,69,-58,241,0
426925,68,-57,244,0
426936,82,-54,231,0
426947,87,-49,217,0
426958,85,-42,203,0
426969,68,-40,190,0
426980,52,-30,167,0
426991,56,-29,173,0
427002,57,-31,174,0
427013,55,-28,174,0
427024,54,-32,174,0
427035,46,-31,168,0
427046,35,-26,158,0
427057,30,-20,148,0
427068,26,-15,127,0
427079,32,-10,107,0
427090,45,0,100,0
427101,47,-1,88,0
427112,53,-2,87,0
427123,64,-5,81,0
427134,68,-10,78,0
427145,76,-14,71,0
427156,75,-18,53,0
427167,84,-14,66,0
427178,79,-16,49,0
427189,67,-15,41,0
427200,66,-11,33,0
427211,65,-8,30,0
427222,64,-4,25,0
427233,68,-4,22,0
427244,79,-1,16,0
427255,93,3,16,0
427266,105,1,14,0
427277,116,4,24,0
427288,118,2,32,0
427299,121,-3,34,0
427310,126,1,47,0
427321,128,-3,53,0
427332,119,-7,61,0
427343,99,-14,64,0
427354,74,-28,65,0
427365,50,-40,60,0
427376,33,-27,43,0
427387,7,-21,30,0
427398,0,-12,37,0
427409,6,3,53,0
427420,30,9,69,0
427431,33,22,56,0
427442,29,25,44,0
427453,51,38,57,0
427464,60,37,68,0
427475,48,39,42,0
427486,44,20,27,0
427497,33,-10,46,0
427508,45,-53,94,0
427519,55,-57,117,0
427530,53,-58,137,0
427541,55,-67,169,0
427552,62,-73,205,0
427563,87,-69,234,0
427574,100,-21,287,0
427585,56,2,262,0
427596,3,24,231,0
427607,-8,9,195,0
427618,-3,-47,188,0
427629,58,-84,170,0
427640,154,-47,178,0
427651,136,-5,158,0
427662,77,29,193,0
427673,39,31,231,0
427684,14,-6,248,0
427695,58,-74,256,0
427706,80,-116,226,0
427717,86,-156,223,0
427728,156,-189,272,0
427739,180,-132,304,0
427750,89,-50,371,0
427761,-15,4,469,0
427772,-140,10,505,0
427783,-230,-8,511,0
427794,-182,-92,511,0
427805,-59,-194,511,0
427816,-14,-208,511,0
427827,-36,-191,511,0
427838,-75,-160,511,0
427849,-103,-109,511,0
427860,-95,-99,511,0
427871,-77,-119,511,0
427882,-67,-144,511,0
427893,-78,-152,511,0
427904,-80,-148,511,0
427915,-77,-131,509,0
427926,-81,-94,460,0
427937,-79,-57,425,0
427948,-72,-40,382,0
427959,-63,-47,331,0
427970,13,-59,261,0
427981,63,-60,246,0
427993,85,-58,240,0
428004,100,-54,234,0
428015,93,-52,237,0
428026,88,-29,256,0
428037,89,-41,252,0
428048,89,-36,238,0
428059,79,-31,230,0
428070,71,-29,219,0
428081,64,-28,215,0
428092,60,-33,214,0
428103,61,-35,201,0
428114,60,-30,192,0
428125,57,-15,184,0
428136,52,-13,176,0
428147,44,-18,165,0
428158,42,-22,150,0
428169,37,-27,143,0
428180,22,-25,130,0
428191,16,-25,112,0
428202,14,-21,97,0
428213,13,-22,88,0
428224,18,-16,88,0
428235,22,-4,82,0
428246,24,4,87,0
428257,27,4,95,0
428268,35,11,102,0
428279,29,2,73,0
428290,26,-2,59,0
428301,26,-2,44,0
428312,28,-1,42,0
428323,36,-7,33,0
428334,47,-9,27,0
428345,63,-4,28,0
428356,84,-5,15,0
428367,102,0,-6,0
428378,108,10,-11,0
428389,116,6,-6,0
428400,121,14,12,0
428411,127,12,30,0
428422,132,8,40,0
428433,140,1,54,0
428444,145,-23,77,0
428455,128,-28,73,0
428466,114,-28,67,0
428477,101,-20,62,0
428488,74,-18,47,0
428499,38,-9,34,0
428510,10,0,22,0
428521,6,4,24,0
428532,29,-4,38,0
428543,47,1,78,0
428554,68,0,86,0
428565,68,20,52,0
428576,71,24,57,0
428587,76,21,73,0
428598,69,16,73,0
428609,28,15,13,0
428620,26,3,23,0
428631,24,-11,53,0
428642,26,-23,96,0
428653,43,-30,132,0
428664,61,-38,188,0
428675,79,-35,243,0
428686,70,-11,263,0
428697,41,-2,226,0
428708,45,-7,177,0
428719,42,27,183,0
428730,40,15,200,0
428741,52,-1,224,0
428752,44,-57,236,0
428763,18,-77,277,0
428774,71,-73,259,0
428785,88,-59,208,0
428796,112,-50,189,0
428807,124,-40,188,0
428818,113,-48,215,0
428829,105,-74,255,0
428840,55,-64,270,0
428851,-17,-66,308,0
428862,-75,-83,357,0
428873,-67,-91,377,0
428884,-39,-56,403,0
428895,-53,-25,429,0
428906,-79,-34,449,0
428917,-82,-59,495,0
428928,-111,-71,511,0
428939,-107,-145,511,0
428950,-71,-152,511,0
428961,-83,-143,511,0
428972,-79,-131,511,0
428983,-77,-137,511,0
428994,-70,-135,511,0
429005,-67,-130,511,0
429016,-59,-127,511,0
429027,-51,-118,511,0
429038,-50,-110,511,0
429049,-31,-96,491,0
429060,-20,-84,433,0
429071,-3,-76,391,0
429082,18,-72,348,0
429093,35,-76,318,0
429104,36,-63,293,0
429115,39,-62,287,0
429126,48,-51,279,0
429137,42,-34,260,0
429148,37,-27,253,0
429159,38,-21,238,0
429170,30,-21,227,0
429181,33,-22,232,0
429192,35,-35,234,0
429203,43,-45,233,0
429214,38,-39,227,0
429225,38,-35,218,0
429236,33,-25,223,0
429247,27,-13,233,0
429258,17,-18,235,0
429269,14,-11,230,0
429280,8,-17,215,0
429291,2,-21,202,0
429302,5,-20,191,0
429313,4,-22,183,0
429324,4,-19,161,0
429335,3,-18,148,0
429346,9,-15,124,0
429357,13,-15,102,0
429368,19,-17,77,0
429379,22,-20,63,0
429390,26,-9,61,0
429401,47,4,68,0
429412,56,-12,25,0
429423,60,-3,11,0
429434,60,-8,-13,0
429445,55,0,-4,0
429456,45,4,15,0
429467,29,3,22,0
429478,9,1,28,0
429489,11,-10,43,0
429500,43,-15,48,0
429511,64,-7,52,0
429522,77,-7,52,0
429533,88,-10,58,0
429544,100,-8,67,0
429555,109,-2,76,0
429566,128,-1,78,0
429577,146,5,83,0
429588,158,3,82,0
429599,150,2,66,0
429610,133,0,54,0
429621,126,0,50,0
429632,113,-13,48,0
429643,96,-35,40,0
429654,89,-46,24,0
429665,86,-49,15,0
429676,94,-37,12,0
429687,99,-23,12,0
429698,96,-5,21,0
429709,94,4,41,0
429720,89,15,56,0
429731,77,15,63,0
429742,67,7,69,0
429753,56,-15,78,0
429764,63,-1,100,0
429775,40,-2,108,0
429786,33,-3,137,0
429797,16,-5,145,0
429808,-2,-19,149,0
429819,-4,-37,155,0
429830,12,-20,183,0
429841,15,-10,230,0
429852,50,0,278,0
429863,61,49,334,0
429874,37,23,251,0
429885,6,-44,223,0
429896,20,-79,210,0
429907,51,-118,200,0
429918,93,-128,249,0
429929,147,-70,299,0
429940,101,11,253,0
429951,50,55,230,0
429962,19,-13,223,0
429973,-1,-53,208,0
429984,-10,-90,203,0
429995,-1,-114,250,0
430006,-3,-80,312,0
430017,-36,-21,369,0
430028,-76,-13,439,0
430039,-117,-43,468,0
430050,-112,-83,495,0
430061,-92,-92,511,0
430072,-58,-97,511,0
430083,-48,-121,511,0
430094,-59,-107,511,0
430105,-66,-97,511,0
430116,-51,-113,511,0
430127,-28,-128,511,0
430138,-11,-128,511,0
430149,-13,-130,511,0
430160,-7,-145,511,0
430171,4,-126,511,0
430182,6,-105,511,0
430193,9,-87,487,0
430204,19,-80,436,0
430215,31,-64,391,0
430226,53,-50,355,0
430237,67,-51,311,0
430248,74,-55,296,0
430259,79,-50,292,0
430270,80,-19,283,0
430281,83,-56,274,0
430292,79,-42,262,0
430303,69,-37,250,0
430314,53,-37,233,0
430325,49,-34,207,0
430336,39,-26,207,0
430347,30,-20,202,0
430358,30,-24,193,0
430369,29,-18,195,0
430380,30,-21,195,0
430391,35,-22,197,0
430402,33,-18,187,0
430413,36,-12,181,0
430424,31,-7,177,0
430435,33,-8,168,0
430446,36,1,158,0
430457,35,5,150,0
430468,46,18,134,0
430479,45,4,129,0
430490,39,9,127,0
430501,41,-5,87,0
430512,47,-13,70,0
430523,56,-12,65,0
430534,48,-4,63,0
430545,53,-9,62,0
430556,55,-3,58,0
430567,53,1,53,0
430578,60,2,40,0
430589,70,-2,28,0
430600,82,-4,27,0
430611,93,-4,24,0
430622,96,-5,22,0
430633,85,-12,13,0
430644,76,-9,17,0
430655,71,-8,28,0
430666,67,-3,39,0
430677,72,-2,48,0
430688,90,0,62,0
430699,114,6,76,0
430710,133,2,89,0
430721,144,0,107,0
430732,140,-11,114,0
430743,127,-5,78,0
430754,100,8,62,0
430765,80,2,63,0
430776,65,0,53,0
430787,47,1,38,0
430798,34,3,22,0
430809,34,12,25,0
430820,34,11,39,0
430831,32,1,48,0
430842,30,-16,53,0
430853,35,-28,44,0
430864,36,-31,23,0
430875,33,-28,27,0
430886,33,-28,53,0
430897,32,-32,92,0
430908,54,-37,116,0
430919,75,-30,115,0
430930,82,8,126,0
430941,61,29,130,0
430952,25,12,129,0
430963,23,-15,116,0
430974,18,-18,122,0
430985,14,-31,160,0
430996,63,-64,206,0
431007,92,-49,255,0
431018,75,-7,313,0
431029,52,-15,277,0
431040,46,-48,262,0
431051,23,-30,270,0
431062,8,-52,281,0
431073,62,-64,271,0
431084,83,-44,272,0
431095,103,-29,257,0
431106,108,-40,256,0
431117,89,-46,301,0
431128,73,-46,267,0
431139,45,-69,277,0
431150,-6,-40,293,0
431161,-29,-57,346,0
431172,-53,-73,385,0
431183,-67,-61,419,0
431194,-92,-49,482,0
431205,-103,-83,511,0
431216,-89,-87,511,0
431227,-65,-86,511,0
431238,-68,-113,511,0
431249,-71,-111,511,0
431260,-70,-112,511,0
431271,-59,-112,511,0
431282,-48,-112,511,0
431293,-36,-118,511,0
431304,-26,-109,511,0
431315,-32,-98,511,0
431326,-23,-82,494,0
431337,-26,-69,435,0
431348,-28,-61,384,0
431359,-8,-59,336,0
431370,18,-52,303,0
431381,36,-51,276,0
431392,55,-51,259,0
431403,57,-44,252,0
431414,66,-54,259,0
431425,68,-35,254,0
431436,66,-24,255,0
431447,63,-18,257,0
431458,52,-26,247,0
431469,48,-26,238,0
431480,42,-21,224,0
431491,33,-22,206,0
431502,33,-19,201,0
431513,39,-17,200,0
431524,46,-11,201,0
431535,55,-5,210,0
431546,52,-6,216,0
431557,59,-20,224,0
431568,58,-22,201,0
431579,51,-23,185,0
431590,47,-19,165,0
431601,44,-20,142,0
431612,47,-6,140,0
431623,42,-14,117,0
431634,40,-6,102,0
431645,36,0,91,0
431656,23,1,61,0
431668,23,-4,54,0
431679,20,-14,47,0
431690,24,1,56,0
431701,22,-6,47,0
431712,28,-9,47,0
431723,41,-14,19,0
431734,51,-14,8,0
431745,59,-19,-10,0
431756,68,-11,-12,0
431767,72,-5,-6,0
431778,88,-8,8,0
431789,110,-2,17,0
431800,128,2,19,0
431811,144,5,18,0
431822,155,6,31,0
431833,149,2,44,0
431844,139,2,61,0
431855,124,-3,89,0
431866,111,-16,98,0
431877,93,-22,81,0
431888,76,-6,71,0
431899,65,-7,62,0
431910,58,-7,60,0
431921,50,-5,49,0
431932,50,1,49,0
431943,60,4,54,0
431954,61,10,55,0
431965,46,12,55,0
431976,22,4,35,0
431987,22,2,18,0
431998,19,7,25,0
432009,17,23,42,0
432020,18,13,60,0
432031,17,6,84,0
432042,63,-43,107,0
432053,72,-24,123,0
432064,63,-21,145,0
432075,63,-48,160,0
432086,52,-44,180,0
432097,38,-34,191,0
432108,34,-41,174,0
432119,42,-38,207,0
432130,43,-27,202,0
432141,47,-26,219,0
432152,59,-37,236,0
432163,84,-43,236,0
432174,80,-9,241,0
432185,61,1,260,0
432196,24,-17,259,0
432207,-23,-36,270,0
432218,16,-76,260,0
432229,57,-96,272,0
432240,91,-86,237,0
432251,85,-88,233,0
432262,44,-68,236,0
432273,-29,-43,267,0
432284,-100,-31,302,0
432295,-127,-44,340,0
432306,-122,-54,377,0
432317,-105,-72,388,0
432328,-40,-118,433,0
432339,20,-131,490,0
432350,11,-119,511,0
432361,-2,-122,511,0
432372,-3,-82,511,0
432383,29,-87,511,0
432394,34,-106,511,0
432405,26,-138,511,0
432416,20,-149,511,0
432427,1,-150,511,0
432438,-17,-140,511,0
432449,-39,-109,511,0
432460,-62,-91,511,0
432471,-65,-80,485,0
432482,-56,-73,425,0
432493,-38,-60,362,0
432504,-10,-45,319,0
432515,15,-48,293,0
432526,40,-53,279,0
432537,60,-37,253,0
432548,68,-45,237,0
432559,83,-56,226,0
432570,83,-56,221,0
432581,79,-53,235,0
432592,84,-41,234,0
432603,81,-34,244,0
432614,90,-28,225,0
432625,98,-21,215,0
432636,104,-17,214,0
432647,106,-19,207,0
432658,102,-15,197,0
432669,108,-12,197,0
432680,96,-19,189,0
432692,77,-24,189,0
432703,73,-15,198,0
432714,61,-9,205,0
432725,44,-4,191,0
432736,30,-5,165,0
432747,25,-1,149,0
432758,19,-3,130,0
432769,12,7,113,0
432780,9,4,97,0
432791,12,-9,72,0
432802,20,-2,75,0
432813,23,-14,53,0
432824,31,-12,47,0
432835,39,-21,38,0
432846,49,-12,40,0
432857,56,5,44,0
432868,60,-4,21,0
432879,60,-6,16,0
432890,59,-4,16,0
432901,62,-1,10,0
432912,65,-1,7,0
432923,66,-9,-1,0
432934,67,-12,2,0
432945,82,-15,7,0
432956,99,-9,15,0
432967,112,-2,21,0
432978,117,-1,47,0
432989,129,-16,61,0
433000,140,-18,66,0
433011,133,0,74,0
433022,104,-2,104,0
433033,78,-1,83,0
433044,50,2,73,0
433055,27,-2,60,0
433066,18,0,51,0
433077,35,-3,55,0
433088,50,20,59,0
433099,42,18,50,0
433110,39,16,54,0
433122,33,4,39,0
433133,34,-3,22,0
433144,32,-5,13,0
433155,36,-7,4,0
433166,35,-4,2,0
433177,63,-22,71,0
433188,73,-12,110,0
433199,62,-18,125,0
433210,41,-42,145,0
433221,17,-57,179,0
433232,36,-51,221,0
433243,77,-26,239,0
433254,103,2,285,0
433265,87,15,270,0
433276,47,4,245,0
433287,32,-30,242,0
433298,37,-67,243,0
433309,46,-87,269,0
433320,41,-61,310,0
433331,26,-38,300,0
433342,68,-40,273,0
433353,65,-55,227,0
433364,61,-55,229,0
433375,60,-82,253,0
433386,48,-94,252,0
433397,33,-104,258,0
433408,16,-98,255,0
433419,-2,-75,278,0
433430,-32,-60,317,0
433441,-62,-57,358,0
433452,-77,-45,393,0
433463,-116,-68,407,0
433474,-112,-125,443,0
433485,-52,-154,497,0
433496,-61,-145,511,0
433507,-63,-130,511,0
433518,-43,-136,511,0
433529,-28,-146,511,0
433540,-18,-157,511,0
433551,-13,-167,511,0
433562,-21,-169,511,0
433573,-22,-168,511,0
433584,-23,-151,511,0
433595,-17,-144,511,0
433606,-4,-131,504,0
433617,1,-122,451,0
433628,10,-97,411,0
433639,21,-74,370,0
433650,29,-61,350,0
433661,46,-51,282,0
433672,64,-53,257,0
433683,72,-54,255,0
433694,78,-60,246,0
433705,85,-50,243,0
433716,75,-41,253,0
433727,60,-25,248,0
433738,76,-21,212,0
433749,82,-12,213,0
433760,92,-11,226,0
433771,104,-6,220,0
433782,105,-9,225,0
433793,104,-4,217,0
433804,101,-1,213,0
433815,94,-9,195,0
433826,84,-22,190,0
433837,77,-14,189,0
433848,70,-17,191,0
433859,66,-24,177,0
433870,66,-24,161,0
433881,64,-23,143,0
433892,60,-18,125,0
433903,56,-16,116,0
433914,57,-17,102,0
433925,50,-5,98,0
433936,36,-6,80,0
433947,31,-2,67,0
433958,26,-7,67,0
433969,29,-15,57,0
433980,22,-9,58,0
433991,28,-16,49,0
434002,26,-13,35,0
434013,31,-9,33,0
434024,48,-9,29,0
434035,58,-8,14,0
434046,74,-2,12,0
434057,92,-4,9,0
434068,113,-2,15,0
434079,127,1,29,0
434090,130,1,42,0
434101,136,-1,45,0
434112,134,-1,40,0
434123,131,-3,32,0
434134,130,0,38,0
434145,126,-4,69,0
434156,104,-16,103,0
434167,76,-20,103,0
434178,58,-19,95,0
434189,49,-15,89,0
434200,42,-4,77,0
434211,32,4,71,0
434222,39,5,72,0
434233,59,17,66,0
434244,66,17,57,0
434255,62,20,51,0
434266,55,23,50,0
434277,48,19,46,0
434288,42,-8,31,0
434299,45,-19,26,0
434310,46,-21,34,0
434321,18,-27,31,0
434332,-2,-34,63,0
434343,-2,-47,113,0
434354,6,-72,184,0
434365,36,-66,246,0
434376,55,-25,219,0
434387,72,16,207,0
434398,87,4,165,0
434409,55,1,187,0
434420,37,-13,199,0
434431,47,-24,212,0
434442,49,-37,225,0
434453,77,-62,227,0
434464,105,-64,238,0
434475,124,-47,240,0
434486,79,15,231,0
434497,56,10,244,0
434508,51,-16,246,0
434519,66,-66,232,0
434530,108,-113,234,0
434541,131,-114,234,0
434552,147,-100,259,0
434563,119,-68,267,0
434574,48,-25,270,0
434585,-13,11,297,0
434596,-82,3,302,0
434607,-114,-37,287,0
434618,-69,-78,316,0
434629,-35,-104,351,0
434640,-11,-120,387,0
434651,-17,-89,511,0
434662,-79,-86,511,0
434673,-94,-80,511,0
434684,-56,-117,511,0
434695,-13,-139,511,0
434706,2,-151,511,0
434717,13,-155,511,0
434728,11,-151,511,0
434739,12,-150,511,0
434750,6,-135,511,0
434761,-1,-120,511,0
434772,-5,-110,511,0
434783,-3,-94,500,0
434794,-15,-70,444,0
434805,-11,-57,394,0
434816,11,-49,292,0
434828,37,-56,254,0
434839,54,-57,228,0
434850,67,-56,219,0
434861,88,-48,218,0
434872,97,-41,214,0
434883,94,-38,213,0
434894,86,-25,223,0
434905,86,-20,230,0
434916,83,-18,241,0
434927,84,-6,252,0
434938,84,-16,256,0
434949,81,-20,255,0
434960,86,-16,249,0
434971,72,-4,242,0
434982,70,-2,230,0
434993,70,-12,199,0
435004,62,4,196,0
435015,57,-19,175,0
435026,51,-11,169,0
435037,48,-8,165,0
435048,45,-2,158,0
435059,40,-2,144,0
435070,42,-9,127,0
435081,46,-10,122,0
435092,45,-2,126,0
435103,31,-3,108,0
435114,41,-14,81,0
435125,32,-4,50,0
435136,25,-19,14,0
435147,27,-9,18,0
435158,31,-9,2,0
435169,35,-14,3,0
435180,44,4,20,0
435191,50,4,14,0
435202,50,0,9,0
435213,56,0,18,0
435224,61,-1,19,0
435235,63,1,33,0
435246,69,4,49,0
435257,74,0,49,0
435268,81,0,52,0
435279,89,-1,56,0
435290,95,-12,62,0
435301,102,-21,79,0
435312,106,-31,90,0
435323,105,-29,86,0
435334,94,-22,86,0
435345,76,-16,88,0
435356,60,-10,80,0
435367,50,-9,69,0
435378,47,-3,63,0
435389,48,1,55,0
435400,53,7,46,0
435411,59,4,35,0
435422,65,4,28,0
435433,69,0,32,0
435444,71,-7,30,0
435455,62,3,35,0
435466,51,1,39,0
435477,39,3,48,0
435488,50,-4,73,0
435499,64,-9,120,0
435510,63,-29,160,0
435521,59,-35,212,0
435532,37,-36,250,0
435543,29,-36,253,0
435554,24,-20,243,0
435565,1,-8,225,0
435577,8,2,210,0
435588,24,-6,201,0
435599,36,-25,196,0
435610,86,-57,208,0
435621,73,-48,204,0
435632,68,-55,210,0
435643,63,-34,220,0
435654,55,-21,242,0
435665,45,-14,236,0
435676,43,-29,210,0
435687,59,-71,189,0
435698,84,-102,194,0
435709,95,-84,195,0
435720,77,-86,194,0
435731,45,-56,206,0
435742,-12,-25,225,0
435753,-36,-42,259,0
435764,-47,-55,272,0
435775,-58,-107,308,0
435786,-21,-138,358,0
435797,19,-137,418,0
435808,-8,-127,474,0
435819,-20,-105,511,0
435830,-56,-94,511,0
435841,-71,-119,511,0
435852,-50,-155,511,0
435863,-9,-187,511,0
435874,12,-197,511,0
435885,2,-186,511,0
435896,-23,-164,511,0
435907,-21,-149,511,0
435918,-5,-136,511,0
435929,4,-131,511,0
435940,4,-121,511,0
435951,-10,-102,460,0
435962,-23,-91,409,0
435973,-21,-94,347,0
435984,-13,-83,299,0
435995,2,-79,259,0
436006,21,-79,231,0
436017,42,-63,205,0
436028,51,-64,195,0
436039,57,-63,204,0
436050,62,-56,208,0
436061,67,-28,220,0
436072,63,-42,223,0
436083,60,-31,218,0
436094,67,-29,207,0
436105,81,-41,202,0
436116,92,-41,204,0
436127,96,-38,208,0
436138,101,-38,215,0
436149,98,-31,212,0
436160,104,-22,204,0
436171,95,-15,196,0
436182,85,-15,188,0
436193,87,-17,179,0
436204,87,-15,175,0
436215,85,-13,173,0
436226,71,-21,164,0
436237,65,-20,144,0
436248,58,-17,131,0
436259,57,-10,117,0
436270,55,-13,91,0
436281,51,-14,71,0
436292,52,-13,63,0
436303,50,-13,53,0
436314,54,-10,44,0
436325,48,-9,31,0
436336,44,-10,36,0
436347,45,-18,15,0
436358,46,-16,21,0
436369,50,-13,16,0
436380,55,-15,17,0
436391,60,-17,9,0
436402,66,-6,18,0
436413,76,-9,18,0
436424,92,-3,24,0
436435,118,6,45,0
436446,127,7,56,0
436457,135,9,58,0
436468,135,4,60,0
436479,129,-1,72,0
436490,118,-13,82,0
436501,104,-17,82,0
436512,79,-41,73,0
436523,72,-31,61,0
436534,65,-25,58,0
436545,51,-18,61,0
436556,41,-15,64,0
436567,33,-4,60,0
436578,29,6,42,0
436589,29,12,19,0
436600,44,11,16,0
436611,47,15,33,0
436622,45,11,54,0
436633,59,-2,50,0
436644,79,-2,45,0
436655,86,-1,50,0
436666,72,-19,62,0
436677,74,-22,75,0
436688,70,-23,107,0
436699,61,-31,150,0
436710,44,-24,172,0
436721,23,-26,175,0
436732,5,-30,176,0
436743,0,-21,194,0
436754,21,-23,203,0
436765,85,-24,196,0
436776,108,-24,196,0
436788,98,-16,196,0
436799,72,75,285,0
436810,52,-104,199,0
436821,52,-22,208,0
436832,51,-36,216,0
436843,87,-71,219,0
436854,125,-81,237,0
436865,130,-55,220,0
436876,88,-45,242,0
436887,62,-45,263,0
436898,42,-67,275,0
436909,-56,-72,320,0
436920,-74,-108,361,0
436931,-81,-96,399,0
436942,-71,-107,451,0
436953,-60,-145,511,0
436964,-37,-150,511,0
436975,-51,-175,511,0
436986,-49,-160,511,0
436997,-39,-153,511,0
437008,1,-196,511,0
437019,20,-189,511,0
437030,-7,-169,511,0
437041,-18,-163,511,0
437052,-20,-160,511,0
437063,-25,-149,511,0
437074,-27,-116,509,0
437086,-14,-107,462,0
437097,-2,-98,416,0
437108,9,-84,378,0
437119,19,-68,343,0
437130,38,-50,293,0
437141,47,-42,246,0
437152,58,-63,227,0
437163,69,-58,214,0
437174,76,-49,195,0
437185,79,-44,186,0
437196,76,-39,188,0
437207,72,-40,194,0
437218,70,-28,190,0
437229,60,-17,187,0
437240,65,-22,181,0
437251,64,-16,184,0
437262,58,-22,164,0
437273,65,-25,156,0
437284,64,-24,156,0
437295,63,-13,158,0
437306,61,-10,154,0
437317,55,-6,151,0
437328,56,-9,145,0
437339,50,-3,134,0
437350,38,-5,133,0
437361,39,-7,130,0
437372,35,-6,133,0
437383,27,-2,133,0
437394,32,-15,131,0
437405,37,-17,129,0
437416,39,-13,127,0
437427,31,-2,128,0
437438,28,-4,113,0
437449,21,2,113,0
437460,26,2,109,0
437471,23,1,97,0
437482,24,-3,94,0
437493,36,-14,106,0
437504,41,-7,103,0
437515,38,-13,94,0
437526,46,0,112,0
437537,58,-1,131,0
437548,65,-11,127,0
437559,62,-12,128,0
437570,62,-14,125,0
437581,63,-5,117,0
437592,67,6,122,0
437603,83,17,135,0
437614,88,14,143,0
437625,95,5,147,0
437636,101,2,153,0
437647,103,-2,159,0
437658,108,-6,163,0
437669,112,-7,168,0
437680,112,-2,173,0
437691,112,6,182,0
437702,99,2,184,0
437713,100,-2,191,0
437724,109,4,210,0
437735,105,14,218,0
437746,94,10,224,0
437757,83,11,222,0
437768,76,15,220,0
437779,73,12,224,0
437790,71,9,227,0
437801,71,10,227,0
437812,72,8,231,0
437823,72,5,232,0
437834,68,0,229,0
437845,67,-3,228,0
437856,67,-2,227,0
437867,66,1,224,0
437878,65,5,222,0
437889,68,7,218,0
437900,72,13,217,0
437911,74,16,217,0
437922,77,18,218,0
437933,76,19,221,0
437944,75,15,225,0
437955,73,10,228,0
437966,75,11,230,0
437977,76,9,231,0
437988,76,8,229,0
437999,77,8,228,0
438010,77,8,227,0
438021,75,9,225,0
438032,70,8,223,0
438043,65,10,222,0
438054,62,10,228,0
438065,58,11,229,0
438076,54,12,228,0
438087,54,14,227,0
438098,52,12,224,0
438109,53,11,223,0
438120,52,12,222,0
438131,50,12,225,0
438142,50,13,228,0
438153,54,10,234,0
438164,57,8,235,0
438175,60,6,233,0
438186,63,5,228,0
438197,51,20,227,0
438208,48,11,229,0
438219,46,9,227,0
438230,46,8,229,0
438241,47,7,231,0
438252,46,9,234,0
438263,47,8,234,0
438274,47,9,235,0
438285,48,11,233,0
438296,49,11,233,0
438307,49,11,233,0
438318,49,11,230,0
438330,49,13,229,0
438340,47,12,227,0
438351,48,7,225,0
438362,51,6,225,0
438373,52,7,228,0
438384,52,9,233,0
438395,54,14,236,0
438406,46,10,231,0
438417,50,8,229,0
438428,52,27,240,0
438439,56,8,221,0
438450,56,13,227,0
438461,56,8,228,0
438472,55,7,228,0
438483,57,9,230,0
438494,55,14,236,0
438505,54,12,237,0
438516,54,11,234,0
438527,56,8,230,0
438538,45,3,228,0
438549,55,3,222,0
438560,56,3,227,0
438571,56,1,228,0
438582,56,5,231,0
438593,53,4,226,0
438604,53,7,227,0
438615,54,7,229,0
438626,53,5,227,0
438637,52,4,226,0
438648,51,5,228,0
438659,50,5,228,0
438670,51,6,231,0
438681,49,7,228,0
438692,49,4,230,0
438703,48,3,225,0
438714,51,3,225,0
438725,53,0,221,0
438736,53,3,222,0
438747,51,3,224,0
438758,50,5,225,0
438769,48,2,227,0
438780,48,3,229,0
438791,48,3,228,0
438802,46,2,230,0
438813,46,3,232,0
438824,46,4,231,0
438835,48,3,232,0
438846,48,5,234,0
438857,50,4,232,0
438868,49,5,234,0
438879,46,3,230,0
438890,44,3,227,0
438901,44,4,226,0
438912,44,4,225,0
438923,44,5,224,0
438934,43,3,224,0
438945,44,4,225,0
438956,46,3,225,0
438967,49,3,225,0
438978,49,1,227,0
438989,45,3,228,0
439000,44,-1,227,0
439011,43,-4,223,0
439022,48,-2,223,0
439033,49,-6,211,0
