timestamp,accX,accY,accZ,step
54598,21,-6,230,0
54608,21,-6,231,0
54619,23,-9,226,0
54630,23,0,235,0
54641,26,-6,229,0
54652,25,-3,232,0
54662,27,-3,235,0
54672,27,-3,235,0
54682,26,-7,230,0
54693,25,-8,228,0
54704,26,-7,227,0
54715,26,-5,229,0
54727,24,-5,232,0
54737,25,-2,233,0
54747,24,-5,232,0
54757,26,-5,231,0
54768,25,-5,231,0
54778,26,-5,232,0
54789,26,-3,231,0
54800,26,-3,231,0
54811,26,-6,230,0
54822,26,-5,231,0
54834,26,-4,231,0
54845,26,-4,231,0
54856,27,-6,232,0
54867,28,-6,231,0
54878,27,-4,231,0
54889,25,-5,230,0
54900,25,-6,231,0
54911,23,-6,232,0
54922,23,-7,230,0
54933,22,-6,231,0
54944,21,-7,231,0
54955,21,-9,231,0
54966,18,-9,231,0
54977,17,-9,229,0
54988,16,-7,230,0
54999,15,-6,230,0
55010,15,-4,230,0
55021,15,-4,232,0
55032,17,-7,234,0
55043,23,-9,234,0
55054,24,-9,230,0
55066,23,-8,226,0
55077,23,-7,227,0
55088,23,-6,227,0
55098,23,-5,230,0
55109,25,-5,233,0
55120,27,-7,234,0
55131,26,-8,235,0
55142,28,-8,232,0
55153,31,-9,231,0
55164,30,-9,228,0
55175,29,-8,225,0
55186,27,-5,223,0
55197,27,-4,226,0
55208,25,-5,235,0
55219,25,-6,235,0
55230,25,-8,235,0
55241,25,-9,233,0
55252,25,-8,229,0
55263,23,-4,228,0
55274,21,-3,229,0
55285,22,-2,231,0
55296,21,-2,231,0
55307,21,-3,233,0
55318,24,-5,233,0
55329,25,-6,231,0
55340,27,-7,231,0
55352,28,-4,227,0
55362,29,-4,228,0
55373,27,-3,231,0
55384,27,-4,231,0
55395,28,-5,234,0
55406,29,-6,233,0
55417,30,-7,232,0
55428,31,-8,232,0
55439,32,-7,230,0
55450,32,-7,228,0
55461,31,-6,229,0
55472,32,-6,230,0
55483,33,-6,231,0
55494,33,-8,231,0
55505,32,-7,229,0
55516,31,-7,230,0
55527,29,-7,230,0
55538,27,-7,231,0
55549,26,-7,230,0
55560,24,-7,231,0
55571,25,-5,231,0
55582,23,-7,233,0
55593,24,-7,230,0
55604,23,-6,229,0
55615,21,-5,231,0
55627,22,-6,231,0
55637,20,-5,231,0
55648,19,-7,230,0
55659,18,-7,231,0
55670,18,-6,231,0
55681,17,-5,231,0
55692,19,-7,230,0
55703,18,-5,231,0
55714,20,-5,231,0
55725,21,-6,231,0
55737,22,-5,229,0
55747,24,-6,230,0
55758,25,-7,231,0
55769,27,-8,229,0
55780,27,-6,230,0
55792,28,-7,230,0
55802,27,-6,231,0
55813,27,-6,230,0
55824,26,-5,231,0
55835,25,-5,230,0
55846,26,-6,232,0
55857,24,-6,232,0
55868,24,-7,232,0
55879,23,-6,230,0
55891,22,-6,230,0
55902,22,-5,231,0
55912,21,-6,231,0
55923,19,-6,231,0
55934,20,-5,232,0
55945,21,-5,231,0
55956,22,-4,232,0
55967,21,-6,229,0
55978,23,-6,228,0
55989,24,-5,230,0
56000,25,-6,230,0
56011,26,-7,232,0
56022,27,-9,230,0
56033,29,-8,230,0
56044,28,-8,231,0
56055,28,-7,231,0
56066,30,-8,228,0
56077,28,-7,230,0
56088,28,-7,231,0
56099,28,-7,232,0
56110,27,-6,231,0
56121,26,-7,231,0
56132,25,-6,232,0
56143,24,-7,231,0
56154,23,-6,231,0
56165,23,-7,231,0
56176,19,-7,229,0
56188,20,-8,228,0
56198,18,-7,231,0
56209,17,-6,230,0
56220,18,-7,231,0
56231,19,-8,231,0
56242,19,-7,232,0
56253,20,-7,230,0
56264,19,-5,231,0
56275,20,-6,230,0
56286,20,-7,231,0
56297,22,-8,229,0
56308,21,-6,230,0
56320,20,-6,230,0
56330,20,-6,231,0
56341,20,-7,229,0
56352,20,-6,231,0
56363,20,-6,231,0
56374,21,-6,231,0
56385,22,-6,232,0
56396,20,-7,231,0
56407,21,-6,230,0
56418,20,-6,230,0
56429,19,-8,230,0
56440,18,-6,229,0
56451,18,-8,230,0
56462,16,-8,231,0
56473,16,-6,231,0
56484,16,-5,231,0
56495,15,-5,230,0
56506,18,-6,230,0
56518,19,-5,232,0
56529,20,-6,231,0
56540,22,-7,231,0
56551,23,-7,231,0
56562,23,-7,231,0
56573,24,-7,232,0
56584,23,-7,231,0
56595,24,-7,230,0
56606,25,-7,229,0
56617,25,-8,230,0
56628,26,-6,230,0
56639,26,-4,230,0
56650,27,-5,230,0
56661,28,-5,232,0
56672,28,-8,231,0
56683,29,-8,230,0
56694,29,-7,231,0
56705,29,-9,229,0
56716,29,-8,229,0
56727,29,-7,230,0
56738,28,-7,230,0
56749,27,-6,230,0
56761,27,-8,231,0
56771,25,-8,233,0
56782,24,-6,233,0
56793,25,-7,233,0
56804,22,-8,231,0
56815,22,-7,232,0
56826,21,-8,231,0
56837,20,-8,232,0
56848,21,-8,231,0
56859,21,-8,232,0
56870,21,-7,232,0
56881,22,-6,232,0
56892,22,-7,230,0
56903,24,-6,230,0
56914,23,-7,231,0
56925,23,-7,230,0
56936,24,-7,231,0
56947,25,-7,230,0
56958,25,-7,231,0
56969,24,-7,231,0
56980,24,-8,230,0
56992,24,-7,231,0
57002,25,-8,231,0
57013,24,-7,229,0
57024,23,-7,231,0
57035,23,-7,230,0
57046,23,-5,231,0
57057,22,-6,230,0
57068,23,-7,230,0
57079,22,-6,232,0
57091,22,-7,231,0
57102,22,-8,230,0
57112,22,-8,231,0
57123,22,-7,232,0
57134,22,-7,232,0
57145,22,-8,231,0
57156,23,-8,231,0
57167,23,-7,231,0
57178,22,-6,232,0
57189,23,-6,232,0
57200,22,-8,230,0
57211,23,-8,231,0
57222,24,-7,230,0
57233,25,-9,230,0
57244,24,-9,229,0
57255,25,-9,231,0
57266,25,-9,231,0
57277,26,-8,231,0
57288,23,-8,232,0
57299,24,-9,232,0
57310,25,-10,230,0
57322,25,-7,229,0
57332,24,-7,231,0
57343,24,-7,231,0
57354,22,-7,230,0
57365,23,-7,229,0
57376,22,-8,230,0
57388,21,-7,229,0
57398,21,-6,231,0
57409,20,-8,230,0
57420,21,-6,231,0
57431,22,-8,231,0
57442,23,-8,231,0
57453,23,-7,231,0
57464,23,-7,232,0
57475,23,-7,231,0
57486,24,-7,230,0
57497,23,-5,231,0
57508,24,-8,230,0
57519,25,-7,230,0
57531,25,-9,231,0
57541,25,-9,230,0
57552,24,-7,231,0
57563,24,-5,230,0
57574,24,-7,230,0
57585,24,-6,230,0
57596,22,-6,232,0
57607,24,-7,231,0
57618,22,-5,231,0
57629,24,-7,232,0
57640,24,-8,230,0
57651,24,-8,229,0
57662,23,-8,229,0
57673,23,-8,230,0
57684,22,-6,230,0
57695,23,-8,230,0
57706,23,-8,230,0
57717,23,-7,230,0
57728,22,-7,230,0
57739,22,-7,231,0
57750,22,-7,232,0
57761,22,-6,232,0
57772,23,-6,230,0
57783,22,-6,231,0
57794,22,-7,231,0
57805,23,-7,231,0
57816,22,-8,230,0
57827,23,-8,231,0
57838,22,-8,230,0
57849,23,-7,230,0
57860,23,-5,230,0
57871,22,-7,231,0
57882,22,-7,230,0
57893,23,-7,231,0
57904,24,-7,232,0
57916,24,-6,232,0
57926,25,-7,231,0
57938,24,-6,228,0
57948,24,-6,230,0
57959,24,-7,230,0
57970,23,-6,232,0
57981,21,-6,233,0
57992,22,-7,232,0
58003,20,-8,231,0
58014,21,-8,229,0
58025,20,-6,230,0
58036,20,-6,230,0
58047,19,-4,231,0
58058,21,-4,231,0
58069,21,-6,230,0
58080,21,-4,231,0
58092,21,-6,230,0
58102,19,-6,228,0
58113,21,-7,228,0
58124,22,-5,232,0
58135,23,-4,235,0
58146,23,-3,236,0
58157,23,-4,234,0
58168,23,-6,230,0
58179,23,-5,229,0
58191,24,-5,229,0
58202,24,-5,228,0
58212,24,-4,230,0
58223,24,-6,230,0
58234,23,-6,231,0
58245,24,-6,232,0
58256,24,-5,230,0
58267,24,-5,231,0
58278,23,-4,230,0
58289,22,-6,230,0
58300,22,-5,230,0
58311,24,-6,230,0
58323,23,-5,230,0
58333,23,-5,231,0
58344,23,-5,231,0
58355,23,-5,231,0
58366,23,-4,231,0
58377,21,-4,232,0
58388,22,-4,231,0
58399,22,-6,231,0
58410,21,-4,231,0
58421,22,-5,231,0
58432,21,-5,231,0
58443,21,-5,232,0
58454,22,-5,231,0
58465,22,-4,231,0
58476,23,-4,232,0
58488,23,-3,232,0
58498,24,-5,231,0
58509,22,-4,232,0
58520,24,-5,231,0
58531,23,-6,232,0
58542,23,-5,231,0
58553,23,-4,232,0
58564,24,-5,230,0
58575,24,-5,232,0
58586,23,-4,230,0
58597,24,-5,232,0
58608,24,-6,230,0
58619,24,-5,232,0
58630,25,-6,231,0
58641,25,-5,230,0
58652,26,-4,230,0
58663,26,-5,230,0
58674,25,-4,229,0
58685,24,-5,231,0
58696,24,-5,230,0
58707,22,-5,232,0
58718,22,-6,232,0
58729,22,-5,232,0
58740,23,-6,232,0
58752,21,-4,230,0
58762,22,-5,230,0
58773,22,-6,229,0
58784,22,-6,230,0
58795,22,-5,231,0
58807,23,-4,231,0
58818,23,-5,231,0
58829,22,-4,232,0
58840,23,-6,231,0
58852,24,-4,231,0
58862,22,-6,232,0
58873,24,-6,230,0
58884,26,-5,230,0
58895,24,-6,231,0
58906,24,-5,229,0
58917,22,-3,231,0
58928,25,-3,229,0
58939,23,-3,230,0
58950,24,-5,231,0
58961,24,-4,230,0
58972,24,-2,230,0
58983,24,-4,231,0
58994,24,-4,231,0
59005,23,-3,231,0
59016,24,-4,231,0
59027,23,-3,231,0
59038,23,-2,231,0
59049,22,-4,232,0
59060,22,-4,231,0
59071,23,-5,232,0
59082,23,-4,231,0
59093,24,-5,231,0
59104,24,-6,230,0
59115,25,-4,230,0
59127,24,-3,231,0
59137,24,-4,230,0
59148,25,-6,232,0
59159,23,-5,231,0
59170,23,-4,231,0
59181,24,-3,230,0
59192,24,-4,232,0
59203,25,-5,231,0
59214,24,-5,232,0
59225,23,-5,230,0
59236,24,-4,230,0
59247,23,-4,229,0
59258,22,-3,231,0
59269,24,-5,230,0
59280,24,-5,231,0
59292,23,-4,232,0
59302,24,-3,231,0
59313,25,-5,231,0
59325,25,-3,231,0
59335,25,-3,231,0
59346,27,-4,230,0
59357,25,-2,231,0
59368,26,-2,231,0
59379,25,-2,232,0
59391,26,-3,231,0
59402,26,-3,231,0
59412,25,-2,230,0
59423,25,-4,231,0
59434,24,-6,230,0
59445,23,-6,231,0
59456,24,-6,231,0
59467,24,-4,232,0
59478,22,-6,231,0
59489,22,-6,230,0
59500,22,-3,230,0
59511,22,-3,232,0
59522,22,-4,232,0
59533,22,-5,230,0
59544,20,-4,230,0
59555,19,-2,232,0
59566,20,-5,230,0
59577,20,-3,231,0
59588,20,-2,231,0
59599,22,-3,231,0
59610,23,-4,231,0
59621,23,-3,231,0
59632,25,-3,231,0
59643,26,-4,231,0
59654,26,-2,231,0
59665,26,-2,230,0
59677,27,-3,232,0
59688,25,-2,230,0
59699,24,-3,231,0
59710,24,-4,230,0
59721,23,-3,232,0
59732,24,-6,233,0
59743,23,-4,232,0
59754,23,-4,231,0
59765,23,-4,232,0
59777,21,-3,231,0
59788,22,-5,232,0
59798,21,-4,230,0
59809,21,-4,230,0
59820,21,-5,231,0
59831,23,-4,234,0
59842,22,-3,231,0
59853,24,-4,231,0
59864,23,-5,230,0
59875,22,-5,229,0
59886,21,-3,230,0
59897,21,-4,230,0
59908,22,-5,231,0
59919,21,-4,231,0
59930,21,-4,231,0
59941,23,-3,232,0
59952,23,-4,232,0
59963,24,-5,230,0
59974,24,-5,229,0
59986,24,-5,230,0
59996,24,-4,231,0
60007,24,-5,232,0
60018,24,-3,232,0
60029,23,-4,232,0
60040,25,-4,233,0
60052,24,-4,232,0
60062,24,-5,231,0
60073,25,-3,230,0
60084,25,-4,231,0
60095,25,-2,230,0
60106,25,-2,230,0
60117,25,-2,231,0
60128,24,-2,231,0
60139,23,-1,231,0
60150,22,-2,232,0
60161,21,-2,232,0
60172,20,-2,232,0
60183,21,-3,232,0
60194,21,-5,230,0
60205,20,-4,231,0
60216,21,-5,230,0
60227,22,-3,230,0
60238,21,-5,230,0
60249,19,-2,231,0
60260,20,-3,232,0
60271,21,-4,232,0
60282,21,-4,232,0
60293,19,-3,231,0
60304,20,-3,230,0
60315,19,-4,232,0
60327,19,-6,231,0
60337,20,-7,229,0
60348,20,-4,231,0
60359,21,-5,231,0
60370,23,-4,231,0
60381,22,-4,232,0
60392,23,-5,231,0
60403,24,-5,231,0
60414,25,-5,230,0
60425,26,-6,231,0
60436,25,-6,230,0
60447,25,-6,230,0
60458,23,-6,229,0
60469,24,-5,230,0
60480,22,-5,231,0
60492,22,-5,230,0
60502,20,-4,230,0
60513,19,-5,232,0
60524,20,-5,231,0
60535,19,-6,231,0
60546,20,-6,229,0
60557,21,-7,231,0
60568,21,-4,231,0
60579,22,-6,231,0
60591,21,-4,229,0
60602,21,-4,231,0
60612,22,-4,231,0
60623,23,-5,231,0
60634,23,-6,231,0
60645,24,-5,231,0
60656,24,-5,229,0
60667,24,-6,232,0
60678,25,-6,232,0
60689,24,-5,230,0
60700,25,-7,231,0
60711,23,-5,230,0
60722,24,-7,231,0
60733,25,-5,230,0
60744,23,-5,230,0
60755,22,-2,231,0
60766,24,-4,232,0
60777,23,-4,232,0
60788,22,-7,231,0
60799,23,-8,233,0
60810,25,-10,232,0
60821,27,-7,232,0
60832,27,-4,231,0
60843,27,-6,231,0
60854,26,-7,230,0
60865,26,-5,229,0
60877,23,-1,229,0
60888,21,-5,230,0
60898,18,-5,232,0
60910,17,-3,231,0
60920,12,-1,232,0
60931,10,-2,232,0
60942,9,-1,233,0
60953,10,-5,236,0
60964,11,-7,234,0
60975,15,-8,234,0
60986,17,-4,232,0
60997,20,-7,231,0
61008,20,-3,229,0
61019,18,-2,230,0
61030,18,-2,227,0
61041,16,-1,227,0
61052,15,-1,228,0
61063,14,-1,227,0
61074,12,0,226,0
61085,11,1,227,0
61096,10,1,227,0
61107,10,3,229,0
61118,10,2,229,0
61129,11,3,229,0
61140,12,1,229,0
61152,14,1,228,0
61162,14,0,230,0
61173,17,0,230,0
61184,17,-1,228,0
61195,17,1,229,0
61206,18,1,230,0
61217,18,0,232,0
61228,16,0,233,0
61239,16,0,232,0
61250,16,-2,231,0
61261,19,-2,233,0
61272,21,-1,232,0
61283,22,-1,233,0
61294,23,-1,233,0
61305,24,0,231,0
61316,23,0,231,0
61327,22,1,231,0
61338,21,1,232,0
61349,19,3,231,0
61360,18,4,230,0
61371,18,3,230,0
61382,15,4,229,0
61393,11,7,230,0
61404,7,5,231,0
61416,3,4,232,0
61427,1,3,231,0
61437,-2,3,230,0
61448,-2,2,230,0
61459,-4,3,230,0
61470,-7,4,228,0
61481,-2,2,228,0
61492,-2,3,229,0
61503,0,4,230,0
61514,1,3,230,0
61525,1,4,229,0
61536,1,5,230,0
61547,1,6,228,0
61558,1,6,225,0
61569,1,3,227,0
61580,2,3,226,0
61592,1,3,227,0
61602,0,4,229,0
61613,1,4,229,0
61624,0,3,230,0
61635,0,5,229,0
61646,-1,8,227,0
61657,-3,11,228,0
61668,-5,15,228,0
61679,-6,14,228,0
61691,-7,11,229,0
61702,-6,10,228,0
61712,-6,8,228,0
61723,-8,9,228,0
61734,-6,10,230,0
61745,-5,12,228,0
61756,-5,18,230,0
61767,-3,19,233,0
61778,-2,22,235,0
61789,-4,24,236,0
61800,-7,20,236,0
61811,-13,24,233,0
61822,-18,23,233,0
61833,-20,26,234,0
61844,-21,26,232,0
61855,-20,33,230,0
61866,-10,37,229,0
61877,2,35,233,0
61888,-1,-1,260,0
61899,-1,0,261,0
61911,-21,11,254,1
61921,-53,2,264,0
61932,-67,2,280,0
61943,-54,22,287,0
61954,-33,35,311,0
61965,10,45,344,0
61977,31,36,341,0
61988,49,27,328,0
61998,61,25,305,0
62009,66,22,276,0
62020,72,8,245,0
62031,79,0,214,0
62043,81,-8,190,0
62053,78,-16,171,0
62064,78,-18,164,0
62075,76,-19,160,0
62086,69,-18,159,0
62097,71,-19,162,0
62108,73,-13,173,0
62119,73,-6,187,0
62130,76,-5,219,0
62141,77,-4,233,0
62152,76,-4,243,0
62163,75,-4,250,0
62174,69,-10,250,0
62185,61,-14,246,0
62196,54,-16,240,0
62207,46,-13,233,0
62218,38,-10,227,0
62229,35,-6,219,0
62240,33,-10,206,0
62252,33,-8,200,0
62262,30,-10,198,0
62273,26,-4,206,0
62284,20,-1,218,0
62295,15,-8,219,0
62306,14,-8,214,0
62317,12,-9,213,0
62328,8,-15,210,0
62340,4,-17,210,0
62352,-2,-19,208,0
62362,-7,-18,205,0
62373,-11,-16,204,0
62384,-11,-15,208,0
62395,-13,-14,210,0
62406,-10,-13,196,0
62417,-11,-5,196,0
62428,-9,-10,194,0
62439,-7,-14,184,0
62450,-10,-13,189,0
62461,-11,-14,202,0
62472,-16,-7,214,0
62483,-25,-3,222,0
62494,-32,-3,228,0
62505,-37,-4,236,0
62516,-38,-6,246,0
62527,-38,-4,258,0
62538,-37,-4,270,0
62549,-38,-4,273,0
62560,-38,-2,274,0
62571,-42,0,276,0
62582,-48,2,279,0
62593,-52,2,283,0
62604,57,-33,408,0
62616,55,70,410,1
62627,43,0,376,0
62637,62,-33,337,0
62648,80,-34,316,0
62659,117,-9,388,0
62670,102,11,358,0
62681,95,-5,287,0
62692,69,-28,224,0
62703,45,-24,178,0
62714,29,-50,146,0
62725,32,-61,126,0
62736,37,-59,121,0
62747,27,-54,125,0
62758,18,-53,129,0
62769,29,-37,171,0
62780,46,-32,193,0
62792,67,-34,207,0
62802,79,-29,214,0
62813,89,-28,219,0
62824,94,-27,212,0
62835,89,-25,203,0
62846,85,-19,203,0
62857,73,-16,203,0
62868,58,-13,203,0
62879,41,-15,205,0
62891,29,-8,211,0
62902,25,-2,218,0
62912,21,-2,213,0
62923,18,-13,208,0
62934,13,-14,207,0
62945,9,-18,209,0
62956,8,-19,207,0
62967,6,-20,205,0
62978,6,-18,206,0
62989,3,-15,207,0
63000,2,-14,213,0
63011,1,-10,217,0
63022,-1,-6,225,0
63033,-4,-1,234,0
63044,-8,0,237,0
63055,-6,1,230,0
63066,-1,1,226,0
63077,3,5,221,0
63088,8,8,219,0
63099,9,6,223,0
63110,13,2,222,0
63121,17,-3,214,0
63132,17,-7,211,0
63143,12,-11,207,0
63154,8,-9,204,0
63165,4,-8,207,0
63177,-5,-7,208,0
63188,-18,-3,211,0
63198,-28,-2,213,0
63209,-40,4,221,0
63220,-49,6,230,0
63231,-48,8,234,0
63242,-21,6,223,0
63253,-27,-44,305,0
63264,-23,-20,302,0
63276,-31,-19,324,1
63286,-12,-2,340,0
63297,6,5,353,0
63308,15,-23,375,0
63319,28,-24,384,0
63330,48,-14,365,0
63341,74,-1,334,0
63352,107,9,302,0
63363,133,14,266,0
63374,146,9,224,0
63385,158,3,185,0
63397,153,0,161,1
63408,132,-14,131,0
63418,114,-17,143,0
63429,82,-20,152,0
63440,60,-20,162,0
63452,40,-14,188,0
63462,19,-9,207,0
63473,7,-1,225,0
63484,-2,1,239,0
63495,1,-1,251,0
63506,7,-7,249,0
63517,11,-12,245,0
63528,15,-10,235,0
63539,17,-4,227,0
63550,15,2,222,0
63561,19,3,217,0
63572,23,0,210,0
63583,22,-7,201,0
63594,23,-7,203,0
63605,23,-10,205,0
63616,19,-12,210,0
63627,14,-14,219,0
63639,10,-17,227,0
63650,2,-21,233,0
63661,-5,-19,227,0
63672,-12,-17,225,0
63683,-16,-18,221,0
63694,-17,-19,204,0
63706,-19,-13,192,0
63716,-23,-16,193,0
63727,-13,-23,181,0
63738,-11,-21,182,0
63749,-13,-19,191,0
63760,-12,-19,203,0
63771,-10,-5,214,0
63782,-14,12,222,0
63793,-22,24,235,0
63804,-25,25,246,0
63815,-17,24,258,0
63827,-11,10,270,0
63837,-11,1,261,0
63848,-26,9,259,0
63859,-43,8,281,0
63870,-12,-26,329,0
63881,33,-24,409,0
63893,26,-27,354,1
63903,15,-34,314,0
63914,29,-34,290,0
63925,79,-14,365,0
63936,82,-13,360,0
63947,80,-5,299,0
63958,70,-19,237,0
63969,72,-36,190,0
63980,74,-53,167,0
63992,72,-57,138,0
64002,61,-49,136,0
64014,51,-34,148,1
64024,45,-37,156,0
64035,39,-36,163,0
64046,40,-30,173,0
64057,67,-17,193,0
64068,80,-12,207,0
64079,95,-10,218,0
64091,110,-4,232,0
64102,108,-7,222,0
64112,91,-14,216,0
64123,69,-6,215,0
64134,49,0,217,0
64145,29,3,219,0
64156,21,7,218,0
64168,20,2,219,0
64178,25,1,226,0
64189,27,-1,225,0
64200,23,-5,223,0
64211,17,-4,221,0
64222,7,-6,220,0
64233,3,-7,222,0
64244,0,-7,221,0
64255,-1,-6,221,0
64266,-1,-6,220,0
64277,0,-8,223,0
64288,0,-7,224,0
64299,-3,-6,225,0
64310,-9,-1,229,0
64321,-10,0,228,0
64332,-13,2,231,0
64343,-12,2,228,0
64354,-15,4,225,0
64365,-14,5,224,0
64377,-4,5,226,0
64388,0,5,224,0
64398,3,0,221,0
64409,9,-5,215,0
64420,13,-7,213,0
64431,13,-9,214,0
64442,12,-7,216,0
64453,7,-5,214,0
64464,2,-8,216,0
64475,0,-7,209,0
64486,-2,-3,208,0
64497,-9,-2,210,0
64508,-13,0,211,0
64520,-20,7,209,1
64530,-23,11,206,0
64541,16,-6,172,0
64552,1,-4,235,0
64563,-18,-58,250,0
64574,-22,-68,237,0
64586,-19,-24,247,0
64597,-57,-50,335,0
64608,-68,-100,405,0
64619,-72,-55,415,0
64630,-43,5,429,0
64642,38,36,434,0
64652,103,51,409,0
64663,150,52,362,0
64675,181,51,312,1
64685,189,47,268,0
64696,189,5,183,0
64707,176,-12,147,0
64718,150,-20,117,0
64729,122,-33,91,0
64740,104,-50,80,0
64752,87,-58,89,0
64762,81,-56,117,0
64773,82,-52,147,0
64784,77,-44,175,0
64795,77,-43,204,0
64807,76,-50,222,0
64818,73,-40,244,0
64829,65,-36,258,0
64840,53,-27,278,0
64852,43,-14,275,0
64862,36,-11,269,0
64873,25,-1,269,0
64885,12,0,253,0
64895,4,-13,233,0
64906,0,-12,227,0
64917,-5,-20,219,0
64928,-10,-19,211,0
64939,-13,-25,207,0
64950,-7,-34,202,0
64961,-4,-32,192,0
64972,3,-37,187,0
64983,13,-39,189,0
64994,37,-50,199,0
65005,47,-53,199,0
65016,53,-52,199,0
65027,57,-49,198,0
65038,55,-51,198,0
65049,48,-52,198,0
65060,40,-52,202,0
65071,34,-49,207,0
65082,32,-45,210,0
65093,27,-39,215,0
65104,23,-37,224,0
65115,20,-34,225,0
65127,20,-28,227,0
65137,18,-30,225,0
65148,15,-36,229,0
65159,18,-31,229,0
65170,24,-26,229,0
65181,27,-24,230,0
65193,27,-34,231,0
65204,24,-46,230,0
65215,20,-52,232,0
65227,14,-49,232,0
65237,6,-41,232,0
65249,-5,-40,226,0
65260,-19,-45,231,0
65270,-28,-53,239,0
65281,-33,-60,236,0
65292,-23,-53,229,0
65303,22,14,293,0
65314,-4,-12,236,0
65326,15,-33,188,1
65336,59,-40,200,0
65347,105,-5,286,0
65358,98,25,373,0
65369,87,32,388,0
65380,93,-9,364,0
65392,70,-43,278,0
65402,55,-56,208,0
65413,44,-57,182,0
65424,40,-58,192,0
65435,44,-45,196,0
65446,43,-21,192,0
65457,39,-2,195,0
65468,56,14,197,0
65479,62,17,192,0
65491,63,18,195,0
65502,67,17,205,0
65512,71,20,209,0
65523,76,21,214,0
65534,79,21,215,0
65545,78,21,216,0
65556,74,25,216,0
65567,68,25,216,0
65578,65,27,216,0
65589,63,26,219,0
65600,62,25,226,0
65611,61,27,232,0
65622,60,27,238,0
65633,53,21,243,0
65644,51,18,243,0
65655,48,20,242,0
65666,44,22,233,0
65677,42,25,230,0
65688,42,23,228,0
65699,42,21,222,0
65710,44,19,221,0
65721,47,21,220,0
65732,50,23,220,0
65743,54,22,222,0
65754,56,22,222,0
65765,59,20,222,0
65777,59,20,225,0
65788,60,22,224,0
65798,59,23,224,0
65809,59,25,224,0
65820,59,26,229,0
65831,57,26,229,0
65842,57,25,233,0
65853,58,26,233,0
65864,59,26,232,0
65875,59,24,230,0
65886,58,27,230,0
65897,59,27,228,0
65908,57,19,224,0
65919,55,20,226,0
65930,50,17,228,0
65942,49,12,225,0
65952,46,13,225,0
65963,46,13,225,0
65974,46,14,228,0
65985,47,15,229,0
65996,48,16,228,0
66007,48,16,227,0
66018,46,17,227,0
66029,45,12,234,0
66041,46,13,236,0
66052,45,16,232,0
66063,43,19,233,0
66074,43,19,233,0
66085,45,19,233,0
66096,47,19,229,0
66107,47,18,228,0
66118,46,16,229,0
66129,48,14,228,0
66140,49,14,227,0
66152,47,14,228,0
66162,47,14,230,0
66173,47,14,227,0
66184,45,14,228,0
66195,44,13,229,0
66206,43,13,232,0
66217,44,14,228,0
66228,41,16,229,0
66239,39,14,233,0
66250,37,17,232,0
66261,36,16,234,0
66272,38,15,231,0
66284,37,16,232,0
66294,37,15,231,0
66305,37,15,231,0
66316,37,15,229,0
66327,36,16,230,0
66339,34,18,232,0
66349,35,18,233,0
66360,34,17,233,0
66371,34,16,230,0
66382,30,10,230,0
66393,30,9,233,0
66404,30,12,231,0
66416,30,12,231,0
66427,27,16,231,0
66437,26,17,230,0
66448,24,16,228,0
66459,21,14,228,0
66470,19,12,228,0
66481,20,11,229,0
66492,19,11,231,0
66503,22,8,229,0
66514,25,8,229,0
66525,28,11,232,0
66536,28,16,230,0
66547,30,21,227,0
66558,29,20,227,0
66569,29,17,227,0
66581,35,12,227,0
66592,40,10,229,0
66602,43,9,230,0
66613,48,9,230,0
66624,48,10,229,0
66635,47,12,228,0
66646,44,14,227,0
66657,40,12,228,0
66668,39,11,228,0
66679,35,10,233,0
66691,34,8,233,0
66702,37,12,234,0
66712,38,15,235,0
66723,38,22,234,0
66734,40,25,232,0
66745,48,20,231,0
66756,50,17,229,0
66767,55,12,228,0
66778,54,8,229,0
66789,52,4,226,0
66800,52,2,226,0
66811,53,4,224,0
66822,50,5,226,0
66833,45,7,229,0
66844,41,7,230,0
66855,42,4,230,0
66866,44,9,231,0
66877,45,13,231,0
66888,49,14,233,0
66899,51,16,233,0
66911,58,11,232,0
66921,58,10,228,0
66932,56,6,227,0
66943,56,4,228,0
66954,52,5,231,0
66965,46,5,232,0
66977,43,6,234,0
66988,37,9,233,0
66998,34,8,231,0
67009,34,4,232,0
67020,35,1,230,0
67031,39,-1,227,0
67042,44,-1,225,0
67053,49,-4,223,0
67064,50,-2,221,0
67075,51,0,229,0
67086,48,2,233,0
67097,41,4,237,0
67108,33,4,240,0
67119,23,5,241,0
67130,19,9,241,0
67141,13,8,236,0
67152,8,5,234,0
67163,13,9,235,0
67174,22,9,233,0
67185,29,10,227,0
67196,36,8,228,0
67207,44,6,224,0
67218,51,9,220,0
67229,53,13,223,0
67240,48,14,226,0
67252,44,22,228,0
67262,42,22,232,0
67273,41,23,231,0
67284,39,26,235,0
67295,38,25,237,0
67306,38,27,233,0
67317,34,29,229,0
67328,31,27,228,0
67339,29,26,227,0
67350,25,24,230,0
67361,21,21,231,0
67372,17,23,234,0
67383,13,27,233,0
67394,8,26,232,0
67405,1,29,230,0
67417,0,29,230,0
67427,1,28,231,0
67438,2,25,232,0
67449,5,20,232,0
67460,7,21,232,0
67471,9,18,230,0
67482,10,19,226,0
67493,13,17,226,0
67504,17,17,226,0
67515,22,18,225,0
67527,30,18,226,0
67537,36,17,227,0
67548,40,20,225,0
67559,47,20,224,0
67570,50,24,224,0
67582,51,26,223,0
67592,48,28,225,0
67603,44,32,227,0
67614,40,35,226,0
67625,35,37,227,0
67636,31,38,227,0
67647,27,39,225,0
67658,24,39,224,0
67669,24,37,224,0
67680,22,34,223,0
67692,19,32,221,0
67702,20,35,219,0
67713,16,37,219,0
67724,14,46,217,0
67735,11,48,217,0
67746,5,52,213,0
67757,1,58,211,0
67768,0,63,208,0
67779,0,64,209,0
67791,1,64,213,0
67802,0,60,212,0
67812,-5,52,210,0
67824,-8,54,205,1
67834,-3,45,192,0
67845,24,21,175,0
67856,25,-27,204,0
67867,48,-12,206,0
67878,45,0,196,0
67889,47,30,257,0
67900,46,44,290,0
67911,75,54,322,0
67922,109,104,348,0
67933,128,125,375,0
67945,150,125,383,1
67955,158,96,379,0
67966,155,65,356,0
67977,146,32,329,0
67989,127,-17,300,0
67999,113,-17,246,0
68010,82,-18,201,0
68021,47,-33,190,0
68032,13,-52,193,0
68043,-5,-49,196,0
68055,-30,-15,210,0
68066,-36,-7,218,0
68077,-27,-5,224,0
68089,-3,-4,219,0
68099,23,-3,210,0
68110,50,-3,204,0
68121,69,-7,202,0
68132,83,-8,203,0
68143,84,-11,200,0
68154,80,-9,201,0
68167,74,-9,201,0
68177,71,-10,203,0
68189,56,-4,203,0
68199,49,-1,203,0
68210,48,-1,202,0
68221,46,-1,202,0
68232,42,-3,205,0
68243,38,-5,210,0
68255,34,-5,217,0
68265,28,-3,221,0
68277,23,-3,222,0
68287,19,-1,226,0
68298,14,-1,225,0
68309,9,2,226,0
68321,0,4,222,0
68332,-8,7,220,0
68343,-14,7,213,0
68354,-15,8,214,0
68365,-15,7,211,0
68377,-11,8,210,0
68387,-6,9,212,0
68398,-1,11,214,0
68409,2,5,216,0
68420,7,2,217,0
68431,9,8,214,0
68442,7,11,215,0
68453,6,8,221,0
68464,7,3,235,0
68475,6,1,241,0
68486,2,9,247,0
68497,-10,18,254,0
68508,-14,18,256,0
68519,-25,20,252,0
68530,-32,19,250,0
68541,-33,13,251,0
68553,19,-24,291,1
68564,87,23,406,0
68575,38,66,379,0
68586,49,11,365,0
68597,65,2,319,0
68608,80,-3,309,0
68619,108,2,387,0
68630,86,-2,362,0
68641,56,-64,217,0
68652,46,-65,175,0
68663,43,-71,142,0
68674,44,-70,121,0
68685,48,-67,121,0
68696,47,-45,132,0
68707,39,-27,147,0
68718,35,-12,167,0
68729,39,-5,180,0
68740,48,-3,189,0
68752,62,-2,196,0
68762,76,0,204,0
68773,90,0,210,0
68784,99,1,215,0
68795,99,-2,210,0
68806,77,-11,196,0
68817,65,-13,199,0
68828,57,-8,203,0
68839,50,-2,209,0
68851,47,-2,215,0
68861,42,-2,219,0
68872,33,-3,214,0
68883,30,-3,219,0
68894,35,-3,216,0
68905,35,-2,213,0
68917,33,-3,209,0
68928,31,-4,207,0
68939,30,-2,209,0
68950,36,-2,210,0
68961,40,3,215,0
68972,39,8,221,0
68983,39,11,225,0
68994,35,12,225,0
69005,28,14,228,0
69016,19,16,231,0
69027,15,17,231,0
69038,10,20,233,0
69049,7,21,232,0
69060,5,16,226,0
69071,5,12,221,0
69082,6,7,220,0
69093,5,4,220,0
69104,7,0,224,0
69115,14,3,240,0
69127,15,5,248,0
69137,10,12,252,0
69148,6,21,254,0
69159,0,33,255,0
69170,-14,35,251,0
69182,-31,32,242,0
69192,-49,24,230,0
69203,-48,20,214,0
69214,-11,39,216,0
69226,-11,-6,274,1
69236,2,-27,300,0
69247,1,-10,307,0
69258,6,-8,321,0
69269,28,33,322,0
69280,59,2,335,0
69292,62,-14,308,0
69302,79,-18,271,0
69313,106,-15,249,0
69324,130,-19,224,0
69335,160,-17,210,0
69346,176,0,218,0
69357,174,3,206,0
69368,149,2,185,0
69380,116,2,183,0
69391,84,2,191,0
69402,56,-5,208,0
69412,21,-5,220,0
69423,-4,0,234,0
69434,-23,3,243,0
69445,-30,0,237,0
69456,-25,-1,229,0
69467,-16,-2,218,0
69478,-2,0,215,0
69489,6,9,211,0
69500,11,12,204,0
69511,15,8,199,0
69522,22,2,201,0
69533,28,-1,205,0
69544,36,-2,206,0
69555,41,-5,203,0
69566,43,-7,206,0
69577,50,-10,201,0
69589,44,-10,195,0
69599,39,-15,201,0
69610,18,-17,208,0
69621,3,-16,211,0
69632,-11,-20,215,0
69643,-20,-6,217,0
69654,-33,-4,215,0
69665,-35,-13,219,0
69678,-18,-19,184,0
69689,-22,15,168,0
69699,-25,7,181,0
69710,-13,-12,193,0
69721,-1,-11,198,0
69732,-2,3,208,0
69743,-9,11,224,0
69754,-16,12,256,0
69767,-21,8,272,0
69777,-23,6,288,0
69789,-25,8,294,0
69799,-32,8,293,0
69810,-46,12,285,0
69821,-54,7,286,0
69832,-16,-18,314,0
69843,64,12,447,0
69854,33,85,397,0
69866,29,15,362,1
69877,44,-29,292,0
69887,70,-35,261,0
69898,112,-32,352,0
69909,102,-45,275,0
69920,79,-69,224,0
69931,69,-45,194,0
69942,71,-53,171,0
69953,74,-54,147,0
69964,68,-51,130,0
69975,53,-41,130,0
69986,41,-30,150,0
69997,37,-21,162,0
70008,40,-16,175,0
70019,56,-18,189,0
70030,69,-13,201,0
70041,79,-16,211,0
70052,87,-19,217,0
70063,87,-21,214,0
70074,78,-13,208,0
70085,62,-10,205,0
70096,46,-1,214,0
70107,34,5,220,0
70118,21,2,222,0
70129,8,5,220,0
70140,2,2,222,0
70152,0,1,223,0
70162,1,-8,216,0
70173,-1,-5,213,0
70184,-3,-4,211,0
70195,0,-5,211,0
70206,2,-4,207,0
70217,5,-6,212,0
70228,8,-3,221,0
70239,8,-5,223,0
70250,5,-2,222,0
70261,6,-1,225,0
70272,8,2,225,0
70283,9,6,229,0
70294,12,9,231,0
70305,13,13,231,0
70316,12,10,229,0
70327,14,1,224,0
70339,16,-2,221,0
70350,18,-7,217,0
70361,15,-12,215,0
70372,15,-16,215,0
70383,16,-25,212,0
70394,18,-22,212,0
70405,15,-16,216,0
70417,13,-9,222,0
70427,7,-2,227,0
70438,1,0,232,0
70449,-5,0,239,0
70460,-17,-1,241,0
70471,-30,0,238,0
70482,-37,3,232,0
70493,-8,10,217,0
70504,-3,6,278,0
70516,-23,-60,296,1
70527,-24,-34,282,0
70537,-34,-15,269,0
70548,-15,-9,295,0
70559,-2,-44,301,0
70570,16,-49,304,0
70582,40,-38,303,0
70592,69,-14,298,0
70603,101,8,283,0
70614,125,18,264,0
70625,142,18,237,0
70636,154,11,209,0
70647,158,6,188,0
70658,154,-1,174,0
70669,142,-7,166,0
70680,125,-11,170,0
70692,98,-11,181,0
70702,62,-5,193,0
70713,2,-3,235,0
70724,-16,4,263,0
70735,-24,8,282,0
70746,-28,2,286,0
70757,-25,-6,279,0
70768,-12,-4,262,0
70779,-2,-6,242,0
70791,1,-5,223,0
70802,5,0,212,0
70812,7,0,204,0
70823,11,-1,200,0
70834,17,-2,200,0
70845,20,-5,200,0
70856,24,-6,201,0
70867,27,-11,197,0
70878,27,-10,198,0
70889,23,-10,201,0
70900,19,-10,205,0
70911,13,-10,205,0
70922,4,-10,206,0
70933,1,-10,207,0
70944,-4,-12,204,0
70955,-8,-13,202,0
70966,-10,-16,197,0
70977,-9,-18,197,0
70989,-6,-20,200,0
70999,-5,-20,197,0
71010,-7,-13,202,0
71021,-11,-8,206,0
71032,-20,-3,218,0
71043,-21,-3,225,0
71054,-20,4,235,0
71065,-27,19,254,0
71077,-30,8,271,0
71087,-25,1,268,0
71098,-16,3,261,0
71109,-6,-10,265,0
71120,2,-20,273,0
71131,9,-15,266,0
71142,8,-5,254,0
71153,1,-12,247,0
71164,-8,-26,243,0
71175,-18,-33,244,0
71186,-34,-36,248,0
71197,21,-42,281,0
71208,48,47,380,0
71220,12,31,329,1
71230,50,-24,285,0
71241,75,-38,280,0
71252,72,-30,246,0
71263,114,13,304,0
71274,96,33,350,0
71285,92,31,328,0
71296,87,27,308,0
71307,64,2,254,0
71318,47,-13,201,0
71329,38,-41,173,0
71340,27,-49,149,0
71352,25,-47,139,0
71362,32,-19,146,0
71373,41,-2,159,0
71384,54,13,179,0
71395,70,14,209,0
71406,83,14,223,0
71417,88,18,230,0
71428,95,19,228,0
71439,108,14,219,0
71450,110,10,210,0
71461,103,5,200,0
71472,86,4,198,0
71483,67,1,193,0
71494,52,-2,199,0
71505,41,-2,211,0
71516,33,1,218,0
71527,26,2,231,0
71538,20,1,236,0
71549,18,-2,238,0
71560,16,-1,232,0
71571,9,0,227,0
71582,4,-1,227,0
71593,5,-1,221,0
71604,7,0,219,0
71615,10,0,215,0
71627,14,-3,214,0
71637,17,1,216,0
71648,19,4,218,0
71659,21,5,221,0
71670,20,8,225,0
71682,11,12,230,0
71692,7,10,231,0
71704,6,11,232,0
71714,5,11,230,0
71725,7,13,230,0
71736,12,9,229,0
71747,16,8,225,0
71758,21,9,222,0
71769,24,6,221,0
71780,27,4,222,0
71792,30,2,226,0
71802,30,1,229,0
71813,28,-4,232,0
71824,26,-8,234,0
71835,27,-6,234,0
71846,24,0,226,0
71857,17,-5,224,0
71868,6,-6,219,0
71879,-6,-1,212,0
71891,-18,7,211,1
71902,-15,23,208,0
71912,15,59,229,0
71923,43,29,279,0
71934,65,-21,321,0
71945,61,-16,319,0
71956,29,9,323,0
71967,8,0,335,0
71978,5,-7,329,0
71991,15,18,313,0
72002,50,38,277,0
72013,81,28,251,1
72023,111,18,221,0
72034,132,7,183,0
72045,139,-2,147,0
72056,137,-17,123,0
72067,130,-22,118,0
72078,116,-19,124,0
72089,95,-20,142,0
72100,75,-16,183,0
72111,59,-7,212,0
72122,36,1,243,0
72133,8,12,271,0
72144,-14,3,291,0
72155,-11,-6,292,0
72166,-7,-2,285,0
72177,-4,7,277,0
72189,-1,26,279,0
72199,10,30,265,0
72210,22,22,243,0
72221,28,16,222,0
72232,34,13,220,0
72243,35,11,215,0
72254,34,11,215,0
72265,32,14,213,0
72277,29,17,217,0
72287,29,20,221,0
72298,29,24,227,0
72309,28,25,230,0
72320,26,24,224,0
72331,24,23,220,0
72342,24,22,217,0
72353,28,24,215,0
72364,32,20,217,0
72375,37,21,218,0
72386,42,20,222,0
72397,50,24,227,0
72408,56,34,235,0
72419,58,35,238,0
72430,61,37,241,0
72441,62,30,241,0
72452,65,20,243,0
72463,67,19,238,0
72474,64,22,233,0
72485,53,11,213,0
72496,28,22,205,0
72507,16,15,205,0
72518,9,13,199,0
72529,-7,22,195,0
72540,-12,23,203,0
72552,-14,33,213,0
72562,-19,42,220,0
72573,-18,46,229,0
72584,-15,56,241,0
72595,-13,60,257,0
72606,-11,65,274,0
72617,-14,69,284,0
72629,-16,67,284,1
72639,-24,67,273,0
72650,-35,60,246,0
72661,0,44,265,0
72672,44,60,319,0
72683,36,121,297,0
72694,72,75,296,0
72705,95,28,288,0
72716,102,34,310,0
72727,113,16,290,0
72738,100,-19,260,0
72749,94,-65,214,0
72760,88,-91,188,0
72771,76,-96,166,0
72782,67,-90,157,0
72793,69,-80,159,0
72804,73,-62,177,0
72815,81,-36,202,0
72827,81,-24,210,0
72837,75,-15,219,0
72848,64,-17,225,0
72859,44,-14,237,0
72870,25,-14,241,0
72882,10,-18,228,0
72892,-1,-18,215,0
72903,-2,-13,206,0
72914,0,-14,203,0
72925,0,-10,201,0
72936,5,-1,208,0
72947,16,-1,210,0
72958,32,2,214,0
72969,50,1,208,0
72980,62,1,210,0
72992,63,3,212,0
73002,59,2,214,0
73013,52,0,226,0
73024,42,1,231,0
73035,35,1,238,0
73046,27,0,237,0
73057,25,-2,235,0
73068,23,-3,231,0
73079,20,-3,226,0
73091,17,-3,222,0
73102,16,-4,221,0
73112,22,-3,223,0
73123,25,1,222,0
73134,28,4,224,0
73145,26,18,231,0
73156,21,19,239,0
73167,18,18,243,0
73178,16,20,243,0
73189,14,22,236,0
73200,10,18,229,0
73211,9,12,222,0
73222,9,9,218,0
73233,6,10,213,0
73244,5,19,210,0
73255,5,22,215,0
73266,6,31,217,0
73277,4,39,217,0
73289,-3,45,221,0
73299,-15,35,233,0
73310,-18,36,239,0
73321,-17,33,238,0
73332,13,27,228,0
73343,3,-2,291,0
73355,1,-5,309,1
73365,-10,15,296,0
73377,-22,4,298,0
73387,-20,11,304,0
73398,3,23,302,0
73409,28,11,310,0
73420,44,3,321,0
73431,60,4,322,0
73442,64,1,319,0
73453,66,-2,305,0
73464,81,0,256,0
73475,93,-8,227,0
73486,100,-22,206,0
73497,107,-31,184,0
73508,112,-26,172,0
73519,117,-22,177,0
73530,111,-23,175,0
73541,99,-24,178,0
73552,90,-32,190,0
73563,80,-35,201,0
73574,74,-37,215,0
73585,65,-31,227,0
73596,59,-21,235,0
73607,54,-13,245,0
73618,50,-11,241,0
73629,45,-15,230,0
73640,41,-12,223,0
73652,35,-6,217,0
73662,23,-2,212,0
73673,15,-2,214,0
73684,15,1,222,0
73695,13,0,219,0
73706,16,-7,212,0
73717,22,-8,214,0
73728,23,-2,215,0
73739,28,0,218,0
73750,31,-2,211,0
73761,33,-2,205,0
73772,34,-1,204,0
73783,33,-5,201,0
73794,28,-12,201,0
73805,20,-11,197,0
73817,10,-9,195,0
73827,5,-14,192,0
73838,1,-14,191,0
73849,0,-14,191,0
73860,-3,-12,192,0
73871,-8,-9,195,0
73882,-13,-7,201,0
73893,-12,-5,210,0
73904,-13,-7,219,0
73916,-10,-8,221,0
73927,-8,1,223,0
73937,-13,8,229,0
73948,-18,10,241,0
73959,-26,1,257,0
73970,-28,-4,259,0
73982,-32,-9,263,0
73992,-40,-6,267,0
74003,-50,-6,270,0
74015,-58,-7,272,1
74025,-62,-6,272,0
74036,-38,-15,287,0
74047,45,-14,398,0
74058,65,27,411,0
74069,91,13,411,0
74080,96,0,371,0
74092,60,-12,307,0
74102,66,-39,303,0
74113,53,-21,270,0
74124,24,-40,229,0
74135,-1,-50,185,0
74146,4,-48,164,0
74157,19,-57,150,0
74169,35,-45,147,0
74179,40,-33,146,0
74191,46,-32,144,0
74202,53,-31,159,0
74212,58,-24,180,0
74223,62,-18,195,0
74234,65,-13,213,0
74245,67,-14,217,0
74256,73,-19,218,0
74267,77,-20,216,0
74278,72,-17,208,0
74289,66,-16,207,0
74300,58,-9,206,0
74311,59,-8,208,0
74322,59,-12,208,0
74333,49,-16,205,0
74344,40,-18,209,0
74355,38,-16,215,0
74366,28,-4,220,0
74377,27,-5,222,0
74389,18,-4,219,0
74399,15,-3,218,0
74410,11,-1,214,0
74421,8,1,213,0
74432,4,4,215,0
74443,-2,8,231,0
74454,-4,7,236,0
74465,-12,2,233,0
74477,-14,1,235,0
74487,-13,-2,236,0
74498,-12,0,232,0
74509,-9,-2,225,0
74521,-2,-1,223,0
74531,1,-3,224,0
74542,3,-4,222,0
74553,3,-7,220,0
74564,5,-8,219,0
74575,10,-9,215,0
74586,14,-9,214,0
74599,11,-12,213,0
74609,7,-11,209,0
74620,3,-10,209,0
74631,-2,-7,214,0
74642,-7,-4,221,0
74653,-13,-2,227,0
74664,-16,-3,226,0
74675,-26,-2,228,0
74686,-36,-7,229,0
74697,-42,-7,231,0
74708,-54,-6,231,0
74719,-60,-3,229,0
74731,-30,1,205,1
74741,-17,12,249,0
74752,-14,-32,278,0
74763,-24,-12,257,0
74774,-18,-17,274,0
74785,-12,8,306,0
74796,-1,-14,310,0
74807,20,-28,319,0
74818,48,-24,331,0
74830,85,-10,326,0
74840,116,7,314,0
74852,129,19,285,0
74862,143,13,244,0
74873,155,7,209,0
74884,159,12,192,0
74895,149,14,176,0
74906,135,8,166,0
74917,96,-14,183,0
74928,70,-14,199,0
74939,37,-9,208,0
74950,14,-4,223,0
74961,4,7,251,0
74972,-6,15,262,0
74983,-6,15,262,0
74994,0,14,260,0
75005,3,13,254,0
75016,3,13,246,0
75027,3,15,237,0
75038,3,12,228,0
75050,1,6,221,0
75060,4,1,215,0
75071,12,-8,202,0
75082,17,-9,203,0
75093,19,-11,200,0
75104,26,-11,203,0
75115,28,-10,205,0
75127,26,-15,207,0
75137,22,-14,211,0
75148,15,-13,216,0
75159,5,-11,218,0
75170,-4,-12,218,0
75182,-13,-14,215,0
75193,-18,-13,211,0
75203,-20,-14,203,0
75214,-19,-15,197,0
75225,-17,-13,193,0
75236,-3,-12,168,0
75247,-1,-8,175,0
75258,2,-9,187,0
75269,9,-9,201,0
75280,13,-12,219,0
75292,12,-2,225,0
75303,7,3,230,0
75314,4,5,241,0
75325,-2,11,259,0
75336,-15,10,273,0
75347,-28,5,270,0
75358,-38,2,265,0
75369,-45,0,269,0
75380,-50,-4,273,0
75392,-20,-30,288,0
75402,60,-44,402,0
75414,68,23,422,1
75424,67,18,386,0
75435,81,-35,331,0
75446,106,-56,348,0
75457,105,-17,354,0
75468,80,-3,298,0
75479,49,-23,237,0
75491,27,-20,208,0
75502,4,34,125,0
75512,17,-177,193,0
75523,33,-32,132,0
75534,50,-59,135,0
75545,67,-30,151,0
75556,69,-26,164,0
75567,75,-27,184,0
75578,85,-28,196,0
75589,91,-26,201,0
75600,101,-33,201,0
75611,109,-31,201,0
75622,114,-30,206,0
75633,115,-27,209,0
75644,103,-23,204,0
75655,94,-15,202,0
75666,85,-8,198,0
75677,70,-9,199,0
75689,57,-8,202,0
75699,40,-7,209,0
75710,37,-4,224,0
75721,38,-4,230,0
75732,29,-3,227,0
75743,23,-4,228,0
75754,16,-1,227,0
75765,10,-5,220,0
75777,6,-7,217,0
75787,7,-11,211,0
75798,4,-9,214,0
75809,4,-5,217,0
75820,3,-3,222,0
75831,6,-4,231,0
75842,6,-1,233,0
75853,10,-1,238,0
75864,15,0,239,0
75875,20,-5,231,0
75886,20,-9,230,0
75897,20,-14,228,0
75908,16,-17,226,0
75919,13,-15,224,0
75930,10,-16,221,0
75941,7,-15,221,0
75952,5,-16,218,0
75963,4,-15,218,0
75974,3,-9,219,0
75985,0,-11,223,0
75996,-2,-9,223,0
76007,-1,-9,225,0
76018,0,-6,228,0
76029,-7,-10,234,0
76040,-11,-12,233,0
76052,-17,-12,232,0
76062,-26,-10,233,0
76073,-33,-8,232,0
76084,-31,-2,228,0
76095,-5,1,222,0
76106,-26,-46,258,0
76118,-28,-70,264,1
76128,-13,-23,247,0
76139,-1,8,230,0
76150,-8,-17,261,0
76161,-8,-61,303,0
76172,11,-60,306,0
76183,21,-28,309,0
76194,80,6,332,0
76205,110,32,324,0
76216,131,43,301,0
76227,150,33,260,0
76238,161,20,214,0
76249,164,6,181,0
76260,160,-3,154,0
76271,145,-15,148,0
76282,124,-23,152,0
76293,98,-20,168,0
76304,75,-7,185,0
76315,50,4,218,0
76327,18,2,235,0
76337,5,7,256,0
76348,1,7,269,0
76359,7,-3,274,0
76370,15,-12,257,0
76382,20,-10,239,0
76392,23,-6,235,0
76403,23,-8,221,0
76414,20,-6,203,0
76425,20,-3,195,0
76436,20,1,193,0
76447,21,2,194,0
76458,19,1,193,0
76469,18,1,193,0
76480,12,-4,193,0
76492,9,-7,193,0
76502,6,-4,193,0
76513,0,-4,196,0
76524,-10,-10,205,0
76535,-15,-12,212,0
76546,-19,-13,211,0
76557,-24,-16,207,0
76568,-26,-22,205,0
76579,-28,-22,202,0
76591,-26,-26,200,0
76602,-24,-27,202,0
76612,-21,-30,210,0
76623,-18,-33,216,0
76634,-17,-29,223,0
76645,-19,-22,230,0
76656,-23,-19,234,0
76667,-24,-24,236,0
76678,-31,-5,238,0
76689,-46,-12,253,0
76700,-49,-17,255,0
76711,-50,-20,244,0
76722,-45,-33,236,0
76733,-32,-45,239,0
76744,-23,-50,249,0
76755,-19,-48,269,0
76766,-23,-48,281,0
76777,-18,-43,285,0
76789,27,-49,341,0
76800,55,-24,378,1
76810,58,-15,332,0
76821,57,-32,318,0
76832,28,-41,293,0
76843,78,-12,321,0
76854,68,-11,295,0
76865,52,-18,259,0
76877,33,-20,234,0
76887,30,-17,221,0
76898,35,-39,199,0
76910,34,-49,178,0
76921,42,-41,164,0
76931,48,-35,159,0
76942,58,-31,164,0
76953,65,-38,169,0
76964,70,-25,175,0
76975,74,-18,189,0
76986,81,-15,197,0
76997,93,-12,207,0
77008,103,-8,213,0
77019,102,-5,220,0
77030,93,-2,221,0
77041,83,-1,217,0
77052,73,0,212,0
77063,65,2,212,0
77074,55,1,212,0
77085,47,1,215,0
77096,39,2,213,0
77107,38,6,218,0
77118,36,9,224,0
77129,25,9,223,0
77140,13,6,221,0
77152,3,7,222,0
77162,-5,5,217,0
77173,-14,2,223,0
77184,-12,1,222,0
77195,-9,3,222,0
77206,-7,2,223,0
77217,-2,2,224,0
77228,0,1,226,0
77239,2,0,226,0
77250,5,-2,227,0
77261,4,-5,224,0
77272,-4,-8,217,0
77283,-4,-12,217,0
77294,-10,-11,218,0
77305,-11,-14,222,0
77316,-11,-15,219,0
77327,-7,-18,219,0
77338,-9,-5,219,0
77349,-10,-5,216,0
77360,-14,-2,218,0
77371,-15,3,220,0
77382,-19,8,221,0
77393,-25,12,219,0
77404,-27,12,216,0
77416,-26,8,216,0
77427,-26,12,222,0
77438,-24,13,223,0
77449,-22,3,230,0
77460,-22,2,232,0
77471,-23,3,235,0
77482,-29,4,247,0
77493,-39,3,250,0
77504,-47,-3,244,0
77516,-43,-5,242,0
77527,19,5,209,0
77538,-32,-42,295,0
77549,-28,-90,283,0
77560,-1,-15,255,0
77572,-20,-15,262,1
77582,-23,-30,301,0
77593,-8,-36,318,0
77604,5,-14,317,0
77615,37,-1,320,0
77627,78,18,318,0
77637,115,46,272,0
77648,127,42,243,0
77659,136,27,199,0
77670,142,18,165,0
77682,138,16,146,0
77692,115,5,129,0
77703,90,-8,140,0
77714,72,-7,174,0
77725,52,-9,198,0
77736,31,-3,222,0
77747,9,9,245,0
77758,-6,8,268,0
77769,-5,0,282,0
77780,-2,2,282,0
77792,2,8,259,0
77802,4,4,247,0
77813,6,6,232,0
77824,12,3,224,0
77835,14,2,216,0
77846,15,4,213,0
77857,14,-1,204,0
77868,19,-7,199,0
77879,22,-10,202,0
77891,18,-13,195,0
77902,21,-18,195,0
77914,19,-8,204,0
77924,17,-10,200,0
77935,15,-9,205,0
77946,13,-12,213,0
77957,12,-11,212,0
77968,11,-11,207,0
77979,9,-9,201,0
77991,4,-8,198,0
78002,-7,-8,196,0
78012,-10,-10,199,0
78023,-12,-9,198,0
78034,-14,-8,202,0
78045,-15,-3,210,0
78056,-19,-1,220,0
78067,-23,0,229,0
78078,-25,0,234,0
78089,-26,0,235,0
78100,-27,6,236,0
78111,-38,8,249,0
78122,-39,-2,253,0
78133,-36,-12,251,0
78144,-32,-12,254,0
78155,-29,-10,258,0
78166,-27,-7,260,0
78178,-30,-10,262,1
78189,-15,-21,273,0
78199,46,-27,363,0
78210,47,40,380,0
78221,41,14,364,0
78232,49,-27,346,0
78243,35,-17,309,0
78254,60,-14,337,0
78265,75,9,364,0
78277,38,-19,254,0
78287,22,-25,206,0
78298,19,-40,171,0
78309,18,-47,148,0
78320,28,-49,138,0
78331,37,-40,142,0
78343,43,-30,146,0
78354,47,-28,150,0
78365,53,-28,161,0
78377,58,-22,181,0
78388,66,-17,202,0
78398,70,-14,213,0
78409,70,-15,217,0
78420,75,-19,218,0
78431,73,-19,219,0
78442,65,-18,216,0
78453,56,-16,212,0
78464,46,-11,208,0
78475,41,-15,206,0
78486,35,-17,207,0
78497,28,-9,213,0
78508,31,-9,216,0
78519,30,-5,219,0
78530,24,-1,221,0
78542,26,-6,221,0
78552,24,-8,222,0
78563,18,-4,218,0
78574,15,-2,216,0
78585,6,-5,208,0
78596,1,-5,211,0
78607,-1,-2,217,0
78618,-6,0,223,0
78629,-10,1,232,0
78640,-15,2,236,0
78652,-14,2,236,0
78662,-10,3,232,0
78673,-10,3,228,0
78684,-5,1,225,0
78695,-1,-1,224,0
78706,0,-3,220,0
78717,-2,-5,215,0
78728,5,-10,218,0
78739,6,-14,211,0
78750,4,-15,210,0
78761,3,-18,214,0
78772,4,-19,216,0
78783,4,-16,218,0
78794,5,-11,222,0
78805,2,-4,229,0
78816,2,0,235,0
78827,3,5,239,0
78838,1,11,240,0
78850,-6,10,239,1
78860,-18,8,235,0
78871,-20,8,229,0
78882,6,23,212,0
78893,-1,2,268,0
78904,2,-25,281,0
78916,-20,-25,275,0
78927,-21,-7,285,0
78937,-20,19,290,0
78948,-16,-11,292,0
78959,-1,-27,295,0
78970,28,-23,296,0
78982,61,-7,292,0
78992,88,2,289,0
79003,108,4,269,0
79014,120,3,241,0
79025,131,-1,208,0
79036,135,-10,180,0
79047,131,-13,158,0
79058,127,-18,149,0
79069,97,-22,164,0
79080,82,-19,178,0
79092,68,-22,193,0
79102,54,-22,208,0
79113,46,-12,226,0
79124,34,3,243,0
79135,26,11,258,0
79146,19,18,284,0
79157,19,17,288,0
79168,23,17,287,0
79179,27,15,278,0
79191,29,13,262,0
79202,31,9,243,0
79212,26,4,226,0
79223,19,2,216,0
79234,11,3,216,0
79245,11,4,221,0
79256,14,5,224,0
79267,17,7,226,0
79278,15,3,225,0
79291,14,1,223,0
79302,10,-1,220,0
79312,6,-1,220,0
79323,2,-3,212,0
79334,-4,-6,208,0
79345,-12,-6,207,0
79356,-14,-1,207,0
79367,-16,0,206,0
79378,-23,-6,199,0
79389,-18,-16,194,0
79400,-15,-20,189,0
79411,-10,-17,187,0
79422,-5,-6,192,0
79433,-9,-3,199,0
79444,-13,-1,217,0
79455,-15,-6,226,0
79466,-13,-1,227,0
79477,-14,12,226,0
79489,-26,22,240,0
79499,-28,12,254,0
79510,-25,2,259,0
79521,-20,-3,260,0
79532,-16,0,261,0
79543,-16,-2,264,0
79554,44,-15,337,0
79566,63,41,395,1
79577,42,38,367,0
79587,53,-13,361,0
79598,41,-10,313,0
79609,44,-13,302,0
79620,63,-3,349,0
79631,41,2,332,0
79642,19,-4,273,0
79653,11,-36,224,0
79664,7,-46,192,0
79675,12,-57,166,0
79686,14,-64,146,0
79697,19,-66,144,0
79708,42,-50,156,0
79719,57,-38,167,0
79730,67,-23,176,0
79741,75,-6,190,0
79752,78,5,205,0
79763,74,10,224,0
79774,68,4,225,0
79785,63,-1,223,0
79796,59,-5,219,0
79807,54,-9,219,0
79818,50,-10,216,0
79829,49,-9,220,0
79840,46,-10,212,0
79852,48,-15,206,0
79862,48,-16,202,0
79873,43,-17,211,0
79884,42,-14,220,0
79895,37,-9,225,0
79906,36,-13,227,0
79917,29,-10,230,0
79928,24,-14,229,0
79939,20,-14,225,0
79950,16,-12,221,0
79961,11,-10,216,0
79972,4,-7,216,0
79983,0,-7,216,0
79994,-1,-7,216,0
80005,-6,-9,218,0
80016,-6,-9,222,0
80028,-6,-4,233,0
80038,-2,-1,232,0
80049,0,-1,232,0
80060,2,-1,227,0
80071,6,-3,226,0
80083,9,-4,223,0
80093,11,-4,223,0
80104,15,-7,221,0
80115,18,-9,221,0
80127,21,-12,219,0
80137,23,-14,218,0
80148,24,-13,217,0
80159,22,-17,220,0
80170,22,-18,221,0
80181,21,-17,221,0
80192,18,-8,218,0
80203,14,-12,215,0
80214,11,-21,212,0
80225,2,-23,210,0
80236,-13,-18,206,0
80247,-32,-11,205,0
80259,-37,-4,206,1
80269,-9,10,197,0
80280,19,53,248,0
80291,34,14,293,0
80302,33,-54,316,0
80313,5,-76,301,0
80324,-29,-43,298,0
80335,-46,-25,318,0
80346,-30,-26,326,0
80357,31,7,326,0
80368,49,28,329,0
80379,71,41,321,0
80391,91,44,303,0
80402,107,32,268,0
80412,123,17,228,0
80423,130,-3,186,0
80434,129,-21,145,0
80445,126,-28,117,0
80456,112,-30,105,0
80467,86,-19,109,0
80478,67,-13,121,0
80489,45,-8,145,0
80500,34,0,179,0
80511,25,2,212,0
80522,19,13,269,0
80533,18,15,276,0
80544,19,20,279,0
80555,22,15,277,0
80566,29,14,270,0
80577,30,9,261,0
80589,31,13,258,0
80599,31,14,247,0
80610,33,13,243,0
80621,32,16,241,0
80632,30,13,236,0
80643,25,9,234,0
80654,16,11,235,0
80665,12,13,229,0
80677,8,10,225,0
80687,-1,11,226,0
80698,0,12,234,0
80709,5,14,236,0
80721,12,19,234,0
80731,20,16,224,0
80742,29,16,217,0
80753,35,16,216,0
80764,39,16,212,0
80775,41,15,211,0
80786,41,17,212,0
80797,37,11,218,0
80808,35,11,226,0
80819,30,24,238,0
80830,20,22,243,0
80841,9,36,252,0
80852,28,45,258,0
80863,30,40,258,0
80874,28,41,256,0
80885,29,36,268,0
80896,37,22,265,0
80907,39,16,253,0
80918,38,8,234,0
80929,39,5,215,0
80940,28,10,204,0
80952,20,11,198,0
80962,7,11,196,0
80973,1,17,197,0
80985,-4,24,201,1
80995,-6,22,209,0
81006,-4,59,232,0
81017,13,52,243,0
81028,33,37,287,0
81039,42,69,298,0
81050,45,56,283,0
81061,53,33,283,0
81072,55,16,247,0
81083,55,7,229,0
81094,54,-6,219,0
81105,52,-13,211,0
81116,54,-20,204,0
81127,61,-24,195,0
81138,66,-27,188,0
81149,69,-28,182,0
81160,66,-21,183,0
81171,62,-3,205,0
81183,65,10,220,0
81193,70,15,228,0
81204,75,19,241,0
81215,75,16,236,0
81227,72,12,239,0
81237,68,5,233,0
81248,65,1,225,0
81259,60,5,218,0
81270,53,6,214,0
81281,48,4,221,0
81292,43,-2,225,0
81303,37,3,224,0
81314,28,3,228,0
81325,22,6,231,0
81337,18,5,235,0
81347,21,8,233,0
81358,25,9,228,0
81369,28,12,228,0
81380,30,12,226,0
81392,31,10,223,0
81402,32,12,220,0
81413,36,9,220,0
81424,36,8,221,0
81435,40,9,222,0
81446,42,15,228,0
81457,42,19,232,0
81468,39,19,234,0
81479,37,17,236,0
81491,33,17,239,0
81502,25,14,234,0
81512,22,12,233,0
81523,19,8,232,0
81534,16,5,231,0
81545,15,6,229,0
81556,12,8,226,0
81567,11,6,225,0
81578,11,2,227,0
81589,13,-1,230,0
81600,13,4,229,0
81611,15,6,230,0
81622,19,3,234,0
81633,22,8,233,0
81644,22,14,232,0
81655,22,15,230,0
81666,16,24,226,0
81677,12,30,225,0
81689,12,28,222,0
81699,13,24,219,0
81710,10,23,217,0
81721,8,23,213,0
81732,5,27,214,0
81743,2,28,213,0
81755,1,34,213,1
81765,2,39,208,0
81777,21,56,205,0
81787,27,62,239,0
81798,34,31,261,0
81809,31,24,273,0
81820,-1,19,258,0
81831,-10,29,280,0
81842,-6,28,296,0
81853,5,30,296,0
81864,24,33,291,0
81875,45,30,289,0
81886,63,31,289,0
81897,74,31,286,0
81908,81,28,276,0
81919,78,23,269,0
81930,75,20,258,0
81941,68,16,243,0
81952,60,10,225,0
81963,55,3,210,0
81974,56,-5,197,0
81985,63,-22,181,0
81996,71,-23,182,0
82007,79,-22,183,0
82018,84,-19,189,0
82029,90,-16,198,0
82040,96,-7,211,0
82052,103,0,224,0
82062,109,3,236,0
82073,110,6,247,0
82084,101,3,253,0
82095,91,4,259,0
82106,82,0,263,0
82117,74,2,263,0
82128,61,0,252,0
82139,47,-1,238,0
82150,33,-6,217,0
82161,28,-2,216,0
82172,27,0,215,0
82183,25,3,216,0
82194,29,4,218,0
82205,29,4,218,0
82216,29,5,218,0
82227,29,4,222,0
82238,30,5,225,0
82249,34,3,221,0
82260,34,1,214,0
82271,32,1,212,0
82283,30,1,209,0
82293,26,2,206,0
82304,23,4,205,0
82315,11,4,210,0
82327,5,3,208,0
82337,1,2,207,0
82348,1,1,209,0
82359,-1,2,208,0
82370,0,4,207,0
82381,0,3,208,0
82392,1,2,213,0
82403,2,11,216,0
82414,0,12,221,0
82425,-6,11,223,0
82436,-10,12,233,0
82447,-14,8,237,0
82458,-14,7,240,0
82469,-17,6,239,0
82480,-29,-1,233,0
82492,-26,-3,234,0
82503,-23,4,239,1
82513,-23,14,244,0
82525,-26,15,253,0
82535,-31,13,255,0
82546,-33,15,256,0
82557,-24,13,259,0
82568,39,-5,334,0
82579,60,74,394,0
82591,4,69,357,0
82602,19,10,326,0
82612,39,2,318,0
82623,72,-23,362,0
82634,60,0,353,0
82645,54,-38,250,0
82656,40,-38,218,0
82668,46,-48,186,0
82678,49,-60,151,0
82689,50,-64,131,0
82700,51,-57,126,0
82711,50,-43,129,0
82722,48,-35,139,0
82733,46,-30,160,0
82744,52,-25,184,0
82755,58,-15,203,0
82766,65,-9,223,0
82777,72,-9,228,0
82789,71,-11,230,0
82799,68,-14,226,0
82810,60,-22,210,0
82821,56,-17,209,0
82832,54,-10,211,0
82843,54,-18,208,0
82854,46,-19,207,0
82865,43,-19,210,0
82877,42,-17,217,0
82887,41,-13,218,0
82898,41,-13,218,0
82910,47,-14,218,0
82920,47,-17,214,0
82932,41,-12,214,0
82942,37,-9,216,0
82953,31,-7,214,0
82964,21,-4,214,0
82975,18,-6,216,0
82986,16,-4,220,0
82997,12,-2,221,0
83008,8,-1,225,0
83019,5,-1,229,0
83030,4,0,231,0
83041,5,-2,227,0
83052,6,-2,231,0
83063,9,0,231,0
83074,10,1,232,0
83085,12,0,231,0
83096,15,-3,230,0
83107,15,-10,223,0
83118,19,-18,219,0
83129,21,-27,212,0
83140,21,-27,213,0
83152,21,-22,216,0
83162,18,-15,220,0
83173,15,-5,225,0
83184,8,3,229,0
83195,2,4,231,0
83206,-4,3,232,0
83217,-10,3,229,0
83228,-18,2,227,0
83239,-26,1,225,0
83250,-23,1,220,0
83262,2,8,213,0
83272,-11,-18,266,0
83284,-15,-38,273,1
83294,-43,-13,267,0
83305,-40,4,274,0
83316,-37,23,285,0
83327,-30,1,297,0
83338,-14,-18,307,0
83349,5,-12,308,0
83361,39,-4,316,0
83372,71,9,314,0
83383,96,16,302,0
83394,111,16,280,0
83405,121,9,252,0
83417,128,3,218,0
83427,129,-1,187,0
83438,122,-22,138,0
83449,119,-28,132,0
83460,108,-30,141,0
83471,99,-28,159,0
83483,88,-26,183,0
83493,77,-24,204,0
83504,67,-25,221,0
83515,56,-19,236,0
83527,46,-8,245,0
83537,32,5,253,0
83548,28,11,268,0
83559,18,14,276,0
83570,9,13,275,0
83581,5,11,273,0
83592,5,7,265,0
83603,2,-1,239,0
83614,2,0,228,0
83625,4,-4,219,0
83636,6,-1,215,0
83649,13,0,216,0
83659,21,3,221,0
83670,24,6,225,0
83681,26,4,224,0
83692,25,6,223,0
83703,25,2,216,0
83714,20,0,210,0
83725,16,1,207,0
83736,12,0,203,0
83747,9,-1,201,0
83758,0,-6,198,0
83769,-3,-4,195,0
83780,-10,-2,193,0
83792,-15,-3,194,0
83802,-17,-3,195,0
83813,-21,-5,196,0
83824,-25,-2,201,0
83835,-29,0,208,0
83846,-32,-1,217,0
83857,-31,-2,222,0
83868,-27,-2,218,0
83879,-27,3,218,0
83891,-28,4,229,0
83902,-31,10,244,0
83912,-36,-2,254,0
83923,-30,-8,250,0
83934,-21,-8,253,0
83945,-14,-2,257,0
83956,-14,-1,261,0
83967,-17,-5,268,0
83978,-24,-16,276,0
83989,5,-38,308,0
84000,57,-19,404,0
84012,40,21,369,1
84022,43,-19,341,0
84033,46,-43,327,0
84044,52,-40,332,0
84055,94,-26,380,0
84066,88,13,349,0
84077,28,-24,226,0
84089,10,-24,195,0
84099,8,-17,172,0
84110,4,15,131,0
84121,28,-117,154,0
84132,25,-15,130,0
84143,40,-53,139,0
84154,44,-23,150,0
84165,50,-15,162,0
84177,55,-3,189,0
84187,64,-8,217,0
84198,67,-6,227,0
84209,68,-11,228,0
84220,76,-17,218,0
84231,83,-18,219,0
84242,85,-12,221,0
84253,80,-8,214,0
84264,73,-12,204,0
84275,64,-12,197,0
84286,52,-11,197,0
84297,44,-12,202,0
84308,39,-10,211,0
84319,38,-5,217,0
84330,40,0,224,0
84341,35,2,227,0
84352,31,3,229,0
84363,30,1,230,0
84374,23,-3,225,0
84385,18,0,222,0
84396,12,-5,216,0
84407,3,-5,209,0
84418,0,-4,212,0
84429,-1,-2,216,0
84440,-1,0,221,0
84452,-2,-4,224,0
84462,-1,-6,224,0
84473,0,-10,226,0
84484,1,-10,224,0
84495,0,-11,226,0
84506,0,-13,224,0
84517,-1,-12,225,0
84528,0,-11,226,0
84539,2,-11,223,0
84550,3,-9,221,0
84561,8,-6,221,0
84572,9,-2,222,0
84583,6,-2,222,0
84594,2,-3,217,0
84605,0,1,216,0
84616,0,4,217,0
84627,-1,4,218,0
84638,-2,7,222,0
84649,-3,8,225,0
84660,-7,4,226,0
84671,-10,1,225,0
84683,-17,-2,223,0
84693,-23,-5,222,0
84704,-31,-3,225,0
84716,-38,-2,232,0
84727,-54,1,237,0
84737,-58,4,231,0
84748,-5,11,187,0
84760,-35,-7,266,1
84770,-25,-55,270,0
84781,-10,-2,269,0
84792,-40,-52,267,0
84803,-64,-74,313,0
84814,-78,-62,341,0
84825,-72,-46,357,0
84836,-14,-17,356,0
84847,55,24,359,0
84858,122,35,349,0
84869,180,39,330,0
84880,198,36,277,0
84892,209,11,189,0
84902,195,1,156,0
84913,171,-16,121,0
84924,139,-9,109,0
84935,111,2,133,0
84946,84,-2,163,0
84957,49,-15,181,0
84968,20,-17,199,0
84979,0,-14,226,0
84991,-16,-5,248,0
85002,-19,0,255,0
85012,-14,1,265,0
85023,2,-2,261,0
85034,14,4,257,0
85045,21,10,267,0
85056,37,13,276,0
85067,44,7,248,0
85078,50,-2,225,0
85089,57,-9,209,0
85100,60,-17,193,0
85111,62,-20,175,0
85122,60,-19,164,0
85133,54,-17,173,0
85144,44,-17,189,0
85155,35,-19,204,0
85166,28,-16,219,0
85178,24,-12,222,0
85189,25,-9,222,0
85199,27,-4,216,0
85210,32,-3,202,0
85221,38,-10,179,0
85232,34,-13,180,0
85243,28,-16,188,0
85254,21,-17,199,0
85265,10,-12,211,0
85277,2,-5,218,0
85287,-11,0,225,0
85298,-20,3,234,0
85309,-26,8,240,0
85320,-30,14,243,0
85331,-31,16,244,0
85342,-22,10,249,0
85353,-8,8,250,0
85364,3,-2,253,0
85375,31,-25,252,0
85386,35,-20,245,0
85397,29,-13,237,0
85408,17,-12,235,0
85419,-1,-13,230,0
85430,-17,-15,229,0
85441,-12,-20,236,0
85453,26,-3,279,1
85463,8,36,298,0
85474,-9,20,263,0
85485,10,-8,257,0
85496,22,-21,249,0
85507,34,-18,252,0
85518,43,16,301,0
85529,39,28,306,0
85540,62,3,264,0
85552,45,-15,247,0
85562,50,-35,223,0
85573,51,-45,193,0
85584,53,-51,181,0
85595,59,-53,184,0
85606,63,-52,184,0
85617,64,-38,189,0
85628,64,-23,195,0
85639,71,-9,199,0
85650,83,1,205,0
85661,92,13,212,0
85672,94,24,220,0
85683,91,27,225,0
85694,86,26,229,0
85705,75,22,221,0
85716,67,14,212,0
85727,61,10,209,0
85738,56,10,212,0
85749,51,6,216,0
85760,50,5,221,0
85771,48,8,226,0
85783,49,8,235,0
85793,51,10,240,0
85804,50,11,238,0
85815,46,13,235,0
85827,40,13,233,0
85837,36,15,228,0
85848,32,16,223,0
85859,31,16,221,0
85870,34,12,221,0
85881,35,12,225,0
85892,39,11,231,0
85903,42,8,232,0
85914,43,6,232,0
85925,45,5,230,0
85936,46,6,228,0
85947,47,6,232,0
85958,49,9,232,0
85969,46,12,231,0
85980,44,14,229,0
85992,41,15,227,0
86002,39,16,227,0
86013,39,13,227,0
86024,41,14,227,0
86035,38,15,225,0
86046,31,16,222,0
86057,27,9,220,0
86068,20,5,223,0
86079,11,6,221,0
86091,5,5,222,0
86102,3,9,222,0
86112,2,20,223,0
86123,3,26,221,0
86134,1,35,223,0
86145,-4,42,227,0
86157,-9,46,231,0
86168,-14,46,233,0
86179,-12,45,231,0
86191,-12,37,232,0
86202,-15,32,226,0
86212,-15,32,223,0
86223,-12,29,219,0
86234,-12,30,217,0
86246,-13,32,213,1
86256,-15,36,213,0
86267,-12,38,215,0
86278,-6,37,207,0
86289,31,31,190,0
86300,33,9,260,0
86311,47,-5,269,0
86322,30,19,246,0
86333,3,5,257,0
86344,-19,29,300,0
86355,-19,25,312,0
86366,-15,43,311,0
86377,0,40,307,0
86389,24,44,302,0
86399,54,47,296,0
86410,81,43,283,0
86421,98,38,263,0
86432,104,30,244,0
86443,109,19,224,0
86454,107,11,199,0
86465,100,-2,174,0
86477,92,-21,158,0
86487,84,-36,152,0
86498,83,-35,152,0
86509,89,-24,163,0
86520,90,-24,183,0
86531,92,-20,202,0
86542,90,-14,219,0
86553,85,-5,239,0
86564,87,0,259,0
86575,80,9,281,0
86586,71,16,286,0
86597,56,16,281,0
86608,44,9,268,0
86619,34,9,262,0
86630,29,2,254,0
86641,24,-3,243,0
86652,24,-2,233,0
86663,24,1,225,0
86674,22,2,225,0
86685,23,5,224,0
86696,30,7,222,0
86707,28,13,224,0
86718,28,17,227,0
86729,27,18,225,0
86740,32,15,220,0
86752,32,14,213,0
86762,32,10,209,0
86773,32,7,204,0
86784,25,8,203,0
86795,18,9,203,0
86806,14,9,204,0
86817,8,10,202,0
86828,8,3,207,0
86840,10,-1,212,0
86850,9,7,216,0
86861,3,9,218,0
86872,0,21,229,0
86883,0,21,240,0
86894,6,12,232,0
86905,17,20,215,0
86917,2,41,202,0
86927,-6,21,223,0
86938,-1,3,234,0
86949,-2,2,235,0
86960,-9,1,235,0
86971,-13,5,227,0
86983,-16,8,227,0
86993,-19,7,239,0
87005,-24,12,244,1
87015,-29,18,243,0
87027,-33,20,245,0
87037,0,8,274,0
87048,37,42,343,0
87059,11,61,352,0
87070,31,24,352,0
87081,64,8,354,0
87092,80,18,385,0
87103,69,31,378,0
87114,66,9,325,0
87125,54,-12,272,0
87136,17,-29,220,0
87148,0,-46,177,0
87158,1,-63,130,0
87169,12,-69,136,0
87180,26,-62,150,0
87192,36,-53,159,0
87202,46,-40,175,0
87213,55,-24,187,0
87224,63,-15,199,0
87235,67,-3,209,0
87246,67,2,214,0
87257,62,5,222,0
87268,47,3,226,0
87279,44,-3,228,0
87291,43,-14,220,0
87302,42,-21,212,0
87312,38,-21,214,0
87323,24,-20,220,0
87334,25,-11,219,0
87345,29,-15,215,0
87356,29,-12,217,0
87367,26,-11,219,0
87378,24,-9,219,0
87390,26,-5,215,0
87400,26,-4,214,0
87411,25,-5,216,0
87422,27,-2,218,0
87433,31,-4,217,0
87444,31,-3,219,0
87455,26,-2,214,0
87466,18,-1,211,0
87477,11,1,208,0
87488,0,0,217,0
87499,-9,0,226,0
87510,-16,2,232,0
87521,-20,3,237,0
87532,-22,4,237,0
87543,-20,5,236,0
87554,-16,8,235,0
87565,-6,10,233,0
87577,-1,12,232,0
87587,4,5,227,0
87598,13,-1,226,0
87609,20,-6,224,0
87620,21,-9,221,0
87631,24,-20,219,0
87642,29,-25,212,0
87653,24,-20,210,0
87664,20,-13,213,0
87675,12,-2,218,0
87686,2,5,221,0
87698,-6,11,224,1
87708,-20,13,225,0
87719,-32,13,225,0
87730,-42,14,226,0
87741,-42,18,224,0
87752,-9,22,211,0
87763,-7,15,277,0
87774,-11,-30,291,0
87785,-7,-7,291,0
87796,-26,-5,293,0
87807,-25,21,298,0
87818,-20,21,296,0
87829,-4,-3,303,0
87840,10,-7,296,0
87852,30,-2,290,0
87862,59,5,282,0
87873,83,12,268,0
87884,104,14,253,0
87895,113,3,230,0
87906,123,13,213,0
87917,128,4,188,0
87928,128,-4,168,0
87939,126,-19,148,0
87950,118,-25,142,0
87961,113,-32,145,0
87972,94,-33,179,0
87983,88,-26,202,0
87994,84,-20,221,0
88005,71,-10,237,0
88016,62,1,250,0
88027,50,6,263,0
88038,39,18,286,0
88049,31,23,290,0
88060,12,29,289,0
88071,3,24,282,0
88083,3,17,271,0
88093,0,11,252,0
88104,-2,1,235,0
88115,-1,-4,219,0
88127,0,-3,212,0
88137,11,-4,212,0
88148,17,-4,212,0
88159,19,0,222,0
88170,19,1,226,0
88181,16,3,226,0
88192,16,5,225,0
88203,16,3,221,0
88214,16,-2,215,0
88225,14,-3,209,0
88236,9,-5,205,0
88247,2,-6,199,0
88258,-1,-11,199,0
88269,-3,-13,206,0
88280,-2,-9,203,0
88292,-7,2,202,0
88302,-8,1,166,0
88313,-8,20,179,0
88324,-9,7,207,0
88335,-8,1,219,0
88346,-7,2,221,0
88357,-6,14,225,0
88368,-12,30,232,0
88379,-23,25,238,0
88391,-25,13,247,0
88402,-25,7,254,0
88412,-24,1,261,0
88423,-19,-2,268,0
88434,-16,0,270,0
88445,-15,0,266,0
88457,3,-19,290,1
88467,53,4,367,0
88478,42,48,352,0
88490,40,0,331,0
88500,47,-27,321,0
88511,62,-27,341,0
88522,69,10,366,0
88533,40,18,347,0
88544,24,-7,291,0
88555,8,-24,230,0
88566,-14,-36,188,0
88577,-14,-53,159,0
88588,-3,-62,146,0
88599,10,-63,146,0
88610,23,-57,156,0
88621,48,-33,170,0
88632,58,-22,178,0
88643,65,-11,191,0
88654,67,-2,203,0
88665,68,3,216,0
88677,71,0,223,0
88687,68,-5,220,0
88698,68,-10,217,0
88709,64,-10,215,0
88720,61,-13,213,0
88731,58,-14,214,0
88742,51,-18,208,0
88753,48,-23,201,0
88764,50,-18,202,0
88775,52,-16,207,0
88786,44,-12,220,0
88797,40,-9,223,0
88808,33,-2,222,0
88819,24,-5,221,0
88830,16,-6,221,0
88841,2,-3,219,0
88852,-3,-2,222,0
88863,-8,-2,224,0
88874,-12,-5,217,0
88885,-9,-5,214,0
88896,-13,-7,212,0
88908,-16,-2,217,0
88918,-16,-1,220,0
88929,-16,-1,224,0
88940,-16,0,228,0
88952,-10,-1,230,0
88962,-5,-1,227,0
88973,0,-3,224,0
88984,2,-2,222,0
88995,7,0,223,0
89006,11,-1,221,0
89017,16,-9,220,0
89028,20,-17,218,0
89039,24,-25,214,0
89050,25,-29,213,0
89061,24,-28,211,0
89072,22,-23,214,0
89083,18,-16,215,0
89094,12,-5,216,0
89105,7,1,218,0
89116,-11,7,221,0
89127,-25,0,218,0
89138,-34,-1,217,0
89149,-23,7,211,0
89160,-4,14,235,0
89172,-22,-34,276,1
89183,-16,-22,270,0
89193,-32,-3,263,0
89204,-35,6,280,0
89215,-33,7,302,0
89227,-26,-16,312,0
89237,-13,-20,315,0
89248,-1,-5,324,0
89259,18,5,333,0
89270,80,25,311,0
89281,102,28,287,0
89292,115,27,255,0
89304,121,18,218,0
89315,125,3,183,0
89327,126,-8,149,0
89337,118,-13,131,0
89348,103,-17,130,0
89359,87,-22,141,0
89370,76,-17,165,0
89381,67,-15,189,0
89392,55,-14,210,0
89403,49,-8,229,0
89414,40,0,247,0
89425,28,11,285,0
89436,28,11,289,0
89447,25,7,279,0
89458,25,4,271,0
89469,28,2,262,0
89481,25,2,248,0
89492,21,2,231,0
89503,17,-1,211,0
89514,20,-2,203,0
89525,18,3,208,0
89536,14,1,212,0
89547,15,2,216,0
89558,18,5,217,0
89569,15,2,218,0
89580,13,1,218,0
89592,7,-1,217,0
89602,7,12,214,0
89613,3,2,207,0
89624,0,0,200,0
89635,3,-2,198,0
89646,7,-4,191,0
89657,8,-5,186,0
89668,11,-6,185,0
89679,12,-3,188,0
89691,10,2,188,0
89702,7,2,192,0
89712,2,4,203,0
89723,-4,8,214,0
89734,-18,8,225,0
89745,-24,11,228,0
89756,-26,10,232,0
89767,-31,5,235,0
89778,-31,2,234,0
89790,-29,4,245,0
89800,-29,15,249,0
89811,-33,2,250,0
89822,-27,-10,247,0
89833,-23,-16,245,0
89844,-19,-18,242,0
89855,-13,-22,247,0
89866,-5,-24,261,0
89877,8,-33,279,0
89889,59,-42,327,1
89899,70,60,391,0
89910,85,3,364,0
89921,132,-18,377,0
89932,142,5,395,0
89943,121,2,345,0
89954,88,-16,276,0
89965,43,-22,222,0
89977,7,-24,196,0
89987,-4,-47,181,0
89998,-12,-50,157,0
90009,-15,-52,131,0
90020,-2,-23,159,0
90031,24,-88,142,0
90042,27,0,168,0
90053,49,-30,168,0
90064,73,-2,205,0
90075,90,-7,219,0
90086,94,-3,222,0
90097,96,-12,216,0
90108,97,-16,214,0
90119,97,-21,215,0
90130,95,-25,214,0
90141,94,-27,211,0
90152,92,-24,208,0
90163,83,-22,204,0
90174,75,-20,202,0
90185,73,-17,204,0
90197,74,-13,213,0
90207,76,-12,217,0
90218,76,-7,214,0
90229,72,-8,217,0
90240,67,-4,221,0
90252,63,-6,223,0
90262,58,-3,220,0
90273,56,-4,218,0
90284,53,-5,217,0
90295,54,-3,218,0
90306,56,-1,221,0
90317,53,0,226,0
90328,54,1,233,0
90340,54,1,239,0
90350,53,5,245,0
90361,53,9,247,0
90372,55,7,248,0
90383,51,7,248,0
90394,50,11,245,0
90405,42,11,244,0
90417,37,6,244,0
90427,36,4,245,0
90438,30,4,248,0
90449,29,3,246,0
90460,32,3,242,0
90471,36,6,240,0
90483,34,9,237,0
90493,35,11,237,0
90504,39,19,241,0
90515,39,24,238,0
90527,46,23,232,0
90537,49,28,232,0
90548,45,29,228,0
90559,41,29,227,0
90570,38,33,224,0
90581,38,37,227,0
90592,37,34,229,0
90605,40,4,230,1
90615,36,-44,243,0
90627,43,-61,230,0
90637,51,-34,213,0
90648,45,-32,201,0
90659,45,-46,202,0
90670,45,-51,216,0
90682,51,-40,226,0
90692,61,-19,238,0
90703,71,6,256,0
90714,79,7,257,0
90725,85,10,251,0
90736,88,13,243,0
90747,87,12,232,0
90758,83,10,222,0
90769,77,3,216,0
90780,66,-6,211,0
90793,63,-19,219,0
90803,53,-31,224,0
90814,40,-34,228,0
90825,26,-33,233,0
90836,13,-37,233,0
90847,5,-35,224,0
90858,6,-46,230,0
90869,7,-54,221,0
90880,16,-51,235,0
90892,23,-54,233,0
90902,37,-56,227,0
90913,44,-54,220,0
90924,48,-55,221,0
90935,51,-52,227,0
90946,48,-50,230,0
90957,37,-46,228,0
90968,26,-45,227,0
90979,18,-44,227,0
90991,12,-43,227,0
91002,7,-44,219,0
91013,6,-44,214,0
91024,8,-44,214,0
91035,11,-43,217,0
91046,13,-47,220,0
91057,16,-48,224,0
91068,19,-53,225,0
91079,23,-58,227,0
91091,25,-61,223,0
91102,28,-65,218,0
91112,32,-67,214,0
91123,33,-69,211,0
91134,35,-69,206,0
91145,35,-70,201,0
91156,36,-70,198,0
91167,34,-72,195,0
91178,32,-69,195,0
91190,29,-67,197,0
91200,25,-66,198,0
91212,20,-66,203,0
91222,15,-69,206,0
91233,13,-71,207,0
91244,12,-69,211,0
91255,12,-71,212,0
91266,16,-76,213,0
91277,11,-67,217,0
91288,11,-69,215,0
91299,14,-67,217,0
91310,12,-64,218,0
91321,0,-63,221,0
91332,0,-60,215,0
91343,-3,-60,213,0
91354,-1,-63,211,0
91366,14,-68,222,1
91377,42,-75,262,0
91387,61,-40,345,0
91398,52,20,404,0
91409,45,21,397,0
91420,58,-16,337,0
91431,55,-30,243,0
91442,54,-45,189,0
91453,44,-61,163,0
91464,35,-91,142,0
91475,36,-94,145,0
91486,47,-69,170,0
91497,61,-48,192,0
91508,75,-28,205,0
91519,90,-16,213,0
91530,97,-6,222,0
91541,101,-14,223,0
91552,112,-16,220,0
91563,124,-21,216,0
91574,131,-16,217,0
91585,127,-18,212,0
91596,121,-20,204,0
91607,107,-12,214,0
91618,83,-2,222,0
91629,63,1,221,0
91640,42,6,220,0
91652,5,8,225,0
91662,-12,14,239,0
91673,-25,14,242,0
91684,-29,10,245,0
91695,-30,7,242,0
91706,-26,3,242,0
91717,-17,1,241,0
91728,-7,1,238,0
91739,1,-1,235,0
91750,9,-7,235,0
91761,18,-10,230,0
91772,27,-17,224,0
91783,34,-21,222,0
91794,37,-18,223,0
91805,36,-16,225,0
91816,31,-10,225,0
91827,29,-9,222,0
91838,22,-2,225,0
91849,18,0,229,0
91860,14,0,233,0
91871,11,2,231,0
91882,10,3,231,0
91893,8,5,230,0
91904,4,6,228,0
91916,2,3,231,0
91927,1,3,231,0
91937,1,1,236,0
91948,-1,-2,237,0
91959,-1,-4,236,0
91970,-6,-3,232,0
91981,-16,-4,229,0
91992,-22,-4,231,0
92003,-25,-5,234,0
92014,-26,-1,238,0
92025,-29,1,239,0
92036,-32,0,242,0
92047,-35,3,244,0
92058,-40,8,245,0
92069,-44,11,247,0
92081,-54,15,249,1
92092,-41,18,243,0
92102,-6,37,244,0
92113,-24,-47,299,0
92124,-16,-42,307,0
92135,-23,-17,296,0
92146,0,-9,309,0
92157,18,-15,326,0
92168,37,-11,315,0
92179,51,-14,310,0
92191,76,-10,299,0
92202,92,-3,264,0
92213,100,3,227,0
92224,104,7,196,0
92235,109,3,170,0
92246,112,8,160,0
92257,106,21,171,0
92268,99,29,189,0
92279,86,32,211,0
92291,33,26,230,0
92302,14,24,235,0
92312,2,22,232,0
92323,-1,22,222,0
92334,0,16,209,0
92345,2,9,202,0
92356,13,6,208,0
92367,24,4,206,0
92378,27,6,209,0
92390,34,8,213,0
92400,40,6,213,0
92411,46,2,210,0
92422,47,-1,205,0
92433,46,-7,204,0
92444,28,-6,203,0
92455,21,-11,204,0
92466,19,-11,210,0
92477,17,-7,217,0
92488,13,-6,222,0
92499,6,-7,226,0
92510,2,-10,227,0
92521,7,-20,229,0
92532,6,0,219,0
92544,-2,-6,205,0
92554,-3,-12,200,0
92565,-5,-13,198,0
92577,-3,-13,195,0
92587,-1,-10,193,0
92598,0,-6,196,0
92609,6,-10,207,0
92620,11,-11,218,0
92631,14,-9,227,0
92642,12,-7,233,0
92653,6,-9,235,0
92664,5,-16,234,0
92675,5,-18,237,0
92686,10,-13,245,0
92697,6,-2,252,0
92708,1,1,259,0
92719,-5,0,266,0
92730,-16,2,271,0
92741,-29,7,277,0
92752,-42,15,278,0
92764,-33,4,285,1
92774,30,65,402,0
92785,11,44,359,0
92796,26,-7,312,0
92807,35,-19,272,0
92818,64,-29,311,0
92829,69,-21,291,0
92841,55,36,212,0
92852,62,-169,246,0
92862,69,-30,193,0
92873,66,-64,162,0
92884,70,-29,156,0
92897,72,-26,150,0
92908,62,-21,147,0
92918,50,-31,159,0
92929,44,-34,189,0
92940,49,-35,196,0
92952,61,-35,204,0
92962,73,-36,216,0
92973,75,-35,217,0
92984,67,-34,217,0
92995,52,-28,212,0
93006,35,-22,207,0
93017,26,-13,210,0
93028,20,-11,209,0
93039,12,-10,209,0
93051,2,-8,210,0
93061,0,-6,216,0
93072,-3,0,221,0
93083,0,3,221,0
93094,1,2,223,0
93105,1,-1,218,0
93116,4,-3,216,0
93127,6,0,213,0
93139,7,0,212,0
93149,5,0,219,0
93160,1,2,223,0
93171,-4,3,227,0
93182,-11,3,234,0
93193,-13,1,237,0
93204,-14,2,230,0
93215,-10,-1,222,0
93227,-8,0,220,0
93237,-3,0,219,0
93248,0,-2,225,0
93259,6,-6,222,0
93270,12,-11,218,0
93281,17,-15,215,0
93292,23,-19,213,0
93303,24,-19,213,0
93314,24,-18,219,0
93325,25,-18,224,0
93336,23,-16,228,0
93347,21,-8,225,0
93358,13,-3,221,0
93369,4,-2,219,0
93380,-3,-5,220,0
93392,-14,-7,224,0
93402,-26,-10,230,0
93414,-47,-6,233,1
93424,-48,-1,242,0
93435,-5,7,219,0
93446,-17,1,281,0
93457,-23,-76,289,0
93468,7,-35,273,0
93479,-9,-7,250,0
93491,-11,9,275,0
93502,-12,-17,303,0
93512,-1,-44,311,0
93523,8,-28,317,0
93534,30,-4,319,0
93545,60,12,308,0
93556,99,20,290,0
93567,119,19,256,0
93578,145,5,186,0
93590,139,3,170,0
93600,125,5,166,0
93611,106,3,170,0
93622,88,1,185,0
93633,68,0,199,0
93644,46,-1,215,0
93655,21,1,231,0
93666,1,8,246,0
93677,-12,9,258,0
93688,-22,11,272,0
93699,-17,9,279,0
93710,-9,3,272,0
93721,-5,1,262,0
93732,2,-5,246,0
93744,16,-7,218,0
93754,23,-7,205,0
93765,24,-8,196,0
93777,23,-5,191,0
93787,27,-4,191,0
93798,33,-2,195,0
93809,36,1,200,0
93820,30,2,202,0
93831,29,1,207,0
93842,29,0,212,0
93853,24,-3,212,0
93864,16,-5,212,0
93875,7,-6,214,0
93886,2,-10,213,0
93897,0,-9,211,0
93908,-6,-20,208,0
93919,-7,-13,200,0
93930,-3,2,200,0
93941,-7,-23,187,0
93952,-3,-8,182,0
93963,0,-3,185,0
93974,-6,5,201,0
93985,-13,0,218,0
93996,-15,-4,225,0
94007,-14,-3,222,0
94018,-13,2,224,0
94029,-12,11,238,0
94040,-23,30,256,0
94052,-31,11,271,0
94062,-32,-2,266,0
94073,-29,1,260,0
94084,-28,4,258,0
94095,-29,-1,257,0
94106,-29,-10,260,0
94117,-26,-19,265,0
94128,19,-42,304,0
94139,59,9,396,0
94150,44,40,355,0
94162,60,-15,340,1
94172,67,-38,312,0
94183,76,-36,312,0
94194,108,-20,349,0
94205,104,9,334,0
94216,70,-8,280,0
94227,38,-13,234,0
94238,-12,-93,229,0
94249,10,-49,140,0
94260,10,-14,154,0
94271,21,-52,142,0
94282,26,-15,158,0
94293,32,-9,164,0
94304,34,-5,175,0
94315,38,-8,192,0
94327,50,-10,212,0
94337,62,-18,216,0
94348,71,-23,220,0
94359,73,-25,219,0
94370,74,-27,222,0
94381,70,-27,220,0
94392,60,-24,212,0
94403,39,-18,203,0
94414,28,-12,204,0
94425,16,-10,207,0
94437,18,-2,214,0
94448,23,0,223,0
94459,30,2,225,0
94470,34,3,229,0
94481,34,4,228,0
94492,34,1,223,0
94503,34,-1,221,0
94514,35,-1,218,0
94525,36,-1,215,0
94536,35,0,213,0
94547,19,1,221,0
94558,15,1,226,0
94569,9,-2,231,0
94581,4,-5,231,0
94592,1,-3,232,0
94602,-4,-2,232,0
94613,-7,-2,231,0
94624,-10,0,230,0
94635,-10,-2,228,0
94646,-3,-9,223,0
94657,0,-13,222,0
94670,5,-18,221,0
94680,10,-22,216,0
94692,14,-22,216,0
94702,22,-17,220,0
94713,26,-17,222,0
94724,23,-12,224,0
94735,23,-10,226,0
94746,22,-4,223,0
94757,16,0,220,0
94768,12,2,219,0
94779,6,3,220,0
94791,-2,2,219,0
94802,-12,1,221,1
94812,-21,0,227,0
94823,-27,2,232,0
94834,-25,6,236,0
94845,-6,6,230,0
94856,-4,-11,265,0
94867,-2,-24,255,0
94878,-11,-5,249,0
94890,-27,-9,257,0
94900,-12,-5,269,0
94911,-9,-21,278,0
94923,-1,-29,290,1
94933,15,-30,295,0
94944,24,-17,298,0
94956,33,-6,300,0
94966,41,3,300,0
94977,48,15,291,0
94990,59,22,275,0
95000,70,19,256,0
95011,76,10,207,0
95022,77,2,184,0
95033,79,-9,167,0
95044,80,-25,156,0
95055,79,-41,151,0
95066,78,-55,153,0
95077,75,-60,168,0
95088,71,-56,196,0
95099,69,-54,218,0
95110,69,-44,237,0
95121,64,-19,248,0
95132,55,-5,265,0
95144,37,-1,276,0
95154,20,0,282,0
95165,4,5,285,0
95177,-13,2,266,0
95187,-14,-1,254,0
95198,-15,-3,234,0
95209,-11,-9,214,0
95220,-5,-9,197,0
95231,1,-7,191,0
95242,9,-9,189,0
95253,14,-11,188,0
95264,23,-9,194,0
95275,26,-4,203,0
95287,28,-9,205,0
95297,24,-9,201,0
95308,17,-12,200,0
95319,11,-10,201,0
95330,7,-14,200,0
95341,0,-16,210,0
95352,-3,-19,216,0
95363,-11,-23,214,0
95374,-16,-24,209,0
95385,-18,-24,209,0
95396,-18,-27,207,0
95407,-18,-29,209,0
95418,-19,-28,214,0
95429,-18,-28,217,0
95440,-19,-30,216,0
95452,-21,-27,216,0
95462,-25,-24,220,0
95473,-29,-24,222,0
95484,-32,-28,224,0
95495,-34,-26,226,0
95506,-35,-19,234,0
95517,-46,0,242,0
95528,-55,-6,248,0
95539,-50,-17,247,0
95550,-43,-28,242,0
95561,-33,-36,241,0
95572,-26,-40,242,0
95583,-27,-41,244,0
95595,-27,-44,252,1
95605,-24,-57,264,0
95617,11,-80,318,0
95628,31,-41,379,0
95639,34,-10,366,0
95650,42,-55,326,0
95661,44,-63,329,0
95673,56,-53,327,0
95683,48,-26,285,0
95694,35,-38,250,0
95705,19,-43,216,0
95716,3,-40,195,0
95727,3,-39,165,0
95738,6,-13,114,0
95749,18,-99,208,0
95760,57,-29,125,0
95771,56,14,183,0
95782,88,-14,184,0
95793,86,10,196,0
95804,90,11,208,0
95816,93,-8,224,0
95827,93,-18,224,0
95837,91,-19,220,0
95848,85,-23,217,0
95859,67,-28,218,0
95870,44,-32,221,0
95881,32,-26,223,0
95892,27,-19,218,0
95903,27,-14,212,0
95914,28,-8,210,0
95925,27,-6,211,0
95936,28,2,214,0
95947,30,7,223,0
95958,36,6,225,0
95969,42,9,226,0
95980,39,2,222,0
95992,26,8,220,0
96002,23,8,224,0
96013,16,5,226,0
96024,9,1,225,0
96035,4,3,225,0
96046,8,2,228,0
96057,0,3,226,0
96068,0,2,233,0
96079,0,5,232,0
96091,-1,4,228,0
96102,-5,1,226,0
96112,-5,-2,223,0
96123,-7,-4,223,0
96134,-5,-4,227,0
96145,-3,-1,224,0
96156,-1,-2,223,0
96167,1,-3,221,0
96178,4,-1,222,0
96190,5,0,222,0
96200,3,2,224,0
96211,1,4,227,0
96222,1,7,231,0
96233,-6,10,234,0
96244,-13,7,230,0
96255,-20,9,227,0
96266,-25,13,221,0
96277,-31,21,220,0
96288,-35,24,222,0
96299,-39,24,223,0
96310,-51,7,223,0
96321,-54,1,225,0
96333,-58,0,229,1
96344,-64,0,232,0
96354,-70,-2,233,0
96365,-66,-1,233,0
96377,-61,-3,239,0
96387,-41,-11,244,0
96398,-19,-21,249,0
96410,25,-23,238,0
96420,17,-12,274,0
96431,10,-83,305,0
96442,6,-77,323,0
96453,-7,-41,339,0
96465,11,-27,360,1
96475,101,-19,332,0
96486,131,-3,304,0
96497,145,-3,254,0
96508,164,2,223,0
96519,154,2,181,0
96530,135,7,154,0
96541,113,19,141,0
96552,89,29,139,0
96564,66,41,157,0
96575,44,42,180,0
96586,22,37,203,0
96597,-5,28,221,0
96608,-32,20,236,0
96619,-35,13,270,0
96630,-18,7,273,0
96641,-1,5,269,0
96652,11,1,262,0
96663,21,-7,254,0
96674,31,-10,239,0
96685,38,-11,228,0
96697,40,-10,213,0
96707,39,-6,201,0
96718,32,-8,195,0
96729,31,-8,197,0
96740,29,-10,198,0
96752,29,-6,201,0
96762,22,-3,194,0
96773,18,-4,197,0
96784,15,-1,199,0
96795,14,-2,199,0
96806,14,-2,199,0
96817,12,-8,194,0
96828,11,-12,190,0
96839,8,-12,188,0
96850,4,-14,187,0
96861,0,-15,185,0
96872,-5,-13,189,0
96883,-8,-16,192,0
96894,-10,-14,200,0
96905,-10,-14,219,0
96917,-3,-14,233,0
96927,-1,-1,235,0
96938,-3,7,239,0
96949,-4,8,248,0
96960,-3,9,255,0
96971,-3,9,258,0
96982,-6,2,258,0
96993,-9,-2,255,0
97004,-17,-1,259,0
97015,-26,-5,263,0
97027,-33,-15,267,0
97038,-39,-27,272,0
97049,-37,-38,280,0
97061,-2,-59,301,1
97071,42,7,389,0
97082,-2,59,342,0
97093,1,-10,315,0
97104,26,-39,290,0
97115,54,-28,353,0
97127,46,2,350,0
97137,29,14,294,0
97148,24,-13,245,0
97159,0,-29,205,0
97170,-5,-24,182,0
97181,2,-40,146,0
97192,8,-51,137,0
97203,29,-44,142,0
97214,38,-33,148,0
97225,43,-18,155,0
97236,50,-16,163,0
97247,53,-16,184,0
97258,62,-15,206,0
97270,72,-17,225,0
97280,79,-19,224,0
97292,85,-20,221,0
97302,83,-18,215,0
97313,78,-18,203,0
97324,69,-17,195,0
97335,62,-10,198,0
97346,51,-7,199,0
97357,43,-6,204,0
97368,39,-1,215,0
97379,37,3,220,0
97391,40,3,223,0
97402,38,3,224,0
97412,39,1,221,0
97423,34,-2,220,0
97434,20,-2,220,0
97445,17,-3,217,0
97456,12,-7,215,0
97467,7,-8,217,0
97478,3,-9,219,0
97490,3,-10,224,0
97500,4,-8,228,0
97511,6,-2,229,0
97522,5,0,230,0
97533,6,2,231,0
97544,5,4,230,0
97555,3,3,229,0
97566,2,7,227,0
97577,1,7,230,0
97588,4,3,227,0
97599,12,-7,220,0
97610,17,-17,215,0
97621,23,-25,212,0
97632,30,-25,218,0
97644,32,-25,215,0
97654,33,-20,222,0
97665,31,-11,233,0
97677,28,1,238,0
97687,18,18,242,0
97698,3,23,240,0
97709,-16,21,233,0
97721,-37,19,225,0
97731,-55,19,218,0
97742,-61,17,216,0
97753,-40,11,212,0
97765,-45,-40,281,1
97775,-46,-16,280,0
97786,-61,-18,285,0
97797,-57,-11,292,0
97808,-31,14,297,0
97819,-7,13,302,0
97830,20,7,308,0
97841,44,16,312,0
97852,64,15,307,0
97863,95,8,301,0
97874,122,12,282,0
97885,143,10,256,0
97896,159,0,223,0
97907,168,-15,186,0
97918,159,-35,130,0
97929,142,-37,123,0
97940,126,-42,127,0
97952,112,-42,148,0
97963,97,-38,171,0
97974,84,-35,188,0
97985,71,-27,198,0
97996,57,-17,213,0
98007,43,-6,228,0
98018,22,4,248,0
98029,12,5,268,0
98040,2,7,283,0
98052,-4,14,284,0
98062,-6,10,278,0
98073,-8,5,246,0
98084,-7,-1,226,0
98095,-6,-3,211,0
98106,-3,-2,208,0
98117,-1,-3,204,0
98128,4,-4,210,0
98139,10,-4,215,0
98150,15,-1,222,0
98161,18,0,225,0
98172,17,2,230,0
98183,15,1,232,0
98194,13,-1,230,0
98205,9,-1,230,0
98216,3,-4,225,0
98227,0,-10,220,0
98238,-10,-12,211,0
98249,-17,-11,208,0
98260,-21,-8,208,0
98271,-23,-10,204,0
98282,-25,-9,201,0
98293,-24,0,203,0
98304,-25,-11,195,0
98315,-17,-10,196,0
98327,-2,-24,215,0
98337,11,7,189,0
98349,-10,34,197,0
98360,-12,-17,242,0
98371,5,-17,229,0
98382,-5,17,259,0
98393,-22,40,267,0
98404,-34,21,271,0
98416,-39,15,272,0
98427,-43,15,271,0
98437,-45,8,270,0
98448,-37,0,280,0
98460,2,-26,332,1
98470,37,-1,393,0
98481,49,35,373,0
98492,61,-22,367,0
98503,65,-33,321,0
98514,84,-26,312,0
98525,87,-3,333,0
98536,66,1,293,0
98548,11,12,212,1
98558,19,-84,184,0
98569,7,2,173,0
98580,19,-63,144,0
98592,24,-49,153,0
98602,43,-46,157,0
98613,54,-32,162,0
98624,63,-26,167,0
98635,65,-14,177,0
98646,67,-9,193,0
98657,71,-9,204,0
98668,70,-10,211,0
98679,68,-12,213,0
98691,69,-16,212,0
98702,71,-18,214,0
98712,66,-17,211,0
98723,64,-15,207,0
98734,64,-15,206,0
98745,58,-15,208,0
98756,52,-12,211,0
98767,46,-14,211,0
98778,44,-13,213,0
98790,44,-12,221,0
98800,42,-11,223,0
98811,42,-13,228,0
98822,32,-8,225,0
98833,26,-11,225,0
98844,18,-11,219,0
98855,13,-12,212,0
98866,12,-13,212,0
98877,12,-14,213,0
98888,9,-10,219,0
98899,9,-9,225,0
98910,5,-8,227,0
98921,6,-5,231,0
98932,5,-1,233,0
98944,6,-1,231,0
98954,5,-1,228,0
98966,5,-2,227,0
98977,3,-1,226,0
98988,6,-3,225,0
98999,8,-1,224,0
99010,11,-2,224,0
99021,13,-2,222,0
99032,17,-7,220,0
99044,19,-9,219,0
99054,18,-13,219,0
99065,16,-15,221,0
99077,10,-9,222,0
99087,5,-7,226,0
99098,2,-5,226,0
99109,-1,-1,226,0
99120,-4,0,227,0
99131,-7,-1,227,0
99142,-11,-1,226,0
99153,-15,2,223,0
99164,-23,8,220,0
99175,-9,10,207,0
99186,13,17,233,0
99197,9,-34,259,0
99208,-6,-7,248,0
99220,-16,-7,257,1
99230,-13,-17,281,0
99241,-2,-38,282,0
99252,8,-44,282,0
99263,20,-38,287,0
99274,45,-13,291,0
99285,72,3,298,0
99296,108,9,297,0
99307,133,11,273,0
99318,144,12,252,0
99330,148,6,220,1
99340,148,-6,189,0
99352,128,-25,161,0
99362,104,-26,163,0
99373,80,-18,173,0
99384,65,-17,188,0
99395,50,-14,197,0
99406,36,-13,209,0
99417,26,-6,224,0
99428,25,-1,240,0
99439,27,7,258,0
99450,30,19,271,0
99461,29,28,283,0
99472,29,26,282,0
99483,33,23,279,0
99494,37,19,272,0
99506,29,13,250,0
99517,26,13,240,0
99528,29,8,231,0
99539,32,4,227,0
99550,34,3,221,0
99561,40,3,220,0
99572,41,4,215,0
99583,40,5,215,0
99594,39,3,211,0
99605,37,2,209,0
99616,34,2,208,0
99627,31,1,209,0
99638,26,1,210,0
99649,12,5,207,0
99661,4,7,206,0
99672,2,11,214,0
99683,2,10,222,0
99694,2,3,229,0
99705,9,8,238,0
99716,6,6,234,0
99727,7,12,235,0
99738,5,16,225,0
99749,2,19,225,0
99760,1,27,224,0
99771,-5,20,226,0
99782,-8,20,233,0
99793,-6,24,240,0
99804,-5,23,244,0
99815,3,10,239,0
99827,3,18,222,0
99837,4,17,227,0
99848,4,10,229,0
99859,6,8,223,0
99870,1,6,224,0
99881,0,2,231,0
99893,0,5,240,0
99904,3,7,246,0
99916,7,16,251,0
99927,13,20,252,0
99937,22,26,259,0
99949,28,33,269,1
99959,28,42,276,0
99970,51,67,316,0
99981,49,86,321,0
99992,34,74,280,0
100003,28,39,244,0
100014,17,12,209,0
100025,9,-2,183,0
100036,9,-9,175,0
100047,12,-9,174,0
100058,29,-4,174,0
100069,52,0,183,0
100080,67,6,188,0
100092,72,14,192,0
100102,72,24,202,0
100113,72,25,214,0
100124,72,30,222,0
100135,71,32,224,0
100146,77,32,228,0
100157,82,28,227,0
100168,83,20,230,0
100179,82,19,230,0
100191,81,24,221,0
100202,79,33,208,0
100212,72,33,200,0
100223,67,25,206,0
100234,64,32,212,0
100246,60,39,219,0
100256,56,35,230,0
100267,54,33,238,0
100278,58,40,238,0
100290,54,38,239,0
100300,55,41,235,0
100311,57,45,229,0
100322,59,45,225,0
100333,58,45,221,0
100344,61,37,217,0
100355,65,36,217,0
100366,71,35,217,0
100377,72,37,219,0
100388,71,34,223,0
100399,72,34,226,0
100410,73,33,225,0
100421,72,32,221,0
100432,69,26,225,0
100444,70,27,226,0
100454,72,21,232,0
100465,76,23,233,0
100477,79,24,228,0
100487,80,20,225,0
100498,79,24,220,0
100509,77,23,219,0
100520,73,23,223,0
100531,71,22,227,0
100542,69,20,228,0
100554,66,25,227,0
100565,63,23,230,0
100577,64,27,231,0
100588,64,25,238,0
100598,63,18,237,0
100609,55,19,235,0
100620,53,19,238,0
100631,50,21,237,0
100642,48,23,237,0
100653,48,22,238,0
100664,47,25,235,0
100675,45,28,230,0
100686,42,30,224,0
100697,43,36,218,0
100708,37,42,215,0
100719,32,35,212,0
100730,25,29,212,0
100741,24,18,209,0
100753,35,6,208,1
100763,55,-9,214,0
100774,67,-36,207,0
100785,57,-40,200,0
100796,38,-40,205,0
100807,22,-29,212,0
100818,9,-19,220,0
100829,4,-22,232,0
100840,13,-21,236,0
100852,25,-9,240,0
100862,29,-6,241,0
100875,32,-8,236,0
100885,39,-4,231,0
100896,39,2,227,0
100907,40,1,222,0
100918,33,-5,220,0
100929,32,-12,223,0
100940,34,-26,234,0
100952,37,-30,247,0
100962,37,-28,254,0
100973,36,-27,259,0
100984,40,-29,263,0
100995,44,-29,261,0
101006,46,-30,258,0
101017,52,-34,253,0
101028,60,-30,249,0
101039,64,-26,243,0
101050,65,-28,240,0
101061,69,-23,237,0
101072,70,-17,235,0
101083,73,-10,231,0
101094,68,-9,227,0
101105,63,-8,226,0
101116,54,-7,226,0
101127,51,-6,226,0
101138,48,-5,229,0
101149,47,-5,230,0
101160,48,-6,233,0
101171,49,-9,238,0
101182,54,-10,241,0
101193,55,-10,241,0
101204,58,-12,243,0
101215,58,-14,239,0
101227,57,-15,234,0
101237,57,-17,231,0
101248,55,-13,221,0
101259,53,-14,219,0
101270,48,-11,217,0
101281,46,-11,215,0
101292,43,-8,215,0
101303,40,-6,217,0
101314,38,-4,218,0
101325,35,-5,217,0
101336,34,-5,223,0
101347,35,-4,224,0
101358,37,-2,226,0
101369,35,-3,228,0
101380,33,-3,229,0
101392,31,-5,230,0
101403,33,-4,233,0
101413,32,-8,231,0
101424,34,-6,234,0
101435,34,-3,233,0
101446,35,-3,235,0
101457,38,-2,234,0
101468,39,-1,230,0
101479,36,-3,225,0
101491,38,-5,222,0
101502,36,-4,219,0
101512,36,-3,220,0
101523,37,-6,221,0
101534,37,-4,221,0
101545,37,-3,223,0
101556,36,-3,223,0
101567,34,-2,223,0
101578,29,0,221,0
101590,28,0,222,0
101600,26,1,224,0
101612,23,1,227,0
101622,23,1,229,0
101633,22,1,230,0
101644,22,2,230,0
101655,25,1,232,0
101666,26,1,231,0
101677,27,0,227,0
101688,29,1,228,0
101699,29,2,228,0
101710,30,3,228,0
101721,29,3,228,0
101732,30,4,228,0
101744,26,2,232,0
101754,26,3,233,0
101765,24,4,236,0
101777,23,3,237,0
101787,22,2,239,0
101798,22,2,239,0
101809,22,1,236,0
101820,20,2,234,0
101831,21,2,233,0
101842,21,2,233,0
101853,22,1,232,0
101864,23,2,235,0
101875,26,0,236,0
101886,28,0,234,0
101898,26,2,229,0
101909,24,3,226,0
101920,23,3,225,0
101931,23,2,226,0
101942,23,2,229,0
101953,24,2,230,0
101964,24,3,233,0
101975,22,2,235,0
101987,24,2,236,0
101998,22,2,233,0
102009,23,2,231,0
102020,24,1,231,0
102031,24,2,228,0
102042,26,2,229,0
102053,25,2,231,0
102064,25,2,233,0
102075,24,3,230,0
102086,26,2,231,0
102097,22,2,231,0
102108,20,3,230,0
102119,18,2,225,0
102130,19,3,230,0
102141,19,3,234,0
102152,19,4,232,0
102163,20,3,235,0
102174,19,6,234,0
102185,18,7,233,0
102196,18,4,230,0
102207,19,4,230,0
102218,19,4,230,0
102229,20,4,231,0
102240,19,4,230,0
102252,20,3,230,0
102262,19,2,233,0
102273,21,1,231,0
102284,21,2,230,0
102295,23,0,229,0
102306,24,0,227,0
102317,24,0,228,0
102329,22,2,230,0
102340,21,1,232,0
102350,23,-1,228,0
102361,21,1,233,0
102372,18,1,232,0
102383,18,0,230,0
102394,19,1,230,0
102405,18,1,229,0
102417,21,-2,227,0
102427,21,0,231,0
102438,21,0,230,0
102449,22,0,234,0
102460,22,-2,231,0
102471,19,-1,234,0
102482,19,-2,236,0
102493,22,-2,230,0
102504,20,0,232,0
102515,20,0,231,0
102527,22,0,228,0
102537,21,0,229,0
102548,22,0,229,0
102559,22,0,228,0
102570,25,0,228,0
102581,24,0,229,0
102592,24,0,231,0
102603,25,0,233,0
102614,25,-1,232,0
102625,24,-1,232,0
102637,23,-1,233,0
102647,24,-1,231,0
102658,22,0,230,0
102669,23,0,231,0
102680,22,-1,230,0
102692,21,-1,230,0
102702,22,0,231,0
102713,21,0,231,0
102724,20,-1,230,0
102735,18,-1,229,0
102746,18,-2,231,0
102757,18,-2,233,0
102768,18,-3,231,0
