timestamp,accX,accY,accZ,step
755628,36,-4,225,0
755638,36,-3,226,0
755649,34,-5,223,0
755659,33,3,233,0
755670,33,3,238,0
755681,31,-1,232,0
755693,33,-1,233,0
755703,30,-2,223,0
755714,32,-7,225,0
755724,31,-3,227,0
755734,31,-1,231,0
755745,35,-1,231,0
755756,33,-3,229,0
755767,32,-1,230,0
755778,33,-1,230,0
755789,31,0,232,0
755800,32,-1,229,0
755811,32,-2,227,0
755822,33,-2,228,0
755833,34,-5,231,0
755844,34,-7,233,0
755855,36,-6,238,0
755866,35,-3,235,0
755878,37,-2,228,0
755888,38,-3,232,0
755899,42,-4,230,0
755910,43,-4,231,0
755921,41,-5,230,0
755932,42,-5,230,0
755943,42,-6,229,0
755954,41,-5,225,0
755965,39,-6,225,0
755976,39,-4,227,0
755987,39,-6,227,0
755998,40,-7,229,0
756009,38,-7,226,0
756020,40,-5,227,0
756031,40,-4,226,0
756042,42,-4,228,0
756054,44,-6,228,0
756064,41,-5,227,0
756075,41,-5,228,0
756086,40,-5,227,0
756097,41,-3,228,0
756108,40,-4,228,0
756119,37,-3,229,0
756130,36,-3,228,0
756141,35,-4,228,0
756153,33,-3,228,0
756164,32,-4,227,0
756174,31,-5,228,0
756185,30,-3,229,0
756196,31,-3,230,0
756207,30,-2,232,0
756218,30,-3,231,0
756230,31,-3,231,0
756240,32,-4,229,0
756251,32,-7,227,0
756262,33,-6,227,0
756273,35,-5,228,0
756284,35,-4,228,0
756295,32,-3,229,0
756306,33,-3,230,0
756317,31,-3,231,0
756328,32,-4,231,0
756341,34,-5,232,0
756351,34,-4,231,0
756362,38,-3,228,0
756373,38,-4,229,0
756384,38,-3,228,0
756395,38,-3,230,0
756406,38,-4,229,0
756417,39,-4,228,0
756428,38,-4,229,0
756439,38,-4,229,0
756450,38,-2,227,0
756461,39,-2,227,0
756472,38,-3,228,0
756483,36,-2,228,0
756494,35,-1,226,0
756505,34,1,229,0
756516,35,0,230,0
756528,33,0,228,0
756538,32,0,231,0
756549,34,-1,230,0
756560,32,0,230,0
756571,32,-1,230,0
756583,32,-1,231,0
756593,30,-1,230,0
756604,30,-1,230,0
756615,30,-1,229,0
756626,28,-1,230,0
756637,28,-1,231,0
756648,28,-2,232,0
756659,29,-2,232,0
756670,29,-1,232,0
756681,29,-1,232,0
756693,28,-1,230,0
756703,28,-2,229,0
756714,27,-1,229,0
756725,28,-1,229,0
756736,28,-1,231,0
756747,28,-2,231,0
756758,28,-2,230,0
756769,28,-5,231,0
756780,28,-4,229,0
756792,28,-1,228,0
756802,28,-1,229,0
756813,28,-4,229,0
756824,28,-5,229,0
756835,28,-3,228,0
756846,29,-4,230,0
756857,28,-3,228,0
756868,29,-2,228,0
756879,29,-3,229,0
756892,29,-2,229,0
756902,28,-2,229,0
756913,28,-4,228,0
756924,28,-3,227,0
756935,28,-3,228,0
756946,29,-4,228,0
756957,29,-3,229,0
756968,31,-4,229,0
756979,32,-3,230,0
756991,34,-3,229,0
757001,34,-2,232,0
757012,33,-3,230,0
757023,31,-3,229,0
757034,32,-2,229,0
757045,32,-2,228,0
757056,31,-2,230,0
757067,30,0,229,0
757078,31,-1,232,0
757089,31,-1,230,0
757100,28,-2,230,0
757111,28,-2,230,0
757122,26,-2,228,0
757133,27,-1,229,0
757144,27,-3,230,0
757155,29,-2,230,0
757166,28,-4,229,0
757177,23,-4,229,0
757188,22,-8,229,0
757199,20,-8,229,0
757211,22,-7,229,0
757222,21,-4,230,0
757233,21,-4,231,0
757244,20,-4,228,0
757255,15,-4,231,0
757266,15,-3,231,0
757277,18,0,230,0
757288,20,0,232,0
757299,17,0,231,0
757310,17,0,232,0
757321,19,-1,231,0
757332,25,-4,228,0
757343,27,-6,229,0
757354,29,-4,227,0
757366,29,-4,227,0
757378,27,-3,227,0
757388,29,-1,225,0
757399,28,-2,227,0
757410,28,-4,227,0
757421,29,-3,228,0
757432,32,-4,228,0
757443,34,-3,230,0
757454,36,-3,232,0
757465,39,-3,229,0
757476,38,-2,229,0
757487,36,-3,228,0
757498,36,-9,226,0
757509,35,-9,227,0
757520,35,-10,229,0
757531,34,-4,226,0
757542,34,-3,228,0
757553,32,-1,229,0
757564,31,2,229,0
757575,31,1,231,0
757586,29,-2,231,0
757597,28,-3,230,0
757608,28,-2,231,0
757619,28,1,228,0
757630,24,3,232,0
757641,22,2,230,0
757652,23,2,230,0
757663,24,4,231,0
757674,27,4,230,0
757685,28,5,231,0
757696,29,2,229,0
757707,31,2,227,0
757718,32,3,225,0
757730,32,2,226,0
757740,35,2,227,0
757751,30,3,229,0
757762,29,2,229,0
757773,31,3,225,0
757784,30,4,224,0
757795,29,5,225,0
757807,21,9,231,0
757817,18,7,231,0
757828,13,6,229,0
757839,10,5,227,0
757850,7,6,225,0
757861,4,9,225,0
757872,1,5,226,0
757883,0,9,227,0
757894,-1,11,229,0
757905,-1,9,227,0
757916,0,12,226,0
757927,0,8,228,0
757938,1,12,229,0
757949,1,13,231,0
757960,4,11,231,0
757971,6,11,229,0
757982,10,7,228,0
757993,12,10,227,0
758004,14,8,226,0
758015,13,9,226,0
758026,14,6,226,0
758037,13,3,228,0
758048,13,8,227,0
758059,11,11,229,0
758070,7,13,230,0
758081,6,13,233,0
758093,2,13,236,0
758103,2,13,235,0
758114,2,13,238,0
758125,-1,15,235,0
758136,-2,14,234,0
758147,-5,16,234,0
758158,-6,17,234,0
758169,-8,13,232,0
758180,-6,13,233,0
758192,-12,13,235,0
758202,-18,14,235,0
758213,-22,18,234,0
758224,-21,19,230,0
758235,0,35,222,0
758246,-5,16,249,0
758257,-6,-10,264,0
758268,-8,9,256,0
758279,-29,6,254,0
758291,-28,13,262,0
758302,-22,42,277,1
758312,11,28,316,0
758323,27,24,318,0
758334,47,24,321,0
758345,64,20,305,0
758356,88,11,279,0
758367,103,11,254,0
758378,108,0,219,0
758389,114,-4,196,0
758400,115,-2,177,0
758411,110,2,165,0
758422,102,3,158,0
758434,94,3,162,1
758444,89,2,176,0
758455,82,5,189,0
758466,74,9,203,0
758477,54,22,242,0
758488,51,24,258,0
758499,52,20,261,0
758510,50,13,257,0
758521,49,8,252,0
758532,43,9,246,0
758543,39,7,243,0
758554,31,2,229,0
758565,24,2,216,0
758576,20,1,208,0
758587,21,1,204,0
758598,25,7,216,0
758609,28,15,220,0
758620,34,15,222,0
758631,32,10,218,0
758642,23,-3,205,0
758653,28,0,209,0
758664,25,0,201,0
758675,22,-5,196,0
758686,20,-8,196,0
758697,19,-6,196,0
758708,12,-5,194,0
758719,8,-5,193,0
758730,3,-5,189,0
758741,-1,-2,193,0
758752,-7,-3,199,0
758763,-7,-7,200,0
758774,-13,1,196,0
758785,-22,7,207,0
758796,-28,8,222,0
758807,-32,22,221,0
758818,-39,24,224,0
758830,-44,20,234,0
758840,-45,14,251,0
758851,-39,15,265,0
758862,-52,32,272,0
758873,-57,9,279,0
758885,-51,-6,286,1
758895,-43,-8,278,0
758906,-36,-1,273,0
758917,-22,-3,280,0
758929,27,-19,349,0
758939,57,3,377,0
758950,72,7,361,0
758961,85,-9,345,0
758972,84,-13,360,0
758983,75,-9,358,0
758994,45,-5,297,0
759005,28,-11,226,0
759016,8,-34,182,0
759028,0,-49,161,0
759038,6,-49,147,0
759051,19,-51,150,0
759061,28,-45,156,0
759072,38,-42,161,0
759083,38,-25,160,0
759094,36,-18,167,0
759105,44,-15,186,0
759116,50,-8,195,0
759127,69,-5,200,0
759138,81,-6,199,0
759149,92,-8,201,0
759160,97,-5,205,0
759171,98,-3,206,0
759182,93,-2,205,0
759193,89,-1,210,0
759204,75,-1,210,0
759215,61,-6,205,0
759226,50,-1,202,0
759237,50,0,207,0
759248,44,1,207,0
759259,37,0,212,0
759270,31,1,219,0
759281,27,-1,222,0
759293,16,-4,224,0
759303,12,-3,221,0
759314,13,-8,213,0
759325,15,-5,210,0
759336,9,1,206,0
759347,12,1,214,0
759358,12,4,222,0
759369,11,7,227,0
759380,10,8,234,0
759392,10,9,234,0
759402,9,8,231,0
759413,10,12,230,0
759424,4,14,225,0
759435,1,11,223,0
759446,-1,12,220,0
759457,-7,3,213,0
759468,-3,-5,205,0
759479,2,-12,201,0
759491,7,-15,203,0
759501,10,-16,209,0
759512,13,-13,217,0
759523,19,-8,225,0
759534,17,1,229,0
759545,12,9,235,0
759556,3,8,241,0
759567,-9,8,244,0
759578,-31,7,237,0
759589,-38,10,224,0
759600,-6,29,211,0
759612,-11,-11,271,1
759622,-13,-9,282,0
759633,-10,-9,283,0
759644,1,8,313,0
759655,-4,-1,343,0
759666,1,-21,349,0
759677,7,-14,344,0
759688,44,7,336,0
759699,81,21,307,0
759710,109,9,272,0
759721,126,-8,230,0
759732,135,-13,198,0
759743,139,-15,177,0
759754,142,-11,169,0
759765,136,0,168,0
759776,119,5,173,0
759787,69,1,200,0
759798,40,3,213,0
759809,9,8,226,0
759820,-16,13,239,0
759831,-23,11,255,0
759842,-10,15,261,0
759853,4,11,258,0
759864,17,4,249,0
759875,22,3,231,0
759886,25,3,218,0
759897,25,4,216,0
759908,26,7,216,0
759919,29,0,211,0
759930,35,-2,202,0
759941,40,-2,196,0
759953,42,-3,192,0
759963,44,-3,194,0
759974,42,-4,197,0
759985,42,-6,204,0
759996,34,-11,205,0
760007,26,-13,213,0
760018,16,-12,217,0
760030,4,-18,218,0
760040,-1,-19,219,0
760051,-8,-18,215,0
760062,-12,-22,211,0
760073,-11,-19,217,0
760084,-12,-28,209,0
760095,-2,-23,176,0
760106,-10,-1,183,0
760117,-12,-6,195,0
760128,-7,-8,207,0
760139,-11,7,220,0
760150,-24,20,235,0
760161,-36,22,250,0
760172,-40,13,261,0
760184,-44,14,270,0
760194,-49,1,278,0
760205,-47,5,276,0
760216,-47,16,278,0
760228,-49,16,278,1
760238,-6,-10,333,0
760249,50,-10,410,0
760260,53,53,388,0
760271,50,11,356,0
760282,51,-12,281,0
760293,137,-36,350,0
760304,107,-10,305,0
760315,97,-41,240,0
760326,93,-55,204,0
760337,81,-45,184,0
760348,74,-46,161,0
760359,62,-34,143,0
760370,52,-41,142,0
760381,47,-43,147,0
760393,35,-39,158,0
760403,32,-30,170,0
760414,46,-20,181,0
760425,67,-18,197,0
760436,80,-15,205,0
760447,91,-13,217,0
760458,89,-14,220,0
760469,81,-15,215,0
760480,64,-14,209,0
760492,53,-7,210,0
760503,43,-3,218,0
760513,34,-1,223,0
760524,18,1,217,0
760535,11,2,217,0
760546,12,-1,217,0
760557,13,-2,214,0
760568,11,-4,211,0
760579,9,-8,212,0
760591,5,-5,213,0
760601,4,-3,215,0
760612,7,-2,214,0
760623,8,-3,210,0
760634,7,-6,214,0
760645,6,-1,220,0
760656,0,2,227,0
760667,-4,3,228,0
760678,-10,2,230,0
760689,-13,0,228,0
760700,-10,-3,225,0
760711,-5,-2,220,0
760722,-1,-4,221,0
760733,4,0,222,0
760744,7,0,221,0
760755,9,1,219,0
760766,11,1,220,0
760778,10,0,215,0
760788,11,-1,213,0
760799,10,-4,211,0
760810,8,-2,216,0
760821,3,-1,218,0
760832,0,-2,219,0
760843,-6,-2,227,0
760854,-11,1,230,0
760865,-20,6,230,0
760876,-33,10,232,0
760887,-48,19,238,0
760898,-60,17,246,0
760909,-68,10,253,0
760920,-71,12,251,0
760932,-38,11,222,1
760942,-41,-4,271,0
760953,-39,-49,287,0
760965,-28,-19,271,0
760975,-38,-32,310,0
760986,-26,-30,329,0
760997,5,-24,324,0
761008,61,3,323,0
761019,118,28,309,0
761030,147,25,278,0
761041,161,17,246,0
761053,168,20,215,0
761064,166,19,195,0
761074,158,16,184,0
761085,140,13,172,0
761096,110,9,169,0
761107,79,8,184,0
761118,48,10,197,0
761130,-21,1,222,0
761140,-44,-3,237,0
761151,-52,3,260,0
761162,-47,1,263,0
761174,-33,-5,260,0
761184,-18,-8,243,0
761195,-3,0,232,0
761206,5,2,229,0
761217,13,9,230,0
761228,20,15,229,0
761239,25,18,227,0
761250,32,13,221,0
761261,35,10,215,0
761272,31,4,206,0
761284,26,0,206,0
761294,21,-7,204,0
761305,19,-9,208,0
761316,18,-10,211,0
761328,17,-7,213,0
761338,16,-4,212,0
761349,14,-3,211,0
761360,11,0,207,0
761371,8,0,205,0
761382,6,3,202,0
761393,2,1,210,0
761404,2,-14,218,0
761416,12,8,219,0
761426,5,20,209,0
761437,2,21,215,0
761448,3,27,226,0
761459,0,34,226,0
761470,-5,28,241,0
761481,-4,18,228,0
761493,-3,10,224,0
761503,-4,4,225,0
761514,-6,6,225,0
761525,-12,8,231,0
761536,-11,7,243,0
761547,-15,13,244,0
761558,-25,20,243,0
761569,-28,19,245,0
761580,-16,16,257,0
761592,23,25,316,1
761603,17,54,344,0
761613,18,48,359,0
761624,40,34,325,0
761635,46,30,332,0
761646,43,22,319,0
761657,24,17,275,0
761668,13,-10,223,0
761679,2,-32,189,0
761691,1,-48,164,0
761701,8,-63,153,0
761712,16,-64,148,0
761723,22,-56,161,0
761734,32,-41,172,0
761745,45,-27,184,0
761756,56,-11,193,0
761767,62,3,207,0
761778,68,18,212,0
761789,67,20,220,0
761800,63,16,224,0
761811,60,2,218,0
761822,57,-5,215,0
761833,55,-12,215,0
761844,50,-16,216,0
761855,44,-17,217,0
761866,44,-19,216,0
761878,44,-19,209,0
761888,45,-17,205,0
761899,38,-14,208,0
761910,32,-5,212,0
761921,32,2,219,0
761932,30,4,225,0
761943,24,6,230,0
761955,15,6,227,0
761965,13,7,224,0
761976,9,7,217,0
761987,8,6,214,0
761998,9,6,210,0
762009,10,2,209,0
762020,10,2,211,0
762031,8,3,218,0
762043,6,6,224,0
762053,7,10,227,0
762065,7,13,229,0
762075,6,19,231,0
762086,3,24,235,0
762097,2,27,235,0
762108,2,28,233,0
762119,4,24,228,0
762130,7,23,226,0
762141,12,19,224,0
762153,16,18,219,0
762163,20,13,222,0
762174,23,9,223,0
762185,27,6,222,0
762196,30,6,225,0
762207,30,6,226,0
762218,30,8,229,0
762230,27,11,234,0
762240,23,16,237,0
762251,15,19,240,0
762262,5,18,237,0
762274,-4,18,230,1
762284,-2,30,218,0
762295,10,44,245,0
762306,9,7,282,0
762317,17,-9,290,0
762328,15,-3,281,0
762340,13,5,281,0
762350,22,24,281,0
762361,27,10,289,0
762372,36,0,286,0
762383,38,4,285,0
762394,46,7,285,0
762405,60,11,272,0
762416,70,12,251,0
762428,80,14,228,0
762438,90,7,209,0
762449,89,-12,182,0
762460,82,-17,169,0
762471,72,-16,168,0
762482,65,-15,173,0
762493,56,-1,185,0
762506,45,1,203,0
762516,35,5,228,0
762528,22,9,251,0
762538,9,16,271,0
762549,-1,16,288,0
762560,-7,14,290,0
762571,-2,6,289,0
762582,1,2,271,0
762593,7,0,257,0
762604,19,-5,218,0
762615,21,-8,208,0
762626,25,-9,201,0
762637,25,-1,203,0
762648,30,0,209,0
762659,35,-1,210,0
762670,41,-1,211,0
762681,40,1,211,0
762693,39,1,211,0
762703,40,1,213,0
762714,37,2,216,0
762725,31,4,217,0
762736,22,6,214,0
762747,13,9,210,0
762758,3,12,211,0
762769,-6,4,206,0
762780,-8,5,209,0
762792,-3,2,210,0
762803,1,6,210,0
762813,2,7,204,0
762824,2,9,205,0
762835,5,10,208,0
762846,5,15,220,0
762857,6,6,215,0
762868,9,18,218,0
762879,1,17,236,0
762891,0,10,251,0
762901,0,4,247,0
762912,1,3,233,0
762923,-1,3,224,0
762934,-4,1,229,0
762945,-6,0,232,0
762956,-9,-3,233,0
762967,-16,0,233,0
762978,-29,7,236,0
762989,-40,13,239,0
763000,-50,10,237,0
763011,-48,3,246,0
763023,4,2,303,1
763033,24,54,365,0
763044,11,52,350,0
763055,44,11,343,0
763067,57,4,321,0
763078,50,12,293,0
763088,50,0,305,0
763099,41,2,314,0
763110,-1,-24,242,0
763121,-14,-47,208,0
763132,-24,-37,184,0
763143,-18,-41,178,0
763154,2,-55,175,0
763165,21,-50,171,0
763176,31,-42,165,0
763187,52,-32,177,0
763198,66,-23,186,0
763209,79,-16,192,0
763221,87,-13,200,0
763231,83,-3,210,0
763242,75,0,217,0
763253,64,3,224,0
763264,54,0,222,0
763275,36,-3,218,0
763286,36,-7,215,0
763297,33,-10,214,0
763308,33,-12,216,0
763319,35,-16,219,0
763330,36,-18,217,0
763341,32,-12,216,0
763353,28,-13,218,0
763363,26,-7,222,0
763374,26,-2,226,0
763385,25,-3,225,0
763396,22,-1,225,0
763407,19,0,222,0
763418,14,0,222,0
763431,9,-1,212,0
763441,9,-3,212,0
763453,7,-3,213,0
763463,5,-2,213,0
763474,4,-2,217,0
763485,4,-1,220,0
763496,3,0,223,0
763507,1,0,227,0
763518,0,1,230,0
763529,0,2,234,0
763540,1,2,231,0
763551,0,3,230,0
763562,-3,5,228,0
763573,-4,6,228,0
763584,-1,3,227,0
763595,1,1,225,0
763606,4,-3,220,0
763617,11,-3,220,0
763628,14,-2,220,0
763639,16,-4,224,0
763650,22,-9,225,0
763661,22,-4,224,0
763672,19,-1,224,0
763683,15,2,227,0
763694,9,9,228,0
763705,3,15,227,0
763716,0,15,230,0
763728,-6,14,230,0
763738,-8,11,229,0
763749,-5,5,224,0
763760,-4,6,224,0
763771,-8,4,227,0
763782,-13,-1,225,0
763794,-18,-2,226,1
763804,-17,1,224,0
763815,7,7,211,0
763826,7,2,249,0
763837,-3,-21,269,0
763848,0,-3,268,0
763859,-12,-5,256,0
763870,-17,-5,262,0
763881,-3,15,261,0
763893,5,29,267,0
763903,12,9,285,0
763914,40,-9,315,0
763925,62,1,315,0
763936,82,11,300,0
763947,92,16,282,0
763958,95,10,257,0
763969,96,3,231,0
763980,91,-3,205,0
763992,85,-11,185,0
764003,79,-22,169,0
764013,77,-32,161,0
764024,75,-32,164,0
764035,73,-26,179,0
764046,69,-18,192,0
764057,67,-14,214,0
764069,65,-12,226,0
764079,51,5,231,0
764091,46,16,245,0
764101,35,24,257,0
764112,21,28,268,0
764123,10,31,285,0
764134,2,27,283,0
764145,-2,22,270,0
764156,-1,12,258,0
764167,0,9,245,0
764178,0,3,227,0
764189,6,2,216,0
764200,11,2,207,0
764211,21,2,202,0
764222,26,4,197,0
764233,34,7,202,0
764244,39,10,204,0
764255,35,6,211,0
764266,36,4,213,0
764278,31,3,209,0
764288,27,-1,207,0
764299,22,-2,207,0
764310,15,-3,207,0
764321,10,-2,205,0
764332,4,-4,203,0
764343,1,-6,199,0
764354,-4,-9,198,0
764365,-10,-8,197,0
764376,-11,-5,199,0
764387,-12,-4,198,0
764398,-11,-7,194,0
764409,-9,-1,196,0
764420,-10,5,216,0
764431,-9,4,224,0
764442,-9,7,229,0
764453,-10,8,234,0
764464,-10,8,238,0
764475,-10,10,243,0
764486,-10,13,246,0
764497,-15,21,254,0
764508,-22,22,255,0
764519,-26,13,256,0
764531,-25,8,262,0
764541,-24,3,262,0
764553,-25,-3,265,0
764563,-23,-14,271,0
764574,-14,-11,267,0
764585,53,-9,392,0
764597,43,35,375,1
764607,61,-7,356,0
764618,71,-28,316,0
764629,76,-34,300,0
764640,100,-32,317,0
764651,88,-17,310,0
764662,49,-9,251,0
764673,18,-14,191,0
764684,-16,-10,157,0
764695,-21,-97,208,0
764706,-3,-49,139,0
764717,0,-20,143,0
764728,18,-47,137,0
764739,36,-13,157,0
764750,60,5,188,0
764761,66,7,214,0
764772,72,6,240,0
764783,73,2,252,0
764794,65,-9,251,0
764805,63,-21,241,0
764816,60,-27,225,0
764828,57,-29,218,0
764838,52,-34,206,0
764849,52,-30,201,0
764860,58,-26,194,0
764871,58,-18,192,0
764882,61,-18,200,0
764893,63,-16,207,0
764904,62,-10,211,0
764916,59,-7,222,0
764926,55,-6,220,0
764937,52,-8,220,0
764948,42,-9,215,0
764959,31,-10,214,0
764970,21,-9,211,0
764981,8,-8,213,0
764993,1,-9,216,0
765003,-5,-8,219,0
765014,-9,-8,221,0
765025,-11,-7,221,0
765036,-13,-7,226,0
765047,-11,-5,230,0
765058,-7,-2,232,0
765069,-1,-3,229,0
765080,3,1,234,0
765092,5,2,235,0
765103,5,2,236,0
765113,10,0,234,0
765124,11,0,229,0
765135,11,-3,223,0
765146,12,-8,220,0
765157,11,-7,219,0
765168,9,-10,221,0
765179,11,-11,220,0
765191,11,-11,223,0
765201,13,-11,225,0
765212,15,-10,225,0
765223,16,-5,227,0
765234,16,1,228,0
765245,11,5,227,0
765256,9,6,227,0
765267,4,4,228,0
765278,1,2,228,0
765289,-4,-1,230,0
765300,-11,-7,228,0
765311,-16,-9,229,0
765322,-21,-10,233,0
765333,-23,-10,236,0
765344,-25,-5,239,0
765355,-20,-3,239,0
765367,-5,-5,227,1
765378,-10,-12,239,0
765388,-18,-37,249,0
765399,-3,-22,250,0
765410,-18,-18,254,0
765421,-19,-3,267,0
765432,-11,4,276,0
765443,3,12,274,0
765454,18,24,274,0
765465,39,24,277,0
765476,57,24,273,0
765487,73,16,272,0
765498,83,12,272,0
765509,84,11,265,0
765520,78,14,261,0
765531,78,13,255,0
765542,79,10,242,0
765553,75,3,222,0
765564,69,-6,208,0
765575,64,-16,199,0
765586,58,-30,185,0
765597,60,-33,179,0
765608,62,-33,175,0
765619,65,-32,171,0
765631,69,-27,176,0
765641,67,-20,183,0
765653,64,-17,190,0
765663,62,-14,194,0
765674,60,-6,200,0
765685,52,1,205,0
765696,41,1,219,0
765707,28,7,237,0
765718,12,14,251,0
765729,1,17,266,0
765740,-13,16,272,0
765751,-20,10,271,0
765762,-18,8,261,0
765773,-15,3,249,0
765784,-12,2,238,0
765795,-6,4,227,0
765806,-1,2,218,0
765817,0,2,217,0
765828,7,0,216,0
765839,14,0,218,0
765850,19,-5,217,0
765861,20,-6,218,0
765872,19,-3,220,0
765883,18,-1,218,0
765894,19,-1,217,0
765905,18,-3,217,0
765917,21,-3,216,0
765928,17,-1,215,0
765938,8,0,214,0
765949,1,1,211,0
765960,-9,2,211,0
765971,-14,1,211,0
765982,-19,3,213,0
765993,-22,3,217,0
766004,-23,1,225,0
766015,-20,-7,232,0
766026,-6,0,219,0
766037,-5,34,200,0
766048,-14,38,216,0
766059,-15,14,237,0
766070,-11,12,229,0
766081,-21,26,222,0
766093,-23,21,224,0
766103,-25,21,226,0
766114,-25,9,233,0
766125,-23,7,240,0
766136,-23,10,245,0
766147,-23,8,245,0
766158,-19,11,249,0
766169,-16,16,251,0
766181,-18,21,249,1
766192,-18,23,251,0
766203,-18,24,254,0
766213,-23,26,251,0
766224,-12,22,268,0
766235,4,31,306,0
766246,16,20,303,0
766257,37,2,300,0
766268,36,2,279,0
766279,40,-3,265,0
766291,54,-14,262,0
766301,54,-2,275,0
766312,44,-6,274,0
766324,41,-7,264,0
766334,32,-5,244,0
766345,18,-1,218,0
766356,4,-9,197,0
766367,0,-16,183,0
766378,4,-18,175,0
766389,6,-25,170,0
766400,8,-16,177,0
766411,42,-9,199,0
766422,61,-1,211,0
766433,75,3,223,0
766444,85,3,229,0
766455,87,-3,226,0
766466,91,-1,219,0
766478,98,-1,207,0
766488,96,-2,207,0
766499,88,0,206,0
766510,80,-1,209,0
766521,75,1,217,0
766532,69,1,224,0
766543,65,0,225,0
766555,60,-3,225,0
766566,52,-14,213,0
766578,56,-12,212,0
766588,62,-12,213,0
766599,65,-8,216,0
766610,63,-7,224,0
766621,56,-9,227,0
766632,45,-3,231,0
766643,40,1,233,0
766654,33,3,232,0
766665,30,2,229,0
766676,25,1,227,0
766687,19,2,223,0
766698,14,4,221,0
766709,8,4,226,0
766720,6,1,226,0
766731,2,0,226,0
766742,4,-1,227,0
766753,7,-4,226,0
766764,12,-2,227,0
766775,18,0,226,0
766786,22,0,226,0
766797,24,-2,228,0
766808,29,-6,232,0
766819,30,3,230,0
766831,30,3,231,0
766841,28,4,231,0
766853,31,4,230,0
766863,30,4,232,0
766874,32,3,228,0
766885,34,3,225,0
766896,32,4,225,0
766907,28,-5,228,0
766918,25,2,226,0
766929,18,4,227,0
766940,14,5,229,0
766951,8,6,231,0
766962,7,5,231,0
766973,5,3,232,0
766984,5,4,232,0
766995,5,4,229,0
767006,2,4,226,0
767017,2,4,223,0
767028,2,4,225,0
767039,0,4,223,0
767050,0,2,224,0
767061,0,1,224,0
767072,1,1,224,0
767083,1,1,224,0
767094,1,6,224,0
767105,7,6,225,0
767116,20,13,221,0
767128,37,22,229,0
767138,47,11,243,0
767150,48,-2,247,1
767160,39,0,240,0
767171,25,2,244,0
767182,15,7,246,0
767193,14,8,255,0
767204,19,12,258,0
767215,27,19,258,0
767226,35,31,261,0
767237,52,49,267,0
767248,54,56,269,0
767259,52,56,263,0
767270,49,54,257,0
767281,50,48,251,0
767293,46,40,240,0
767303,41,29,230,0
767314,37,21,220,0
767326,37,11,210,0
767336,37,4,200,0
767347,38,2,191,0
767358,38,-3,184,0
767369,44,-6,178,0
767380,47,-6,184,0
767392,47,-2,193,0
767403,54,5,208,0
767413,59,15,218,0
767424,59,16,230,0
767435,55,15,245,0
767446,47,15,257,0
767457,37,12,268,0
767468,26,7,272,0
767479,22,6,274,0
767491,18,10,273,0
767501,18,10,263,0
767512,22,7,245,0
767523,23,7,228,0
767534,19,11,220,0
767545,19,11,212,0
767556,18,15,209,0
767567,13,22,218,0
767578,13,22,223,0
767589,15,25,227,0
767600,17,28,229,0
767611,20,29,231,0
767622,22,27,231,0
767633,26,26,232,0
767644,30,24,232,0
767655,37,23,232,0
767666,38,24,227,0
767678,37,22,221,0
767688,36,19,220,0
767699,33,17,219,0
767710,28,18,222,0
767721,22,19,226,0
767732,7,22,227,0
767743,4,26,228,0
767754,0,29,228,0
767765,0,32,236,0
767776,1,36,249,0
767787,1,34,256,0
767798,9,39,268,0
767809,30,20,258,0
767820,24,46,232,0
767831,7,36,225,0
767842,11,11,211,0
767853,4,11,198,0
767864,2,8,193,0
767875,0,17,191,0
767886,-1,24,200,0
767897,-4,36,227,0
767908,-9,40,233,0
767920,-9,39,240,0
767931,-6,43,243,0
767943,-8,49,248,1
767953,-10,48,245,0
767964,-15,45,238,0
767975,-15,43,232,0
767986,-3,37,236,0
767997,14,47,256,0
768008,17,65,267,0
768019,34,69,273,0
768031,65,57,284,0
768041,80,51,288,0
768053,86,63,280,0
768063,80,49,265,0
768074,67,21,241,0
768085,58,5,224,0
768096,46,-5,212,0
768107,33,-17,197,0
768118,19,-23,188,0
768129,13,-33,184,0
768140,10,-36,183,0
768151,8,-31,190,0
768162,17,-31,198,0
768173,31,-22,212,0
768184,37,-13,222,0
768195,42,-3,230,0
768206,42,0,236,0
768217,41,3,223,0
768228,39,1,215,0
768239,40,-1,216,0
768250,41,-3,218,0
768261,43,-4,221,0
768272,53,-6,219,0
768283,68,-12,217,0
768294,82,-16,212,0
768306,83,-20,213,0
768316,84,-25,212,0
768328,79,-24,217,0
768338,71,-21,226,0
768350,62,-14,230,0
768360,56,-11,229,0
768371,48,-12,224,0
768382,35,-8,216,0
768393,31,-5,215,0
768404,24,-2,212,0
768416,19,-3,206,0
768426,14,-1,203,0
768437,7,-1,206,0
768448,3,1,212,0
768459,1,4,221,0
768470,1,6,230,0
768481,1,7,238,0
768493,4,9,241,0
768503,4,12,243,0
768514,8,11,243,0
768525,6,12,241,0
768536,5,13,237,0
768547,5,7,229,0
768558,7,9,224,0
768569,9,8,222,0
768580,13,9,221,0
768592,14,9,221,0
768603,15,12,220,0
768613,16,7,225,0
768626,19,8,227,0
768636,18,10,227,0
768647,19,7,226,0
768658,18,6,225,0
768669,19,7,224,0
768680,19,11,225,0
768692,16,19,225,0
768703,15,22,223,0
768714,14,29,220,0
768724,12,35,219,0
768735,9,39,217,0
768746,5,41,223,0
768758,2,42,227,1
768768,1,42,227,0
768779,11,43,226,0
768791,12,42,256,0
768801,9,20,283,0
768812,5,23,295,0
768823,1,22,278,0
768834,8,43,279,0
768845,14,35,297,0
768856,24,9,318,0
768867,40,-3,316,0
768878,61,4,305,0
768889,81,12,292,0
768900,92,15,271,0
768911,88,16,252,0
768922,79,15,227,0
768934,70,5,205,0
768944,65,-2,189,0
768955,62,-10,177,0
768966,60,-17,170,0
768978,60,-23,166,0
768988,61,-25,166,0
768999,64,-22,176,0
769010,67,-19,190,0
769021,71,-14,202,0
769032,66,-20,219,0
769043,63,-17,231,0
769054,60,-14,240,0
769065,53,-4,248,0
769077,43,-1,253,0
769087,37,-4,251,0
769098,33,0,252,0
769109,35,-6,241,0
769120,34,-4,237,0
769131,32,-3,228,0
769142,33,-2,220,0
769153,36,-2,216,0
769164,36,2,218,0
769175,37,4,218,0
769186,39,10,220,0
769197,37,10,230,0
769208,32,13,233,0
769219,31,12,233,0
769231,27,13,228,0
769241,20,10,220,0
769253,13,7,218,0
769263,6,6,215,0
769274,-1,7,211,0
769285,-7,4,205,0
769296,-8,2,201,0
769307,-9,1,197,0
769318,-10,-1,195,0
769329,-8,0,196,0
769340,-7,1,192,0
769351,-2,9,192,0
769362,2,4,194,0
769374,6,11,208,0
769384,7,9,219,0
769395,10,13,223,0
769406,7,22,224,0
769417,2,23,229,0
769428,-2,17,232,0
769439,-4,18,234,0
769450,-10,21,239,0
769461,-14,23,245,0
769472,-18,29,250,0
769483,-29,35,259,0
769495,-35,28,269,1
769505,-43,23,274,0
769516,-46,17,268,0
769528,-29,5,275,0
769538,17,-18,334,0
769549,39,18,385,0
769560,39,36,361,0
769571,55,-12,330,0
769582,61,-25,290,0
769593,79,-21,302,0
769605,89,-2,311,0
769616,70,-2,274,0
769628,53,-9,230,0
769638,41,-23,201,0
769649,18,36,158,0
769660,16,-127,206,0
769671,25,-16,149,0
769683,45,-38,150,0
769694,46,-18,158,0
769705,52,-11,170,0
769716,56,-3,186,0
769728,60,-3,212,0
769738,61,-1,230,0
769749,64,-6,239,0
769760,63,-15,233,0
769771,64,-25,222,0
769782,63,-26,223,0
769793,58,-30,217,0
769804,57,-32,206,0
769815,59,-24,204,0
769826,59,-25,203,0
769837,50,-21,205,0
769848,53,-12,213,0
769859,58,-3,223,0
769870,65,1,225,0
769881,70,1,219,0
769893,70,0,220,0
769903,65,0,216,0
769914,55,0,214,0
769925,46,1,212,0
769936,34,3,209,0
769947,27,4,215,0
769959,19,7,221,0
769969,8,7,226,0
769980,0,7,234,0
769991,-5,5,240,0
770003,-17,1,236,0
770013,-19,-2,233,0
770024,-19,-1,228,0
770035,-15,-3,222,0
770046,-9,-1,222,0
770057,-1,0,222,0
770068,2,-2,222,0
770079,2,-2,223,0
770091,3,-1,225,0
770101,3,-1,227,0
770112,4,-3,227,0
770123,6,-2,220,0
770134,8,-6,214,0
770145,8,-7,211,0
770156,7,-3,212,0
770167,5,1,221,0
770178,6,4,224,0
770189,7,6,222,0
770200,7,5,224,0
770211,4,5,227,0
770223,1,1,230,1
770233,-6,-9,230,0
770244,-14,-16,226,0
770255,-17,-11,224,0
770266,0,-2,216,0
770278,-11,-24,261,0
770288,-16,-57,261,0
770299,-19,-20,245,0
770310,-45,-11,249,0
770321,-37,8,265,0
770332,-12,-4,291,0
770343,-1,-11,295,0
770354,7,-10,296,0
770365,23,-7,298,0
770377,47,11,307,1
770387,65,32,304,0
770398,82,39,292,0
770409,100,38,276,0
770420,114,27,244,0
770431,121,14,207,0
770442,126,-1,174,0
770453,121,-12,144,0
770465,109,-23,128,0
770475,93,-24,128,0
770486,77,-19,140,0
770497,45,-11,184,0
770508,33,-4,209,0
770519,27,2,229,0
770531,17,5,243,0
770541,14,14,277,0
770553,15,16,291,0
770563,16,16,293,0
770574,13,10,285,0
770585,12,3,276,0
770596,10,-1,268,0
770607,5,-3,254,0
770618,6,-7,240,0
770629,7,-9,225,0
770640,12,-10,212,0
770651,15,-7,204,0
770662,23,0,212,0
770673,26,5,205,0
770685,26,5,205,0
770696,25,5,207,0
770707,24,2,211,0
770718,26,1,211,0
770729,25,0,212,0
770740,24,-4,211,0
770751,21,-5,208,0
770762,18,-11,206,0
770773,15,-15,199,0
770784,13,-19,196,0
770795,12,-22,193,0
770806,10,-23,194,0
770817,9,-16,202,0
770828,7,-16,206,0
770839,4,-13,214,0
770850,2,-9,221,0
770861,0,-1,227,0
770872,-3,7,234,0
770883,-11,21,244,0
770894,-21,32,256,0
770905,-31,25,262,0
770917,-31,8,257,0
770928,-27,0,249,0
770938,-24,-2,245,0
770949,-19,-3,250,0
770960,-11,-10,261,0
770972,5,-26,275,1
770982,53,27,366,0
770993,41,4,346,0
771004,48,-41,324,0
771015,48,-40,299,0
771026,65,-42,330,0
771037,59,-16,342,0
771048,44,-4,301,0
771059,33,0,252,0
771070,7,39,193,0
771081,24,-103,216,0
771093,11,-2,168,0
771103,21,-41,145,0
771115,23,-29,142,0
771125,39,-20,151,0
771136,49,-8,156,0
771147,62,0,173,0
771158,69,4,190,0
771169,76,3,205,0
771180,82,3,221,0
771192,88,-1,230,0
771203,90,-4,226,0
771213,93,-16,216,0
771224,95,-21,209,0
771235,90,-26,207,0
771246,73,-26,206,0
771257,62,-23,211,0
771268,54,-17,215,0
771279,44,-13,217,0
771291,41,-3,224,0
771301,47,-1,225,0
771312,43,2,217,0
771323,39,2,213,0
771334,37,0,210,0
771345,30,-5,203,0
771356,21,-7,201,0
771367,14,-9,203,0
771378,8,-10,211,0
771389,6,-9,214,0
771400,5,-7,219,0
771411,7,-7,227,0
771422,7,-6,230,0
771433,7,-3,234,0
771445,4,0,234,0
771455,-1,2,234,0
771466,-5,5,237,0
771478,-7,5,239,0
771488,-3,2,236,0
771499,0,1,234,0
771510,4,1,225,0
771521,9,-1,221,0
771532,15,-2,217,0
771543,21,-4,217,0
771554,26,-6,215,0
771565,30,-8,216,0
771576,31,-7,216,0
771587,29,-2,214,0
771598,22,1,212,0
771609,15,5,212,0
771620,7,12,211,0
771631,4,16,214,0
771642,-2,18,218,0
771653,-12,20,224,0
771664,-11,13,222,0
771675,-5,-7,234,0
771686,-9,-50,259,0
771697,-8,-31,264,0
771709,-34,-9,275,1
771719,-41,-8,304,0
771731,-23,4,322,0
771742,-4,0,331,0
771753,17,0,327,0
771763,34,8,318,0
771774,48,18,315,0
771785,60,26,309,0
771796,66,24,287,0
771807,72,20,264,0
771818,73,11,217,0
771829,73,3,195,0
771840,73,-2,176,0
771851,69,-11,160,0
771862,68,-23,146,0
771873,68,-28,138,0
771884,63,-29,137,0
771895,59,-30,145,0
771906,57,-32,166,0
771917,56,-29,187,0
771928,57,-26,206,0
771939,66,-13,230,0
771950,68,4,251,0
771961,56,8,270,0
771972,49,7,280,0
771984,36,1,284,0
771994,36,-9,271,0
772005,30,-10,257,0
772016,24,-11,243,0
772028,22,-10,228,0
772038,17,-12,213,0
772049,12,-12,203,0
772060,8,-8,199,0
772071,7,-6,198,0
772082,11,-6,205,0
772093,13,-3,203,0
772104,11,-2,198,0
772115,11,-3,196,0
772126,11,-5,197,0
772137,13,-7,199,0
772149,6,-4,195,0
772159,1,-5,194,0
772170,-2,-9,195,0
772181,-9,-11,196,0
772193,-14,-18,198,0
772203,-17,-22,200,0
772214,-15,-25,204,0
772225,-16,-27,212,0
772236,-13,-31,218,0
772247,-13,-30,224,0
772258,-9,-34,228,0
772269,-5,-33,230,0
772280,-3,-26,230,0
772292,-7,-18,229,0
772303,-8,-7,233,0
772313,-42,50,271,0
772324,-52,22,270,0
772335,-51,5,264,0
772346,-47,-2,251,0
772358,-40,-7,248,1
772368,-24,-25,260,0
772379,25,-49,328,0
772391,50,-24,373,0
772401,43,-2,352,0
772412,51,-36,328,0
772423,45,-38,293,0
772434,50,-53,296,0
772445,60,-36,319,0
772456,38,-35,305,0
772467,16,-31,266,0
772478,-10,2,180,0
772489,-5,-122,254,0
772500,17,-44,141,0
772511,18,-21,175,0
772522,44,-54,156,0
772533,49,-21,167,0
772544,64,-17,177,0
772555,73,-1,185,0
772566,83,3,193,0
772578,91,1,204,0
772588,92,-2,208,0
772599,88,-8,210,0
772610,82,-13,213,0
772621,80,-13,213,0
772632,78,-12,221,0
772643,80,-11,221,0
772654,73,-17,213,0
772665,70,-15,208,0
772678,64,-11,212,0
772688,61,-9,218,0
772699,58,-6,221,0
772710,59,-1,224,0
772721,59,1,224,0
772732,57,1,222,0
772743,50,3,220,0
772754,40,5,219,0
772765,32,4,221,0
772776,25,6,220,0
772787,18,6,221,0
772798,4,7,226,0
772809,3,6,227,0
772820,1,3,227,0
772831,-2,3,229,0
772842,0,2,228,0
772854,1,3,229,0
772864,7,3,229,0
772875,15,3,231,0
772886,16,0,228,0
772897,15,-7,227,0
772908,10,-6,220,0
772919,5,-7,224,0
772931,3,-7,225,0
772941,2,-6,222,0
772953,0,-3,223,0
772963,-4,-3,216,0
772974,-4,-5,216,0
772985,-6,-6,214,0
772996,-3,-3,215,0
773007,-1,-1,220,0
773018,1,0,223,0
773029,5,-2,224,0
773040,7,0,225,0
773051,8,3,225,0
773062,6,4,226,0
773073,5,3,226,0
773084,2,1,231,0
773095,-4,-3,232,0
773106,-9,-9,234,0
773117,-17,-6,231,0
773128,-19,0,230,0
773139,-7,-2,238,0
773151,-20,-47,266,1
773161,-12,-41,253,0
773172,-13,-3,242,0
773183,-17,9,257,0
773194,-17,6,283,0
773205,-12,-7,298,0
773216,-6,-13,304,0
773228,-3,-7,305,0
773238,3,0,313,0
773249,17,5,315,0
773260,36,20,306,0
773271,57,31,287,0
773282,74,35,265,0
773293,104,23,204,0
773304,112,9,169,0
773315,118,-8,133,0
773326,115,-14,113,0
773337,110,-13,124,0
773348,97,-7,148,0
773359,74,-10,171,0
773370,60,-7,195,0
773381,53,-4,214,0
773393,44,-8,236,0
773403,45,1,268,0
773414,38,10,282,0
773426,35,8,284,0
773436,26,3,273,0
773447,22,0,277,0
773458,21,2,263,0
773470,21,-1,250,0
773480,27,-2,249,0
773492,26,-7,233,0
773503,22,-7,218,0
773513,25,-4,216,0
773524,22,-6,204,0
773535,19,-6,195,0
773546,18,-3,192,0
773557,13,0,194,0
773568,7,1,198,0
773579,2,0,201,0
773591,-2,-3,206,0
773601,-8,-10,209,0
773612,-8,-13,209,0
773623,-5,-17,203,0
773634,-6,-15,200,0
773645,-9,-11,197,0
773656,-13,-8,195,0
773667,-18,-9,195,0
773678,-22,-6,198,0
773689,-23,-5,203,0
773700,-30,-2,207,0
773711,-33,-2,213,0
773722,-38,-5,217,0
773733,-40,-7,221,0
773744,-43,-8,223,0
773755,-48,-8,228,0
773766,-55,-11,234,0
773778,-59,-15,241,0
773788,-54,-26,242,0
773799,-46,-29,240,0
773810,-33,-33,242,0
773821,-30,-12,249,0
773832,-28,-25,259,0
773844,-24,-41,267,0
773855,-15,-45,266,0
773866,-6,-46,261,0
773878,26,-44,277,0
773889,84,-35,383,0
773899,79,51,358,0
773910,89,-27,321,0
773922,109,-54,299,1
773932,109,-53,327,0
773943,70,15,338,0
773954,32,6,265,0
773965,19,-12,213,0
773976,0,-22,190,0
773988,-19,-23,174,0
773999,-17,-32,154,0
774010,-3,-44,146,0
774021,9,-42,150,0
774032,26,-37,157,0
774043,41,-31,172,0
774054,55,-17,185,0
774067,68,-3,198,1
774078,88,10,223,0
774088,93,7,222,0
774099,91,3,217,0
774110,77,0,210,0
774121,64,0,211,0
774132,61,2,216,0
774143,64,3,222,0
774154,65,0,219,0
774165,69,-4,213,0
774176,67,-12,211,0
774187,65,-10,211,0
774200,67,-9,211,0
774210,67,-7,212,0
774221,65,-6,214,0
774232,56,2,218,0
774243,51,6,224,0
774254,42,9,226,0
774265,33,7,226,0
774276,25,3,227,0
774287,16,2,223,0
774298,8,3,219,0
774309,1,4,220,0
774320,-4,3,219,0
774331,-5,2,222,0
774342,-13,4,225,0
774353,-13,3,231,0
774364,-12,1,230,0
774375,-13,3,231,0
774386,-10,4,234,0
774397,-6,4,229,0
774408,-4,3,226,0
774419,-2,4,224,0
774430,-1,2,223,0
774441,0,-1,221,0
774453,1,-2,219,0
774463,4,-4,215,0
774474,4,-5,213,0
774485,5,-9,213,0
774496,5,-12,215,0
774507,5,-12,217,0
774518,9,-10,217,0
774529,10,-7,220,0
774540,13,-1,221,0
774551,15,4,224,0
774562,7,8,224,0
774574,1,10,221,1
774584,-9,15,221,0
774595,-17,17,219,0
774606,-5,21,210,0
774617,1,14,242,0
774628,-5,-27,270,0
774639,-10,-15,270,0
774650,-25,-3,276,0
774661,-25,10,285,0
774672,-20,24,300,0
774683,-6,5,307,0
774694,2,-4,306,0
774705,10,-7,302,0
774717,63,18,307,1
774728,86,25,292,0
774738,107,26,268,0
774749,120,20,238,0
774760,132,8,209,0
774771,135,1,180,0
774783,134,-6,155,0
774793,127,-17,136,0
774804,112,-22,128,0
774815,97,-27,131,0
774826,81,-26,153,0
774837,67,-26,170,0
774848,60,-17,189,0
774859,51,-4,207,0
774870,34,3,232,0
774881,24,9,275,0
774893,25,12,284,0
774903,27,13,285,0
774914,30,11,279,0
774925,30,8,269,0
774936,28,5,263,0
774947,24,0,250,0
774958,23,0,236,0
774969,20,0,229,0
774980,22,1,226,0
774992,24,1,225,0
775003,28,3,226,0
775013,27,7,227,0
775024,27,7,221,0
775035,28,4,213,0
775046,22,2,210,0
775057,7,3,211,0
775068,1,1,209,0
775079,-3,0,208,0
775091,-8,-1,205,0
775101,-12,-3,200,0
775112,-16,-5,198,0
775123,-20,-5,196,0
775134,-21,-9,195,0
775145,-20,-7,198,0
775156,-16,-6,202,0
775167,-11,-2,202,0
775178,-6,6,205,0
775190,-2,9,209,0
775200,1,11,214,0
775211,1,17,228,0
775222,0,6,250,0
775233,-1,4,246,0
775244,-5,10,245,0
775255,-10,18,250,0
775266,-18,23,252,0
775278,-25,27,249,0
775288,-33,29,253,0
775299,-40,24,255,0
775310,-47,13,256,0
775321,-35,-2,266,0
775332,20,-27,340,0
775344,44,33,381,1
775354,30,42,358,0
775366,47,-8,318,0
775376,40,-21,280,0
775387,68,-35,311,0
775398,67,-5,302,0
775409,36,4,265,0
775420,20,-13,230,0
775431,-7,37,176,0
775442,-6,-102,240,0
775453,31,-27,158,0
775464,45,-29,165,0
775475,51,-46,153,0
775486,58,-28,160,0
775497,67,-24,169,0
775508,72,-16,183,0
775519,83,-14,193,0
775530,93,-7,199,0
775541,95,-2,205,0
775553,85,-8,215,0
775563,77,-11,214,0
775574,71,-11,217,0
775585,64,-10,214,0
775596,58,-13,213,0
775607,54,-16,209,0
775618,54,-20,207,0
775629,56,-19,205,0
775640,58,-15,213,0
775651,57,-16,216,0
775662,52,-14,220,0
775673,47,-13,224,0
775684,47,-8,223,0
775695,45,-8,226,0
775706,41,-5,228,0
775717,31,-3,224,0
775728,27,-5,219,0
775739,23,0,217,0
775750,20,0,217,0
775761,15,1,217,0
775772,13,1,218,0
775783,6,2,221,0
775794,2,2,225,0
775805,-1,4,230,0
775817,-6,6,235,0
775828,-8,6,239,0
775838,-9,7,240,0
775849,-11,7,237,0
775860,-10,6,236,0
775871,-8,3,231,0
775882,-1,1,225,0
775893,1,1,224,0
775904,5,1,223,0
775917,9,-4,220,0
775928,13,-7,215,0
775938,13,-9,214,0
775949,12,-11,216,0
775960,10,-10,216,0
775971,9,-12,216,0
775982,9,-12,217,0
775993,10,-11,218,0
776004,11,-11,222,0
776015,11,-8,223,0
776026,6,-6,223,0
776037,-2,-4,220,0
776048,-9,-2,223,0
776059,-16,0,228,0
776070,-20,2,231,0
776081,0,8,223,0
776093,15,3,250,0
776104,8,-35,269,1
776114,7,-24,259,0
776125,-5,-9,252,0
776136,-12,1,257,0
776147,-1,23,273,0
776158,2,11,289,0
776169,12,-4,289,0
776180,28,0,286,0
776191,38,8,293,0
776203,83,16,295,0
776213,100,17,283,0
776224,112,17,266,0
776235,120,14,238,0
776246,125,3,210,0
776257,121,-1,183,0
776268,114,-12,155,0
776279,108,-18,141,0
776291,100,-22,135,0
776303,86,-23,137,0
776313,78,-18,156,0
776324,71,-13,178,0
776335,68,-9,193,0
776346,55,11,237,0
776357,54,11,261,0
776368,49,14,276,0
776379,43,17,281,0
776391,35,21,284,0
776401,25,21,281,0
776412,15,15,269,0
776423,12,9,259,0
776434,5,5,249,0
776445,5,2,237,0
776456,6,6,230,0
776467,9,6,229,0
776478,17,8,226,0
776490,22,7,228,0
776500,22,6,226,0
776511,25,5,224,0
776522,28,1,208,0
776533,31,-1,203,0
776544,29,-2,201,0
776555,25,-3,203,0
776566,18,-2,206,0
776578,13,0,206,0
776588,9,-4,203,0
776599,4,-5,204,0
776610,0,-5,204,0
776621,-4,-3,208,0
776632,-3,-5,212,0
776643,-1,-2,212,0
776654,-1,5,210,0
776665,-3,6,209,0
776676,-2,4,200,0
776687,0,5,220,0
776698,1,1,226,0
776709,0,2,230,0
776720,-1,1,227,0
776731,0,8,227,0
776742,0,16,234,0
776753,-1,20,241,0
776764,-4,18,244,0
776775,-9,18,244,0
776786,-15,20,242,0
776798,-23,21,244,1
776808,-28,15,248,0
776819,-19,5,257,0
776830,30,-21,304,0
776841,75,11,388,0
776853,92,2,333,0
776863,99,-21,302,0
776874,113,-30,313,0
776885,114,-11,329,0
776896,88,3,298,0
776907,58,-7,247,0
776918,14,-30,224,0
776929,-8,-26,211,0
776940,-12,-22,192,0
776952,-15,-37,175,0
776963,-12,-42,168,0
776974,7,47,131,0
776985,47,-105,186,0
776996,48,8,186,0
777007,72,-4,201,0
777018,88,-10,200,0
777029,98,-10,207,0
777040,102,-10,211,0
777051,100,-12,206,0
777062,91,-12,202,0
777073,84,-9,212,0
777084,79,-13,215,0
777095,74,-8,209,0
777106,74,-9,206,0
777117,69,-10,203,0
777128,72,-10,204,0
777139,76,-11,204,0
777150,78,-13,213,0
777161,75,-9,224,0
777172,69,-4,231,0
777183,65,-6,229,0
777194,65,-5,228,0
777205,64,-6,225,0
777216,61,-7,224,0
777228,62,-7,222,0
777238,60,-7,218,0
777249,54,-9,218,0
777260,55,-9,220,0
777271,51,-12,221,0
777282,45,-8,222,0
777293,40,-6,224,0
777304,37,-2,226,0
777315,37,-2,228,0
777326,35,0,230,0
777337,30,0,234,0
777348,29,1,234,0
777359,28,0,234,0
777370,32,0,233,0
777381,31,0,233,0
777393,29,-1,230,0
777403,28,0,229,0
777414,28,-1,228,0
777425,29,-1,227,0
777436,29,-1,230,0
777447,30,-3,233,0
777458,27,-1,230,0
777469,27,1,231,0
777480,28,1,232,0
777491,26,5,233,0
777503,28,10,233,0
777513,28,12,234,0
777524,28,17,233,0
777535,26,21,234,0
777546,21,24,230,0
777557,20,22,227,0
777568,16,20,223,0
777579,15,18,222,0
777591,11,19,220,0
777601,6,23,216,0
777612,4,28,216,0
777623,5,30,218,0
777634,18,13,215,0
777645,34,-27,235,0
777656,44,-54,232,0
777668,29,-28,190,1
777678,15,-30,190,0
777690,12,-22,198,0
777700,11,-24,210,0
777711,18,-25,221,0
777722,38,-20,237,0
777733,60,6,256,0
777744,70,29,275,0
777755,83,37,289,0
777766,98,46,301,0
777778,96,38,296,0
777788,86,14,280,0
777800,83,-15,252,1
777810,98,-27,233,0
777821,96,-27,221,0
777832,87,-30,210,0
777843,73,-29,217,0
777854,75,-35,217,0
777865,80,-35,216,0
777876,83,-35,219,0
777887,84,-33,223,0
777898,81,-37,228,0
777909,90,-31,238,0
777920,94,-24,232,0
777931,95,-18,221,0
777942,91,-14,219,0
777953,87,-15,222,0
777964,82,-15,225,0
777975,72,-14,225,0
777986,66,-8,231,0
777997,59,-19,230,0
778008,52,-31,228,0
778019,46,-12,224,0
778030,38,-4,231,0
778041,27,-25,217,0
778053,24,-25,219,0
778063,22,-29,219,0
778074,20,-32,221,0
778085,22,-33,233,0
778096,26,-32,236,0
778107,30,-32,239,0
778118,39,-35,235,0
778129,44,-34,234,0
778140,48,-32,231,0
778151,46,-27,226,0
778162,45,-28,217,0
778173,40,-29,213,0
778184,33,-30,206,0
778195,30,-29,205,0
778206,23,-29,207,0
778217,16,-33,207,0
778228,13,-36,212,0
778239,13,-33,225,0
778250,16,-23,222,0
778261,16,-9,212,0
778272,16,-11,208,0
778283,16,-12,201,0
778294,11,-13,197,0
778305,6,-15,195,0
778316,3,-16,196,0
778328,5,-16,203,0
778338,16,-20,215,0
778349,19,-23,221,0
778360,24,-31,227,0
778371,24,-40,234,0
778382,25,-51,250,0
778393,28,-65,274,0
778404,23,-69,295,0
778416,14,-58,300,0
778426,5,-44,297,0
778437,3,-32,285,0
778448,1,-23,269,0
778459,0,-30,251,0
778470,-3,-31,235,0
778481,-9,-32,222,0
778493,-9,-34,215,0
778503,-11,-35,209,0
778514,-11,-35,208,0
778525,-14,-36,207,0
778536,-16,-35,207,0
778547,-15,-35,205,0
778558,-13,-39,200,0
778570,-11,-43,199,0
778580,-9,-45,199,0
778591,-5,-49,201,0
778603,-4,-46,204,0
778613,-1,-46,210,0
778624,3,-49,214,0
778635,5,-52,219,0
778646,4,-52,222,0
778657,6,-55,227,0
778668,7,-65,236,0
778679,10,-75,240,0
778691,14,-82,248,0
778701,18,-86,256,0
778712,28,-88,244,0
778723,22,-69,215,0
778734,15,-84,208,0
778745,30,-81,185,0
778756,48,-77,174,0
778768,75,-66,192,1
778778,95,-45,241,0
778790,93,-22,258,0
778800,107,-21,250,0
778811,130,-24,229,0
778822,156,-27,264,0
778833,140,22,347,0
778844,140,4,353,0
778855,124,-2,297,0
778866,78,15,225,0
778878,31,3,178,0
778890,14,5,152,0
778900,8,5,142,0
778912,7,-13,141,0
778922,11,-31,158,0
778933,27,-43,181,0
778944,48,-33,213,0
778955,71,-25,233,0
778966,86,-22,237,0
778978,98,-11,237,0
778988,93,13,228,0
778999,76,30,230,0
779010,60,38,228,0
779021,45,40,225,0
779032,31,39,233,0
779044,23,39,241,0
779054,16,35,242,0
779065,10,20,236,0
779076,10,10,229,0
779087,7,2,223,0
779098,3,-3,221,0
779109,3,-9,217,0
779120,5,-13,217,0
779131,15,-14,222,0
779142,23,-17,222,0
779153,34,-16,236,0
779164,37,-18,238,0
779175,38,-18,233,0
779186,36,-20,230,0
779197,29,-22,229,0
779208,21,-21,229,0
779219,10,-22,225,0
779230,1,-24,219,0
779241,-6,-24,220,0
779253,-10,-24,219,0
779263,-13,-24,222,0
779274,-10,-18,224,0
779285,-6,-14,225,0
779296,-1,-10,229,0
779307,0,-6,229,0
779318,0,-5,228,0
779329,-4,-2,223,0
779340,-5,0,223,0
779351,-5,1,226,0
779362,-5,4,226,0
779373,-2,2,228,0
779384,0,2,228,0
779395,3,1,226,0
779407,4,0,227,0
779417,7,0,227,0
779428,8,2,227,0
779439,6,2,229,0
779450,5,1,226,0
779461,2,2,223,0
779472,-2,2,223,0
779483,-6,1,221,0
779494,-17,0,224,0
779505,-16,0,223,0
779516,-19,2,226,0
779528,-21,4,231,1
779538,-18,8,233,0
779549,-4,17,231,0
779560,2,15,249,0
779571,-13,-12,276,0
779582,-9,1,280,0
779593,-16,8,273,0
779604,-18,3,270,0
779615,-5,20,271,0
779626,-2,19,284,0
779637,0,1,295,0
779648,3,-2,297,0
779659,25,-1,302,0
779670,41,5,291,0
779681,49,9,275,0
779693,52,10,260,0
779703,59,7,245,0
779714,66,5,225,0
779725,72,-4,203,0
779736,77,-13,186,0
779747,92,-23,176,0
779758,98,-31,165,0
779769,105,-37,158,0
779780,108,-35,155,0
779792,110,-28,157,0
779803,108,-20,168,0
779814,99,-8,196,0
779825,95,-5,209,0
779836,93,0,224,0
779847,88,4,235,0
779858,75,13,241,0
779869,60,16,248,0
779880,44,22,267,0
779892,30,22,274,0
779903,19,25,283,0
779913,9,21,282,0
779924,2,17,277,0
779935,-1,10,260,0
779946,-3,3,244,0
779957,0,-2,230,0
779969,2,-7,217,0
779980,7,-6,219,0
779991,16,-2,218,0
780003,22,0,214,0
780013,21,3,214,0
780024,20,3,215,0
780035,20,2,218,0
780046,19,4,216,0
780057,19,3,214,0
780068,18,1,211,0
780079,18,0,208,0
780091,17,-1,209,0
780101,14,-2,209,0
780112,13,-7,203,0
780123,7,-10,199,0
780134,5,-10,197,0
780145,3,-11,195,0
780156,1,-8,196,0
780167,1,-10,196,0
780178,0,2,199,0
780190,-4,6,208,0
780200,-9,8,215,0
780211,-13,6,217,0
780222,-13,6,218,0
780233,-12,6,222,0
780244,-9,10,238,0
780255,-2,8,251,0
780266,-11,28,254,0
780278,-21,23,253,0
780288,-16,-4,258,0
780300,-14,-10,257,1
780310,-11,-16,255,0
780321,-14,-19,257,0
780332,-19,-26,262,0
780343,-18,-35,273,0
780354,18,-51,323,0
780365,52,-24,371,0
780376,50,-10,333,0
780387,53,-50,304,0
780398,41,-37,269,0
780410,43,-46,278,0
780420,62,-42,329,0
780431,57,-10,310,0
780443,38,-1,262,1
780453,13,-85,262,0
780464,22,-9,194,0
780475,23,-6,180,0
780486,35,-38,158,0
780497,39,-22,168,0
780508,50,-23,164,0
780519,55,-19,165,0
780530,63,-18,165,0
780541,71,-14,178,0
780553,80,-7,192,0
780563,88,-8,203,0
780575,93,-13,205,0
780585,95,-15,211,0
780596,94,-16,208,0
780607,93,-15,204,0
780618,92,-16,207,0
780629,85,-21,204,0
780640,77,-17,210,0
780651,67,-14,216,0
780662,59,-10,218,0
780673,50,-12,219,0
780684,45,-12,222,0
780695,43,-7,223,0
780706,40,-3,221,0
780717,33,-3,221,0
780728,28,-4,220,0
780739,19,-1,219,0
780750,13,-3,219,0
780761,8,-4,217,0
780772,6,-6,218,0
780784,0,-5,216,0
780794,0,-6,219,0
780805,1,-3,225,0
780816,-1,-1,227,0
780828,0,-2,229,0
780838,4,-4,230,0
780849,5,-2,228,0
780860,4,-5,225,0
780871,7,-4,225,0
780883,5,-4,221,0
780894,2,-7,219,0
780905,1,-4,220,0
780917,1,-4,221,0
780928,4,-7,220,0
780938,10,-10,222,0
780949,9,-15,219,0
780961,10,-18,220,0
780972,13,-18,217,0
780983,15,-16,219,0
780994,15,-14,219,0
781005,13,-9,219,0
781016,10,-6,217,0
781028,6,0,217,0
781038,-2,1,219,0
781049,-9,2,221,0
781060,-22,-4,223,0
781071,-27,-13,224,0
781083,-26,-9,219,1
781094,-7,-1,264,0
781104,-9,-28,282,0
781115,-3,-3,287,0
781126,-20,-20,284,0
781137,-3,-8,281,0
781149,3,23,289,0
781159,3,9,308,0
781170,9,-21,321,0
781181,21,-27,322,0
781193,40,-14,328,0
781204,63,7,329,0
781215,86,18,307,0
781226,110,22,279,0
781237,121,18,245,0
781248,127,1,179,0
781259,128,-8,152,0
781270,126,-22,132,0
781281,120,-25,129,0
781293,110,-30,134,0
781303,99,-27,150,0
781314,84,-24,166,0
781325,71,-17,181,0
781336,61,-7,195,0
781347,48,0,210,0
781358,35,17,233,0
781369,23,21,255,0
781380,17,19,272,0
781391,10,24,283,0
781403,3,22,281,0
781413,4,16,270,0
781424,8,11,254,0
781435,10,7,239,0
781446,17,1,225,0
781457,18,0,212,0
781468,25,-2,210,0
781479,31,-2,211,0
781491,36,-2,211,0
781501,39,-2,210,0
781512,37,-1,212,0
781523,32,2,218,0
781534,27,5,218,0
781546,20,1,215,0
781556,17,0,212,0
781567,11,0,209,0
781578,4,0,208,0
781590,2,-1,203,0
781600,-2,-3,196,0
781611,-5,-6,194,0
781622,-6,-8,191,0
781633,-7,-8,191,0
781644,-7,-8,192,0
781655,-5,-2,194,0
781666,-9,3,202,0
781678,-12,1,213,0
781688,-12,0,221,0
781699,-10,1,227,0
781710,-8,6,233,0
781721,-8,15,251,0
781732,-6,25,270,0
781743,-27,29,277,0
781754,-24,10,269,0
781765,-17,8,266,0
781776,-15,4,262,0
781787,-27,-3,265,0
781798,-38,-12,261,0
781809,-25,-25,273,0
781820,22,-30,358,0
781831,36,7,355,0
781842,41,-8,323,0
781853,40,-41,300,0
781864,25,-24,277,0
781875,43,-11,310,0
781888,38,39,256,1
781898,46,-99,289,0
781909,65,-41,200,0
781920,44,-3,194,0
781931,48,-38,174,0
781942,46,-21,168,0
781953,46,-27,167,0
781964,41,-17,169,0
781975,38,-19,165,0
781986,34,-12,170,0
781997,39,-12,182,0
782008,54,-14,196,0
782019,73,-18,206,0
782030,86,-17,213,0
782041,102,-15,212,0
782053,123,-3,215,0
782063,115,-3,210,0
782074,97,-7,203,0
782085,75,-4,201,0
782096,58,-2,206,0
782107,48,0,206,0
782118,43,2,215,0
782129,39,5,220,0
782140,37,4,220,0
782151,35,3,220,0
782162,34,1,222,0
782174,25,0,226,0
782184,22,2,226,0
782195,23,1,224,0
782206,23,0,224,0
782217,22,1,222,0
782228,22,-2,217,0
782239,17,0,216,0
782250,16,-1,219,0
782261,11,-2,225,0
782272,6,0,231,0
782283,2,-1,236,0
782294,1,-1,231,0
782305,2,-2,227,0
782316,4,-3,223,0
782328,3,-6,220,0
782341,5,-9,216,0
782351,7,-6,215,0
782362,10,-1,219,0
782373,9,1,221,0
782384,8,2,220,0
782395,7,4,221,0
782406,6,7,222,0
782417,2,6,223,0
782428,2,5,219,0
782439,1,8,219,0
782450,0,13,222,0
782461,-1,13,226,0
782472,-2,10,228,0
782483,-9,5,227,0
782494,-17,-4,226,0
782505,-20,-15,225,0
782516,-24,-22,226,0
782528,-34,-16,227,0
782538,-37,-12,229,0
782549,-37,-7,231,0
782560,-26,0,228,0
782571,14,23,219,0
782582,7,-16,275,0
782593,28,-40,281,0
782605,32,-3,264,1
782615,17,-10,259,0
782628,21,-1,285,0
782638,35,-5,296,0
782649,44,-12,305,0
782660,57,3,307,0
782671,80,13,290,0
782682,90,16,267,0
782693,104,19,236,0
782704,123,16,201,0
782715,128,13,162,0
782726,127,18,136,0
782737,127,13,131,0
782748,124,15,142,0
782759,112,21,166,0
782770,90,17,184,0
782781,66,15,203,0
782793,42,10,227,0
782803,18,7,252,0
782814,4,9,275,0
782825,-5,20,298,0
782836,-1,18,292,0
782847,14,11,269,0
782858,17,10,257,0
782869,21,7,241,0
782880,32,8,233,0
782891,37,7,222,0
782903,45,4,224,0
782913,48,3,225,0
782926,47,3,225,0
782936,48,2,219,0
782947,49,0,213,0
782958,44,-3,207,0
782969,39,0,210,0
782980,34,-1,212,0
782992,26,0,215,0
783003,23,1,210,0
783013,21,3,207,0
783024,16,3,202,0
783035,9,4,200,0
783046,3,1,197,0
783057,3,4,207,0
783068,0,5,204,0
783079,-3,9,205,0
783091,-1,21,213,0
783101,0,23,222,0
783112,16,15,225,0
783123,27,26,227,0
783134,19,26,220,0
783145,6,17,223,0
783156,3,12,226,0
783167,-10,13,224,0
783178,-21,12,228,0
783189,-26,10,230,0
783200,-30,13,230,0
783211,-34,23,234,0
783222,-44,37,236,0
783233,-47,44,244,0
783244,-7,40,285,0
783255,37,71,380,0
783266,8,98,366,0
783278,24,42,351,0
783288,46,17,297,0
783299,42,17,296,0
783310,45,-3,322,0
783321,48,7,317,0
783333,46,-44,242,1
783343,45,-62,212,0
783354,44,-71,177,0
783365,36,-71,154,0
783376,33,-67,150,0
783388,32,-59,151,0
783398,31,-42,160,0
783409,29,-27,172,0
783420,28,-12,180,0
783431,34,2,193,0
783442,47,6,213,0
783453,53,7,226,0
783464,59,2,230,0
783476,59,4,228,1
783486,59,1,223,0
783497,51,-1,216,0
783508,45,-6,215,0
783519,40,-7,211,0
783530,36,-7,210,0
783541,33,-2,211,0
783553,29,0,213,0
783563,26,1,215,0
783574,29,1,213,0
783585,32,2,211,0
783596,32,0,213,0
783607,32,0,218,0
783618,31,1,220,0
783629,29,1,222,0
783640,27,3,218,0
783651,27,3,211,0
783662,26,0,207,0
783673,26,1,210,0
783684,21,1,213,0
783696,15,1,220,0
783707,11,2,227,0
783718,10,6,232,0
783729,10,10,232,0
783740,11,13,231,0
783751,14,13,229,0
783762,16,11,226,0
783773,17,8,225,0
783784,21,9,223,0
783795,22,8,222,0
783806,25,4,220,0
783817,34,1,222,0
783828,38,-4,225,0
783839,43,-12,229,0
783850,43,-10,227,0
783861,40,-5,226,0
783872,35,0,226,0
783883,32,9,230,0
783894,25,15,235,0
783905,12,18,238,0
783916,-4,24,233,0
783928,-18,23,230,0
783940,-20,27,224,1
783950,1,42,221,0
783961,6,-20,277,0
783972,3,-16,277,0
783983,-10,-1,271,0
783994,-10,38,290,0
784005,-5,32,305,0
784017,14,-2,302,0
784028,29,-3,291,0
784038,35,3,284,0
784050,61,13,276,0
784061,89,10,264,0
784072,111,6,247,0
784083,128,4,227,0
784094,137,-2,204,0
784105,136,-8,183,0
784116,127,-10,162,0
784128,110,-13,157,0
784138,97,-11,164,0
784149,89,-10,168,0
784160,76,2,182,0
784171,56,3,206,0
784182,39,4,230,0
784193,26,3,257,0
784204,13,4,276,0
784215,8,4,285,0
784226,11,8,291,0
784237,16,7,276,0
784249,18,4,261,0
784259,19,2,253,0
784270,20,2,244,0
784281,25,2,228,0
784293,27,6,230,0
784303,33,7,230,0
784314,40,4,230,0
784326,44,6,229,0
784336,47,5,225,0
784347,44,4,224,0
784358,45,2,218,0
784369,48,1,212,0
784380,47,-2,206,0
784392,45,-1,204,0
784403,38,1,200,0
784413,30,4,197,0
784424,20,6,195,0
784435,11,7,193,0
784446,1,3,195,0
784457,-1,5,197,0
784468,-2,7,202,0
784479,-2,6,205,0
784491,-3,6,209,0
784501,-2,6,214,0
784512,1,8,218,0
784523,3,15,223,0
784534,1,20,226,0
784545,0,26,235,0
784557,-5,22,245,1
784567,-11,12,248,0
784578,-14,2,249,0
784589,-13,-7,244,0
784600,-9,-3,241,0
784611,-14,9,237,0
784622,-17,16,239,0
784633,-21,21,248,0
784644,-27,17,253,0
784655,-36,15,253,0
784666,-43,19,247,0
784678,-45,20,249,0
784688,-17,3,267,0
784699,49,-3,369,0
784710,39,73,347,0
784721,16,21,320,0
784732,32,-5,266,0
784743,40,6,257,0
784754,84,-16,319,0
784765,99,5,333,0
784776,87,1,302,0
784787,63,-38,223,0
784798,44,-32,186,0
784809,45,-51,163,0
784820,42,-57,145,0
784831,38,-49,138,0
784842,35,-38,143,0
784853,36,-32,152,0
784864,39,-23,165,0
784875,47,-17,185,0
784886,58,-10,207,0
784897,64,-7,229,0
784908,65,-6,239,0
784919,56,-10,233,0
784930,53,-14,226,0
784941,50,-9,226,0
784953,47,-18,217,0
784963,35,-21,208,0
784974,25,-23,206,0
784985,21,-17,205,0
784996,24,-15,212,0
785008,25,-13,214,0
785019,24,-8,219,0
785030,24,-6,218,0
785041,26,-6,220,0
785053,28,-3,217,0
785063,26,-8,213,0
785074,24,-3,216,0
785086,17,-6,210,0
785097,10,-1,213,0
785108,9,-3,214,0
785119,4,0,218,0
785130,0,0,224,0
785141,-3,0,226,0
785153,-10,0,227,0
785163,-13,1,229,0
785174,-15,8,235,0
785185,-11,10,236,0
785196,-7,8,231,0
785207,-1,4,226,0
785218,1,5,221,0
785229,0,3,219,0
785240,3,-3,214,0
785251,15,-17,213,0
785262,20,-21,211,0
785273,25,-22,212,0
785284,27,-20,215,0
785295,28,-14,218,0
785306,28,-6,221,0
785317,23,1,226,0
785328,15,1,229,0
785339,6,1,229,0
785351,-1,1,227,1
785361,-5,3,224,0
785372,-11,8,220,0
785383,1,15,209,0
785394,9,15,235,0
785405,-7,-41,266,0
785417,-22,-18,262,0
785428,-52,-4,288,0
785438,-43,13,295,0
785449,-32,31,291,0
785460,-19,12,299,0
785472,1,-2,304,0
785482,25,0,297,0
785493,55,7,296,0
785504,85,16,289,0
785515,106,21,283,0
785526,126,22,279,0
785537,130,21,259,0
785548,129,13,230,0
785559,128,0,197,0
785570,122,-11,173,0
785581,108,-29,143,0
785593,101,-35,139,0
785603,94,-30,153,0
785614,85,-25,169,0
785625,76,-24,187,0
785636,74,-17,202,0
785647,73,-11,209,0
785658,66,-1,222,0
785669,55,12,240,0
785680,39,25,259,0
785692,32,31,283,0
785703,26,27,293,0
785713,15,22,285,0
785724,14,15,276,0
785735,8,6,263,0
785746,1,0,235,0
785757,4,0,223,0
785768,8,0,212,0
785779,10,3,213,0
785791,12,9,219,0
785801,15,14,224,0
785812,13,13,222,0
785823,12,14,223,0
785834,10,13,219,0
785845,9,10,216,0
785856,7,10,213,0
785867,6,5,212,0
785878,3,3,210,0
785889,2,2,208,0
785900,2,1,204,0
785911,-1,-13,200,0
785922,0,-17,202,0
785933,2,-21,195,0
785944,5,-13,181,0
785955,7,8,173,0
785966,-1,13,197,0
785978,-5,1,218,0
785988,-3,2,222,0
785999,-11,11,219,0
786010,-11,16,216,0
786021,-17,41,224,0
786033,-27,46,244,1
786043,-27,16,260,0
786054,-19,-2,265,0
786065,-9,-2,259,0
786076,-14,9,259,0
786087,-15,-6,264,0
786098,8,-27,291,0
786109,51,-1,365,0
786120,39,38,343,0
786131,39,-6,317,0
786142,44,-37,290,0
786153,21,-29,256,0
786164,18,-23,242,0
786175,49,-33,288,0
786186,61,4,303,0
786197,49,10,301,0
786208,44,-23,286,0
786219,33,-25,238,0
786230,9,-20,199,0
786241,7,-44,183,0
786253,15,-45,180,0
786263,23,-36,175,0
786274,17,-31,173,0
786285,23,-22,182,0
786296,42,-14,194,0
786307,55,-5,200,0
786318,64,8,209,0
786329,64,17,218,0
786341,57,17,222,0
786351,47,14,225,0
786362,42,12,224,0
786374,34,8,218,0
786384,33,0,216,0
786395,39,-10,212,0
786406,60,-22,211,0
786417,64,-21,215,0
786428,64,-22,217,0
786439,64,-20,217,0
786450,64,-11,217,0
786461,59,-3,223,0
786472,48,1,231,0
786483,38,3,231,0
786494,28,5,229,0
786505,20,3,226,0
786516,12,3,227,0
786528,3,1,225,0
786538,-4,-1,223,0
786549,-11,0,222,0
786560,-16,-1,221,0
786571,-23,-1,223,0
786582,-25,0,228,0
786593,-23,0,231,0
786604,-18,0,234,0
786615,-13,0,233,0
786626,-10,0,233,0
786637,-7,0,230,0
786648,-2,1,228,0
786659,1,5,228,0
786670,2,8,222,0
786681,9,5,226,0
786693,12,0,224,0
786703,15,-3,222,0
786714,21,-13,218,0
786725,20,-16,215,0
786736,19,-21,221,0
786747,16,-24,217,0
786758,13,-24,218,0
786769,13,-18,221,0
786780,11,-12,225,0
786792,9,-9,227,0
786803,3,-8,226,0
786813,-5,-9,221,0
786825,-11,-6,218,1
786835,-16,-1,212,0
786846,-8,1,206,0
786857,11,-5,213,0
786868,15,-36,239,0
786879,28,-47,229,0
786891,17,-27,218,0
786901,-10,-2,253,0
786912,-9,-11,266,0
786923,0,-10,262,0
786934,1,-6,261,0
786945,7,-9,262,0
786956,10,-1,264,0
786967,14,10,271,0
786978,24,19,277,0
786989,39,24,286,0
787001,49,29,283,0
787012,56,30,279,0
787023,57,26,271,0
787034,56,18,254,0
787045,52,10,240,0
787056,40,-4,221,0
787067,36,-8,213,0
787078,33,-9,209,0
787089,37,-10,205,0
787100,40,-9,199,0
787111,45,-8,194,0
787122,50,-11,189,0
787133,57,-13,184,0
787144,63,-13,180,0
787155,71,-12,185,0
787166,75,-10,187,0
787178,77,-12,193,0
787188,76,-10,205,0
787199,70,-10,213,0
787210,63,-6,222,0
787221,40,3,245,0
787232,25,4,252,0
787243,13,7,261,0
787254,8,10,270,0
787265,8,7,270,0
787276,6,4,267,0
787287,9,3,263,0
787298,13,5,256,0
787309,16,4,248,0
787320,19,3,239,0
787331,23,4,239,0
787342,24,5,236,0
787353,27,3,235,0
787364,27,4,235,0
787375,27,5,231,0
787386,20,5,221,0
787397,13,9,220,0
787409,7,10,216,0
787420,1,12,214,0
787431,0,14,214,0
787442,0,14,212,0
787453,-2,13,210,0
787464,-2,13,213,0
787475,-2,14,214,0
787486,-2,16,216,0
787497,-1,16,218,0
787508,0,22,220,0
787519,2,26,216,0
787530,4,28,218,0
787542,9,42,220,1
787553,8,52,221,0
787563,12,57,228,0
787574,17,43,232,0
787585,14,31,234,0
787596,19,11,234,0
787607,20,-2,238,0
787618,22,-1,234,0
787629,28,7,227,0
787640,43,28,229,0
787651,62,56,236,0
787662,72,72,240,0
787673,72,78,240,0
787684,91,75,256,0
787695,110,79,299,0
787706,81,84,283,0
787717,83,46,239,0
787728,84,15,217,0
787739,73,15,218,0
787750,65,23,210,0
787762,59,18,202,0
787772,53,8,194,0
787783,47,13,190,0
787794,51,22,188,0
787806,54,36,191,0
787816,56,52,196,0
787828,64,60,199,0
787838,69,69,202,0
787849,73,74,205,0
787860,75,76,212,0
787871,70,73,216,0
787882,70,70,215,0
787893,71,72,212,0
787904,72,70,210,0
787916,74,71,211,0
787926,76,70,215,0
787937,78,69,216,0
787948,78,68,219,0
787959,79,66,222,0
787970,81,62,226,0
787981,83,61,228,0
787993,88,62,227,0
788003,91,63,230,0
788014,93,63,229,0
788025,91,60,236,0
788036,98,68,208,0
788047,89,67,194,0
788058,84,63,194,0
788069,82,57,193,0
788080,80,56,196,0
788092,79,58,205,0
788103,77,56,214,0
788113,81,53,227,0
788124,84,51,232,0
788135,86,53,230,0
788146,81,55,224,0
788157,77,56,218,0
788168,73,57,213,0
788179,68,58,213,0
788191,66,58,212,0
788201,59,62,223,0
788212,52,63,225,0
788224,49,61,226,0
788234,49,57,227,0
788245,50,52,227,0
788256,50,50,227,0
788267,54,50,222,0
788278,58,53,220,0
788289,58,53,218,0
788300,60,54,219,0
788311,61,52,215,0
788322,62,53,218,0
788333,62,51,220,0
788344,59,52,223,0
788355,55,56,223,0
788366,46,57,223,0
788378,44,56,220,0
788388,41,58,218,0
788399,38,57,221,0
788410,33,59,219,0
788421,30,58,218,0
788433,24,61,219,0
788443,15,64,224,0
788454,9,67,222,0
788465,5,65,222,0
788476,7,62,221,0
788487,16,46,215,0
788499,29,32,209,1
788509,40,31,214,0
788521,44,42,214,0
788531,39,35,211,0
788542,28,56,216,0
788553,28,57,210,0
788564,32,55,200,0
788575,34,49,197,0
788586,43,30,193,0
788597,59,15,192,0
788608,66,6,197,0
788619,71,-2,215,0
788630,73,-6,240,0
788641,74,-2,253,0
788653,65,12,273,0
788663,47,20,308,0
788674,25,25,339,0
788685,5,19,356,0
788696,-26,13,340,0
788707,-33,10,318,0
788718,-39,10,300,0
788729,-32,6,276,0
788740,-20,6,251,0
788751,-6,7,227,0
788762,5,4,204,0
788773,17,3,189,0
788784,26,3,179,0
788795,37,1,176,0
788806,41,1,183,0
788817,42,1,191,0
788828,33,1,194,0
788839,26,2,199,0
788850,26,3,206,0
788861,24,11,219,0
788872,23,10,224,0
788883,24,8,218,0
788894,20,10,210,0
788905,19,11,203,0
788917,15,11,199,0
788928,10,15,201,0
788938,6,16,203,0
788949,3,19,210,0
788960,1,25,219,0
788971,-1,30,232,0
788982,-1,31,238,0
788993,0,30,241,0
789004,0,30,242,0
789015,0,31,245,0
789026,-1,32,248,0
789037,-6,32,244,0
789048,-8,29,240,0
789059,-11,25,237,0
789070,-13,21,233,0
789081,-14,17,231,0
789093,-16,15,230,0
789103,-16,12,226,0
789114,-13,11,219,0
789125,-7,10,219,0
789136,-1,12,217,0
789147,3,14,221,0
789158,6,14,223,0
789169,5,13,226,0
789180,1,9,228,0
789192,0,4,236,0
789203,-3,27,222,0
789213,-17,30,230,0
789224,-23,29,239,0
789235,-25,24,237,0
789246,-21,33,236,0
789257,-27,44,235,0
789268,-32,41,237,0
789279,-26,30,242,0
789291,38,1,297,0
789302,83,34,383,1
789312,48,62,345,0
789323,79,-5,317,0
789334,95,-10,287,0
789345,113,-4,305,0
789356,113,1,327,0
789367,64,1,256,0
789378,33,-6,244,0
789389,5,-19,217,0
789400,-7,-25,183,0
789411,-7,-46,152,0
789422,-4,-54,136,0
789433,4,-52,137,0
789444,14,-47,143,0
789455,19,-45,153,0
789466,42,73,106,0
789478,37,-86,232,0
789488,73,-10,200,0
789499,76,-43,218,0
789510,84,-37,215,0
789521,82,-31,219,0
789532,73,-29,217,0
789543,64,-29,214,0
789554,54,-28,206,0
789565,47,-33,200,0
789576,45,-30,205,0
789587,45,-27,209,0
789598,45,-25,214,0
789609,48,-21,217,0
789620,51,-22,213,0
789631,50,-19,212,0
789642,53,-19,213,0
789653,59,-13,216,0
789664,58,-10,216,0
789675,59,-4,219,0
789686,62,0,224,0
789697,52,-1,218,0
789708,46,-1,217,0
789719,39,-1,220,0
789730,27,-2,219,0
789741,16,-7,217,0
789753,8,-8,219,0
789763,1,-2,226,0
789774,-5,-1,228,0
789785,-6,-4,227,0
789796,-3,-6,229,0
789807,-3,-1,229,0
789818,1,0,234,0
789829,10,0,236,0
789840,14,0,235,0
789851,18,1,233,0
789862,20,0,227,0
789873,21,1,225,0
789884,19,2,221,0
789895,17,1,217,0
789906,15,3,214,0
789917,15,3,218,0
789928,14,2,221,0
789939,14,0,224,0
789950,14,0,224,0
789961,16,0,224,0
789972,18,0,224,0
789983,21,-2,225,0
789994,23,-5,225,0
790005,22,-6,228,0
790016,17,-10,231,0
790028,-3,-15,233,0
790038,-13,-16,229,0
790049,-19,-16,229,0
790060,4,7,214,0
790071,38,59,236,0
790083,27,-29,289,1
790093,43,-28,289,0
790104,28,15,264,0
790115,18,5,272,0
790126,20,-15,310,0
790137,30,-22,316,0
790149,35,-16,302,0
790159,59,-9,292,0
790170,85,-2,280,0
790181,101,-1,263,0
790193,126,4,206,0
790203,130,16,185,0
790214,126,15,165,0
790225,126,18,164,0
790236,119,23,171,0
790247,99,23,184,0
790258,76,24,198,0
790269,53,21,208,0
790280,31,24,224,0
790292,9,22,243,0
790303,-6,18,257,0
790313,-10,11,264,0
790324,-4,8,267,0
790335,13,6,261,0
790346,27,4,247,0
790357,50,9,231,0
790368,60,9,222,0
790379,65,6,218,0
790391,66,7,217,0
790401,67,6,217,0
790412,65,7,222,0
790423,59,7,215,0
790434,51,6,204,0
790445,56,3,209,0
790456,44,8,200,0
790467,30,3,196,0
790478,16,2,196,0
790489,4,4,207,0
790500,0,9,213,0
790511,-9,9,209,0
790522,-24,8,203,0
790533,-28,10,198,0
790544,-30,10,200,0
790555,-31,9,201,0
790566,-29,12,205,0
790578,-25,13,210,0
790588,-21,14,217,0
790599,-16,13,217,0
790610,-8,16,231,0
790621,0,15,231,0
790632,3,16,228,0
790643,0,12,229,0
790654,-5,3,234,0
790665,-12,0,241,0
790678,-15,5,256,0
790688,-15,13,259,0
790699,-18,23,260,0
790710,-19,26,257,0
790721,8,13,277,0
790733,59,19,368,1
790743,68,89,368,0
790754,69,21,394,0
790765,102,-26,385,0
790776,107,4,371,0
790787,68,28,338,0
790798,37,-3,267,0
790809,-8,4,180,0
790820,-10,-139,266,0
790831,2,-34,163,0
790842,9,-52,153,0
790853,28,-25,166,0
790865,38,-23,172,1
790875,43,-2,176,0
790886,45,-2,183,0
790897,49,0,184,0
790908,58,-2,191,0
790919,65,1,203,0
790930,76,-4,208,0
790941,80,-11,208,0
790953,82,-18,204,0
790964,84,-21,202,0
790975,78,-19,206,0
790986,55,-11,213,0
790997,40,-8,213,0
791008,30,-5,215,0
791019,29,-4,216,0
791030,28,-6,218,0
791041,32,-4,224,0
791053,36,3,223,0
791063,43,2,224,0
791074,42,2,227,0
791085,43,3,223,0
791096,39,6,219,0
791107,36,2,209,0
791118,36,0,201,0
791129,32,0,199,0
791140,24,4,205,0
791151,10,5,222,0
791162,3,5,229,0
791173,-1,8,238,0
791185,-7,8,244,0
791195,-11,10,243,0
791206,-12,9,241,0
791217,-7,5,237,0
791228,-2,1,236,0
791239,-1,-2,230,0
791250,3,-10,222,0
791261,6,-13,214,0
791272,14,-14,208,0
791283,21,-16,210,0
791294,26,-17,211,0
791305,28,-16,214,0
791316,19,-12,220,0
791328,11,-8,222,0
791338,4,-2,225,0
791349,0,0,230,0
791360,-5,1,232,0
791371,-11,2,230,0
791382,-18,1,226,0
791393,-28,0,227,0
791404,-35,1,231,0
791416,-37,5,230,0
791427,-33,10,227,1
791437,-19,11,234,0
791448,-28,-16,264,0
791459,-26,-14,269,0
791470,-27,-3,259,0
791481,-2,8,252,0
791493,5,25,261,0
791503,3,3,270,0
791514,24,-18,290,0
791525,42,-22,293,0
791536,60,-17,301,0
791547,83,-3,311,0
791558,101,13,309,0
791569,116,22,294,0
791580,132,22,276,0
791592,135,22,242,0
791603,138,13,214,0
791613,137,0,184,0
791624,131,-10,161,0
791635,128,-23,149,0
791646,120,-32,154,0
791657,114,-25,166,0
791668,104,-23,178,0
791679,91,-18,186,0
791691,77,-1,192,0
791701,65,19,228,0
791712,51,16,241,0
791723,38,27,272,0
791734,28,30,295,0
791745,15,31,294,0
791756,9,29,285,0
791767,7,22,280,0
791778,6,22,264,0
791789,3,14,240,0
791800,6,12,218,0
791811,4,9,202,0
791822,7,14,204,0
791833,12,14,211,0
791844,12,13,207,0
791855,14,11,207,0
791866,13,10,201,0
791878,14,9,201,0
791888,12,4,194,0
791899,11,1,193,0
791910,8,1,195,0
791921,3,0,197,0
791932,-2,-2,199,0
791943,-6,-6,201,0
791954,-13,-9,205,0
791965,-18,-14,206,0
791976,-20,-16,205,0
791987,-20,-17,214,0
791998,-18,-16,219,0
792011,-19,-11,228,0
792021,-20,-11,230,0
792032,-21,-9,228,0
792043,-20,-3,232,0
792054,-30,26,242,0
792065,-42,22,248,0
792076,-49,14,256,0
792087,-47,4,255,0
792098,-40,0,253,0
792109,-29,-4,247,0
792121,-16,-10,245,0
792132,51,-27,326,1
792142,82,27,386,0
792153,76,37,350,0
792164,80,-6,326,0
792175,72,-21,311,0
792186,64,-25,307,0
792197,56,-25,316,0
792209,42,-18,295,0
792219,20,-25,259,0
792230,5,-40,226,0
792241,4,-41,199,0
792253,4,-41,185,0
792263,10,-39,175,0
792274,22,-25,155,0
792285,34,-11,191,0
792296,71,5,177,0
792307,84,-5,189,0
792318,90,-5,194,0
792329,90,7,211,0
792341,98,-1,217,0
792353,94,-4,217,0
792363,87,-3,215,0
792374,79,-6,211,0
792385,74,-8,213,0
792396,74,-5,216,0
792407,76,-8,212,0
792418,77,-6,211,0
792429,78,-4,208,0
792440,79,0,210,0
792451,65,2,220,0
792462,61,3,226,0
792473,62,5,228,0
792484,63,5,226,0
792495,62,6,225,0
792506,60,6,220,0
792517,54,6,219,0
792528,51,4,218,0
792539,45,7,218,0
792550,37,4,218,0
792561,34,5,223,0
792572,28,7,220,0
792583,20,9,223,0
792594,17,8,224,0
792605,15,8,226,0
792617,10,6,230,0
792628,10,6,233,0
792638,11,8,232,0
792649,9,8,230,0
792660,3,9,228,0
792671,0,7,225,0
792682,0,6,226,0
792693,0,6,228,0
792704,0,3,225,0
792715,0,2,221,0
792727,-3,1,219,0
792737,-6,2,222,0
792748,-7,0,219,0
792759,-9,3,219,0
792770,-8,1,223,0
792781,-10,-3,217,0
792793,-11,-5,215,0
792803,-12,-1,216,0
792814,-13,-1,221,0
792825,-16,-2,223,0
792836,-17,-6,223,0
792847,-17,-8,224,0
792858,-18,-2,223,0
792869,-22,-2,225,0
792880,-28,-9,226,0
792892,-35,-18,228,0
792903,-38,-13,230,0
792913,-40,-11,235,0
792924,-42,-11,240,0
792936,-19,2,232,1
792946,22,17,239,0
792957,6,-46,285,0
792968,22,-49,273,0
792979,10,-26,259,0
792991,-12,-24,283,0
793001,-12,-15,318,0
793012,-1,-4,323,0
793023,14,9,317,0
793034,30,16,307,0
793045,50,10,289,0
793056,68,6,273,0
793067,83,9,258,0
793078,95,15,240,0
793089,106,15,223,0
793100,113,11,210,0
793111,120,4,181,0
793123,118,0,167,0
793133,117,-2,157,0
793144,110,-1,153,0
793155,102,-2,148,0
793166,99,-4,151,0
793178,99,-4,162,0
793188,94,0,182,0
793199,97,1,202,0
793210,98,8,222,0
793221,96,9,244,0
793233,97,11,257,0
793243,86,20,259,0
793254,72,28,261,0
793265,55,28,259,0
793276,33,28,264,0
793287,21,25,253,0
793298,17,18,249,0
793309,9,13,244,0
793320,1,11,236,0
793332,0,10,232,0
793342,-2,14,237,0
793353,0,8,238,0
793364,1,3,225,0
793375,8,4,232,0
793386,8,-1,224,0
793397,9,-2,220,0
793408,11,-5,217,0
793419,11,-6,212,0
793430,13,-7,205,0
793441,14,-9,203,0
793453,12,-7,201,0
793463,13,-17,202,0
793474,14,-2,201,0
793485,5,-11,212,0
793496,3,-28,219,0
793507,8,-34,215,0
793518,13,-18,191,0
793529,5,6,183,0
793540,-7,4,200,0
793551,-6,-8,218,0
793562,-1,-9,213,0
793573,-2,4,201,0
793584,-9,12,198,0
793595,-16,12,203,0
793606,-20,44,226,0
793617,-28,25,245,0
793628,-16,4,249,0
793639,-2,-3,245,0
793650,10,-14,245,0
793661,20,-9,251,0
793672,14,1,254,0
793683,1,2,257,0
793694,-13,-2,259,0
793705,-5,-15,279,0
793716,28,-11,351,0
793728,23,21,346,0
793739,17,-4,305,1
793749,28,-30,283,0
793760,31,-26,265,0
793771,89,4,343,0
793782,72,5,313,0
793793,59,1,257,0
793804,56,-13,234,0
793815,41,-10,217,0
793826,23,-17,193,0
793837,19,-31,173,0
793848,20,-37,170,0
793859,24,-36,171,0
793870,31,-30,175,0
793881,36,-26,177,0
793893,45,-21,180,0
793903,54,-10,188,0
793914,67,-4,198,0
793925,80,3,203,0
793936,94,10,223,0
793947,99,15,234,0
793958,94,17,233,0
793969,91,10,221,0
793980,84,7,217,0
793992,79,4,217,0
794003,74,2,218,0
794013,70,2,216,0
794024,69,-1,220,0
794035,65,-1,218,0
794046,56,0,219,0
794057,48,0,223,0
794068,38,2,228,0
794079,34,7,229,0
794091,33,8,227,0
794101,25,8,227,0
794112,17,6,226,0
794123,14,5,226,0
794134,10,4,225,0
794145,4,3,227,0
794156,2,1,223,0
794167,-1,-1,224,0
794178,-3,-1,223,0
794189,-4,0,223,0
794200,-7,-1,225,0
794211,-5,0,229,0
794222,-5,1,231,0
794233,-4,1,233,0
794244,-3,2,232,0
794255,-5,5,232,0
794266,-8,6,229,0
794278,-10,4,227,0
794288,-11,1,225,0
794299,-11,-2,223,0
794310,-12,-8,222,0
794321,-10,-9,217,0
794332,-11,-9,216,0
794343,-10,-11,217,0
794354,-3,-11,217,0
794365,2,-9,216,0
794376,6,-6,219,0
794387,10,-1,223,0
794398,9,0,223,0
794409,8,-1,222,0
794420,4,1,223,0
794431,-2,4,217,0
794442,-6,9,216,0
794453,5,13,212,0
794464,12,8,240,0
794475,4,-42,256,0
794486,6,-27,240,0
794497,-14,-7,229,0
794508,-21,7,242,0
794520,-10,29,263,1
794530,-2,25,279,0
794541,3,15,288,0
794553,3,18,291,0
794563,7,21,291,0
794574,28,12,292,0
794585,54,15,289,0
794596,85,16,277,0
794607,89,11,259,0
794618,91,2,237,0
794630,93,-1,215,1
794640,94,-7,196,0
794651,91,-13,183,0
794662,93,-22,174,0
794673,95,-23,169,0
794684,97,-24,166,0
794695,97,-24,167,0
794706,94,-23,167,0
794717,97,-21,174,0
794728,96,-18,184,0
794739,93,-15,195,0
794750,95,-13,206,0
794761,89,4,224,0
794772,86,13,238,0
794783,74,17,252,0
794794,62,20,264,0
794805,49,18,273,0
794816,32,20,282,0
794828,17,23,282,0
794838,8,18,280,0
794849,6,12,270,0
794860,3,6,255,0
794871,4,3,243,0
794882,8,6,240,0
794893,12,5,232,0
794904,13,4,229,0
794916,15,8,230,0
794926,15,11,224,0
794937,14,7,220,0
794948,11,5,221,0
794959,10,6,220,0
794970,7,5,219,0
794981,3,4,215,0
794993,0,6,215,0
795003,-4,7,213,0
795014,-5,4,205,0
795025,-7,2,205,0
795036,-11,4,205,0
795047,-11,5,205,0
795058,-12,8,206,0
795069,-14,11,209,0
795080,-15,14,211,0
795092,-14,14,211,0
795103,-10,8,207,0
795113,-4,5,206,0
795124,-1,5,212,0
795136,-1,12,210,1
795146,-9,19,218,0
795157,-16,6,228,0
795168,-10,1,226,0
795179,-9,11,221,0
795191,-13,22,234,0
795201,-15,31,252,0
795212,-24,46,260,0
795223,-30,31,264,0
795234,-14,18,284,0
795245,29,10,342,0
795256,26,35,340,0
795267,46,-26,325,0
795278,68,-42,336,0
795289,71,-13,341,0
795301,50,2,317,1
795311,34,-4,258,0
795322,26,-4,223,0
795333,-3,-21,214,0
795344,-16,-21,193,0
795355,-7,-22,183,0
795366,0,-34,181,0
795378,11,-31,185,0
795388,26,-36,185,0
795399,39,-29,182,0
795410,48,-26,186,0
795422,79,-17,200,0
795432,91,-7,198,0
795443,97,-3,202,0
795454,99,1,205,0
795465,97,1,206,0
795476,90,-1,208,0
795487,78,-2,210,0
795499,66,-3,215,0
795509,58,-4,220,0
795520,58,-6,222,0
795531,59,-12,218,0
795542,58,-16,215,0
795553,58,-14,217,0
795564,60,-14,218,0
795575,56,-13,217,0
795586,49,-13,217,0
795597,46,-12,221,0
795608,42,-4,223,0
795619,40,-1,226,0
795630,38,2,226,0
795642,36,1,227,0
795653,35,0,224,0
795663,32,0,224,0
795674,31,0,224,0
795685,27,0,223,0
795696,22,-1,222,0
795707,20,-1,224,0
795718,15,-1,226,0
795729,13,-1,225,0
795740,11,0,227,0
795751,8,-4,229,0
795762,7,0,230,0
795773,6,1,230,0
795784,7,2,229,0
795795,8,2,231,0
795806,10,3,226,0
795817,13,2,226,0
795828,16,0,226,0
795839,19,-1,224,0
795850,21,0,224,0
795861,23,-8,225,0
795872,26,-10,227,0
795883,26,-10,227,0
795894,26,-10,224,0
795905,23,-4,223,0
795917,19,1,225,0
795928,16,12,228,0
795938,12,16,230,0
795949,11,14,228,0
795960,9,10,223,0
795971,9,8,217,0
795982,9,10,213,0
795993,9,14,214,0
796004,10,20,217,0
796015,17,14,219,0
796026,29,3,231,0
796037,28,-27,252,0
796048,31,-27,248,0
796059,20,-5,238,0
796071,3,-1,250,1
796081,-1,12,260,0
796093,0,5,264,0
796104,5,4,268,0
796115,15,9,269,0
796126,24,13,276,0
796137,38,14,279,0
796149,59,14,277,0
796159,72,17,270,0
796170,80,17,265,0
796181,79,12,255,0
796193,73,8,242,0
796203,73,4,232,0
796214,67,-1,222,0
796225,63,-3,216,0
796236,58,-16,217,0
796247,56,-18,218,0
796259,58,-17,214,0
796270,59,-21,210,0
796281,62,-24,203,0
796293,64,-24,198,0
796303,66,-26,195,0
796314,67,-22,195,0
796325,65,-18,199,0
796336,60,-15,203,0
796347,56,-11,212,0
796358,53,-7,214,0
796369,39,2,215,0
796380,25,3,223,0
796392,-2,10,242,0
796403,-15,10,246,0
796413,-27,9,248,0
796424,-32,7,249,0
796435,-34,4,250,0
796446,-33,3,250,0
796457,-33,1,245,0
796468,-30,-1,248,0
796479,-20,-1,240,0
796491,-11,0,235,0
796501,0,0,230,0
796512,11,-1,226,0
796523,22,2,225,0
796534,30,2,223,0
796545,37,1,222,0
796556,49,0,216,0
796567,54,0,217,0
796578,57,-2,215,0
796589,57,-2,214,0
796600,57,-4,213,0
796611,57,-4,213,0
796622,56,-3,214,0
796634,52,-5,210,0
796644,51,-5,207,0
796655,50,-4,208,0
796666,46,-4,206,0
796678,42,0,208,0
796688,39,2,210,0
796699,33,3,209,0
796710,29,8,214,0
796721,24,15,223,0
796732,22,15,230,0
796743,18,14,234,0
796754,18,12,235,0
796765,17,10,233,0
796776,13,9,231,0
796787,10,6,229,0
796798,5,3,229,0
796809,3,2,229,0
796820,2,1,226,0
796831,0,1,226,0
796842,-2,5,226,0
796853,-5,10,231,0
796865,-9,17,234,0
796875,-13,19,237,0
796886,-19,28,247,0
796897,-24,29,249,0
796908,-28,29,251,0
796919,-32,24,255,0
796931,-27,18,263,1
796941,3,3,295,0
796953,33,7,342,0
796963,41,29,345,0
796974,53,9,314,0
796985,52,-5,276,0
796996,51,-25,266,0
797007,72,-30,282,0
797018,78,-19,287,0
797029,61,-13,265,0
797040,38,-14,246,0
797051,2,-15,219,0
797062,-7,-20,202,0
797073,-9,-27,189,0
797084,-6,-35,180,0
797095,-3,-34,177,0
797107,2,-26,185,0
797117,16,-20,196,0
797128,29,3,189,0
797139,39,-78,291,0
797150,76,-33,202,0
797162,86,-6,232,0
797173,92,-29,214,0
797184,90,-17,209,0
797195,87,-20,212,0
797206,76,-22,208,0
797217,68,-19,210,0
797228,64,-16,209,0
797239,58,-14,212,0
797250,52,-12,215,0
797261,52,-15,217,0
797272,55,-18,219,0
797283,61,-17,221,0
797294,67,-15,221,0
797305,67,-13,226,0
797317,68,-13,225,0
797328,65,-15,225,0
797338,59,-11,224,0
797349,53,-10,223,0
797360,53,-7,222,0
797371,55,-5,220,0
797382,55,-8,223,0
797393,57,-2,227,0
797404,58,-1,226,0
797416,57,-2,227,0
797428,54,-3,224,0
797438,51,-3,222,0
797449,51,-4,224,0
797460,48,-1,225,0
797471,46,-2,227,0
797482,44,-1,228,0
797493,40,0,230,0
797504,36,-2,231,0
797515,36,-3,231,0
797526,34,-9,231,0
797537,31,-10,230,0
797548,30,-12,230,0
797559,29,-13,228,0
797570,25,-8,228,0
797581,24,-9,229,0
797593,24,-9,229,0
797603,23,-10,229,0
797614,25,-7,228,0
797625,24,-5,229,0
797636,23,-4,230,0
797647,21,-1,231,0
797658,21,1,231,0
797669,22,2,235,0
797680,19,3,236,0
797692,16,4,236,0
797703,15,3,237,0
797713,12,2,236,0
797724,10,0,232,0
797735,10,1,230,0
797746,13,1,230,0
797757,14,4,234,0
797768,16,8,235,0
797779,17,10,236,0
797792,18,14,237,0
797803,17,15,236,0
797813,17,18,233,0
797824,14,24,231,0
797836,4,30,230,1
797846,1,31,227,0
797857,-2,30,228,0
797868,8,7,225,0
797879,1,-40,251,0
797891,8,-42,223,0
797901,5,-9,195,0
797912,-19,-12,193,0
797923,-21,-12,203,0
797934,-14,-16,221,0
797945,-11,-52,227,0
797956,2,-52,217,0
797967,7,-39,216,0
797978,9,-33,223,0
797989,14,-24,243,0
798000,65,5,265,0
798011,89,20,269,0
798023,104,24,265,0
798033,114,20,258,0
798044,108,14,251,0
798055,98,1,240,0
798066,95,-12,237,0
798078,87,-12,235,0
798088,74,-14,230,0
798099,61,-16,228,0
798110,51,-19,224,0
798121,49,-20,222,0
798132,48,-18,221,0
798143,55,-15,222,0
798154,63,-9,221,0
798165,72,-3,220,0
798176,72,2,216,0
798187,68,1,214,0
798198,67,0,209,0
798209,65,-6,207,0
798220,67,-9,209,0
798231,65,-11,212,0
798242,64,-12,217,0
798253,65,-13,220,0
798264,64,-15,224,0
798275,64,-17,228,0
798286,62,-19,228,0
798297,66,-21,234,0
798308,71,-24,235,0
798319,75,-22,233,0
798330,79,-21,230,0
798341,79,-18,225,0
798353,79,-22,224,0
798363,79,-22,222,0
798374,78,-17,221,0
798385,72,-20,220,0
798396,67,-23,222,0
798407,64,-27,224,0
798418,63,-22,221,0
798429,57,-15,224,0
798440,53,-20,233,0
798451,48,-23,233,0
798462,44,-19,229,0
798473,38,-21,232,0
798484,35,-25,232,0
798495,31,-26,232,0
798506,25,-23,230,0
798517,24,-23,231,0
798528,26,-23,231,0
798539,27,-22,231,0
798550,28,-21,228,0
798561,32,-21,227,0
798572,35,-23,226,0
798583,37,-24,228,0
798594,40,-24,228,0
798605,44,-22,229,0
798616,50,-19,231,0
798628,55,-17,233,0
798638,60,-14,235,0
798649,61,-14,234,0
798660,61,-15,232,0
798671,54,-21,232,0
798682,49,-21,230,0
798693,44,-22,227,0
798704,39,-26,220,0
798715,33,-26,216,0
798726,25,-29,215,0
798737,21,-29,215,0
798748,19,-32,218,0
798759,15,-33,217,0
798770,10,-33,217,0
798781,7,-34,219,0
798793,6,-36,221,0
798803,3,-37,223,0
798814,4,-39,228,0
798825,4,-41,229,0
798836,7,-41,227,0
798847,10,-40,225,0
798858,13,-43,224,0
798869,16,-42,221,0
798880,19,-41,218,0
798892,21,-41,217,0
798903,24,-40,212,0
798914,26,-38,208,0
798925,28,-37,208,0
798936,30,-34,206,0
798947,31,-34,207,0
798958,33,-33,207,0
798969,33,-32,209,0
798980,34,-34,212,0
798993,31,-33,212,0
799003,30,-32,211,0
799014,27,-30,211,0
799025,27,-29,210,0
799036,28,-30,210,0
799047,25,-27,212,0
799058,23,-28,214,0
799070,21,-27,214,0
799080,20,-27,215,0
799092,18,-24,221,0
799103,22,-25,225,0
799113,33,-27,237,0
799124,53,-26,267,0
799136,69,-11,319,1
799146,81,-16,311,0
799157,87,-12,300,0
799168,87,-16,283,0
799179,90,-28,270,0
799191,88,-29,256,0
799201,78,-30,239,0
799212,67,-30,227,0
799223,60,-37,223,0
799234,55,-45,221,0
799245,55,-50,214,0
799256,49,-51,205,0
799267,44,-50,193,0
799278,44,-40,191,0
799289,45,-37,193,0
799301,45,-27,209,0
799311,51,-27,212,0
799322,57,-22,211,0
799333,64,-18,212,0
799344,69,-18,207,0
799355,75,-16,206,0
799366,84,-13,202,0
799378,87,-14,205,0
799388,88,-9,211,0
799399,87,-14,210,0
799410,90,-18,210,0
799421,93,-20,208,0
799432,95,-16,212,0
799443,96,-17,214,0
799454,98,-15,213,0
799465,93,-12,213,0
799477,84,0,218,0
799487,79,6,222,0
799498,76,10,224,0
799509,75,9,225,0
799520,74,9,226,0
799531,71,11,229,0
799542,69,9,228,0
799553,67,8,230,0
799564,66,11,232,0
799575,65,11,230,0
799586,66,9,228,0
799597,65,9,230,0
799608,63,8,230,0
799620,60,5,235,0
799630,58,6,235,0
799641,50,4,230,0
799653,49,3,226,0
799663,42,6,224,0
799674,37,7,224,0
799685,36,10,226,0
799697,36,11,229,0
799707,31,17,231,0
799718,28,19,235,0
799729,23,17,238,0
799740,17,15,244,0
799751,14,6,247,0
799762,13,2,246,0
799773,12,0,242,0
799784,14,-7,238,0
799795,23,-7,234,0
799806,41,-14,227,0
799817,42,-9,224,0
799828,39,-8,221,0
799839,37,-7,222,0
799850,31,-5,223,0
799861,23,-7,228,0
799872,13,-6,225,0
799883,4,-5,219,0
799894,0,1,219,0
799905,-6,2,217,0
799917,-10,-2,217,0
799928,-12,-4,216,0
799938,-10,-2,223,0
799949,-6,1,227,0
799960,-1,1,231,0
799971,7,-1,232,0
799982,7,-3,233,0
799994,7,-9,233,0
800005,5,-12,229,0
800016,4,-14,226,0
800028,2,-18,224,0
800038,3,-20,224,0
800049,3,-19,224,0
800060,1,-13,224,0
800071,0,-10,229,0
800082,-1,-7,234,0
800094,-4,-6,242,1
800104,-3,-4,244,0
800115,17,1,239,0
800126,12,-47,281,0
800137,11,-33,267,0
800149,2,-23,253,0
800159,1,-15,259,0
800170,2,-12,280,0
800181,15,-12,286,0
800193,20,-1,284,0
800203,25,10,286,0
800214,47,24,290,0
800225,76,48,287,0
800236,103,62,275,0
800247,125,60,254,0
800258,144,51,229,0
800269,148,44,199,0
800280,144,27,168,0
800292,121,4,138,0
800303,102,0,140,0
800313,86,-5,152,0
800324,69,2,172,0
800335,55,1,184,0
800346,41,4,202,0
800357,34,16,222,0
800368,20,27,241,0
800379,9,26,255,0
800391,9,30,262,0
800401,7,26,269,0
800412,4,30,274,0
800423,1,31,270,0
800434,1,24,267,0
800445,2,16,259,0
800456,8,5,240,0
800467,14,1,230,0
800478,22,-3,221,0
800489,24,-12,207,0
800500,32,-9,208,0
800511,31,-5,203,0
800522,30,-9,200,0
800533,25,-13,204,0
800544,19,-15,209,0
800555,15,-9,214,0
800567,4,-13,211,0
800578,-1,-11,215,0
800588,-8,-12,213,0
800599,-13,-14,208,0
800610,-16,-12,206,0
800621,-16,-8,198,0
800632,-15,-1,198,0
800643,-16,0,200,0
800654,-16,8,207,0
800665,-16,14,216,0
800677,-20,22,224,0
800687,-25,25,226,0
800698,-31,25,231,0
800709,-34,22,231,0
800720,-37,18,227,0
800731,-38,14,225,0
800742,-34,11,227,0
800753,-32,11,235,0
800764,-28,1,237,0
800775,-25,-14,240,0
800786,-10,-27,256,0
800797,-2,-20,263,0
800808,4,-21,269,0
800819,9,-26,276,0
800830,12,-33,282,0
800841,39,-44,305,0
800853,69,-22,357,0
800863,63,15,348,0
800875,56,1,331,1
800885,31,-6,303,0
800896,8,-9,274,0
800907,10,-30,281,0
800918,15,-21,291,0
800929,9,-11,277,0
800940,3,-30,246,0
800951,20,-53,191,0
800962,34,-50,183,0
800973,43,-46,169,0
800984,47,-44,164,0
800995,58,-45,165,0
801006,66,-34,166,0
801017,74,-22,173,0
801028,86,-6,183,0
801039,98,0,192,0
801050,104,8,200,0
801061,108,0,207,0
801072,111,0,208,0
801083,108,-2,202,0
801094,106,-7,206,0
801105,107,-6,211,0
801116,103,-7,213,0
801128,93,-11,212,0
801138,85,-11,211,0
801149,79,-13,212,0
801160,64,-13,215,0
801171,53,-10,224,0
801182,35,-3,232,0
801193,17,0,236,0
801204,6,-1,236,0
801215,-6,-2,235,0
801226,-15,-4,232,0
801237,-21,-5,226,0
801248,-22,-6,221,0
801259,-20,-5,217,0
801270,-15,-9,217,0
801281,-2,-4,218,0
801293,2,-9,220,0
801303,4,-5,224,0
801314,11,-3,224,0
801325,11,-4,223,0
801336,12,-5,226,0
801347,14,-7,228,0
801358,13,-8,229,0
801369,14,-8,229,0
801380,14,-8,225,0
801391,14,-11,221,0
801403,14,-10,218,0
801413,15,-13,218,0
801425,16,-9,219,0
801435,16,-11,221,0
801446,17,-13,221,0
801457,16,-9,219,0
801468,14,-5,218,0
801479,14,-2,219,0
801491,13,0,220,0
801501,10,2,219,0
801512,9,5,218,0
801523,6,4,220,0
801534,2,3,219,0
801545,0,1,222,0
801556,-3,0,226,0
801567,-6,-1,233,0
801578,-6,-2,235,0
801590,14,12,227,1
801600,23,18,257,0
801611,23,-14,275,0
801622,4,-21,268,0
801633,-11,-26,273,0
801644,-5,7,266,0
801655,-3,23,270,0
801666,-9,3,281,0
801678,-7,-13,295,0
801688,-2,-14,294,0
801699,18,1,295,0
801710,42,20,289,0
801721,61,22,274,0
801732,85,17,258,0
801743,103,23,235,0
801754,121,17,213,0
801765,128,12,193,0
801777,137,-13,159,0
801787,135,-20,153,0
801798,128,-23,158,0
801809,113,-25,170,0
801820,101,-23,180,0
801831,87,-15,189,0
801842,71,-3,203,0
801853,53,3,223,0
801864,47,7,246,0
801875,41,14,261,0
801886,35,18,266,0
801897,33,21,268,0
801908,27,21,269,0
801919,24,16,266,0
801930,22,13,257,0
801941,14,3,235,0
801953,11,0,229,0
801963,11,4,222,0
801974,12,4,216,0
801985,15,3,218,0
801996,20,1,217,0
802007,21,3,214,0
802018,14,5,217,0
802029,10,5,220,0
802040,8,1,222,0
802051,5,-1,223,0
802062,6,-3,221,0
802073,2,-6,213,0
802084,1,-6,212,0
802096,4,5,201,0
802106,0,-5,192,0
802117,1,-2,200,0
802128,1,-6,195,0
802139,1,-3,196,0
802150,0,-1,199,0
802161,1,4,204,0
802172,-1,10,210,0
802183,-6,12,217,0
802194,-11,15,222,0
802205,-14,17,227,0
802216,-17,19,233,0
802228,-18,17,235,0
802238,-19,17,245,0
802249,-23,13,248,0
802260,-26,7,244,0
802271,-23,-5,250,0
802282,-18,-3,253,0
802293,-18,-1,255,0
802304,-20,-3,255,0
802315,-22,-9,256,0
802326,-33,-18,256,0
802338,-31,-29,258,1
802348,23,-45,324,0
802359,39,25,359,0
802370,32,29,341,0
802381,42,-31,311,0
802393,27,-18,279,0
802403,27,-13,279,0
802414,62,-17,327,0
802425,60,15,316,0
802436,39,-31,240,0
802447,6,-17,208,0
802458,7,-36,182,0
802469,12,-35,165,0
802480,21,-36,160,0
802492,28,-29,160,0
802503,33,-14,163,0
802513,38,-9,171,0
802524,47,-12,182,0
802535,57,-18,197,0
802546,67,-11,210,0
802557,72,-12,217,0
802568,72,-13,218,0
802579,72,-12,213,0
802591,72,-13,214,0
802601,66,-10,213,0
802612,63,-7,213,0
802623,54,-8,215,0
802634,39,-9,215,0
802645,32,-10,218,0
802656,31,-8,223,0
802667,31,-4,227,0
802678,27,-2,231,0
802689,30,-9,228,0
802700,30,-7,225,0
802711,29,-7,221,0
802723,23,-8,217,0
802734,18,-7,214,0
802745,16,-6,210,0
802756,10,-6,209,0
802767,7,-7,216,0
802778,1,-3,221,0
802789,-3,-3,227,0
802800,-14,-3,228,0
802811,-19,-4,232,0
802822,-20,-3,234,0
802833,-18,-5,234,0
802844,-13,-5,232,0
802855,-9,-8,232,0
802866,-5,-11,223,0
802878,0,-9,221,0
802888,2,-10,218,0
802899,4,-12,216,0
802911,8,-11,214,0
802921,12,-10,217,0
802932,14,-8,214,0
802943,11,-5,216,0
802954,9,-1,216,0
802965,4,3,217,0
802977,1,5,218,0
802987,-1,7,218,0
802998,-7,9,220,0
803009,-14,15,221,0
803020,-22,14,220,0
803031,-25,8,226,0
803042,-27,3,228,0
803053,-28,0,231,0
803064,-29,-3,233,0
803075,-29,-9,233,0
803086,-29,-5,238,0
803097,-25,-5,244,0
803109,-23,-1,246,1
803119,-2,1,238,0
803130,23,-2,254,0
803141,6,-42,291,0
803153,12,-30,273,0
803164,2,-3,256,0
803174,-18,-1,261,0
803185,-24,-5,276,0
803196,-24,4,289,0
803207,-27,7,289,0
803218,-24,12,287,0
803229,-11,26,290,0
803240,11,44,284,0
803251,72,49,262,0
803262,100,53,236,0
803273,120,37,211,0
803284,124,7,173,0
803295,119,-6,144,0
803306,113,-18,133,0
803317,109,-25,139,0
803328,98,-23,160,0
803339,89,-18,182,0
803350,83,-17,205,0
803361,80,-10,227,0
803372,69,-1,244,0
803383,58,6,265,0
803394,49,7,278,0
803405,38,15,280,0
803417,20,13,277,0
803428,16,15,271,0
803438,14,19,260,0
803449,10,20,247,0
803460,7,12,229,0
803471,8,6,219,0
803482,10,4,213,0
803493,10,2,208,0
803504,12,2,205,0
803515,14,4,207,0
803526,18,8,213,0
803537,19,9,211,0
803548,24,9,207,0
803559,30,10,209,0
803570,34,9,212,0
803581,41,3,215,0
803593,39,-8,211,0
803603,39,4,212,0
803614,28,11,210,0
803625,18,7,210,0
803636,14,13,211,0
803647,8,17,215,0
803658,2,19,212,0
803669,1,20,213,0
803680,0,23,210,0
803691,0,29,210,0
803703,-2,28,217,0
803713,0,24,225,0
803724,2,23,231,0
803735,1,32,237,0
803746,-18,28,246,0
803757,-25,21,247,0
803768,-29,12,247,0
803779,-26,4,253,0
803791,-26,2,260,0
803801,-20,-4,268,0
803813,-16,-1,265,1
803823,-10,7,259,0
803834,5,4,260,0
803845,52,16,306,0
803856,49,66,322,0
803867,51,37,327,0
803878,67,13,327,0
803889,69,5,305,0
803900,78,20,313,0
803911,52,29,267,0
803922,23,-3,225,0
803933,15,-20,194,0
803944,14,-36,175,0
803955,14,-48,157,0
803966,16,-59,146,0
803978,21,-56,157,0
803988,31,-52,168,0
803999,38,-39,176,0
804010,46,-23,187,0
804021,56,-4,202,0
804032,64,15,214,0
804043,76,28,226,0
804054,81,31,234,0
804065,80,24,233,0
804077,73,3,209,0
804087,66,0,207,0
804098,63,0,210,0
804109,66,2,213,0
804120,64,0,211,0
804131,55,-7,204,0
804142,48,-12,204,0
804153,37,-11,211,0
804164,29,-6,215,0
804175,26,-6,225,0
804186,22,-4,226,0
804197,13,-3,228,0
804208,7,-4,225,0
804219,1,-5,220,0
804230,0,-7,221,0
804241,0,-3,214,0
804253,4,-3,212,0
804263,9,-1,214,0
804274,13,1,212,0
804285,14,4,221,0
804296,16,6,229,0
804307,16,8,237,0
804318,15,9,238,0
804329,12,11,236,0
804341,8,13,234,0
804351,3,13,229,0
804362,1,12,225,0
804373,1,10,223,0
804384,1,7,222,0
804395,3,5,222,0
804406,10,2,224,0
804417,13,2,225,0
804428,18,0,224,0
804439,23,-6,224,0
804450,28,-8,221,0
804461,31,-3,220,0
804472,31,4,222,0
804483,30,9,223,0
804494,26,18,224,0
804505,19,22,224,0
804516,7,22,225,0
804528,2,23,221,1
804538,3,32,212,0
804549,9,34,225,0
804560,6,-2,253,0
804571,-18,-17,257,0
804582,-40,0,268,0
804593,-32,22,290,0
804604,-14,26,305,0
804615,1,19,312,0
804626,15,20,312,0
804637,31,31,309,0
804648,55,41,298,0
804659,82,42,293,0
804670,91,40,271,0
804681,99,33,251,0
804693,102,24,228,0
804703,101,15,206,0
804714,100,6,189,0
804725,98,-2,173,0
804736,88,-22,155,0
804747,81,-28,150,0
804758,77,-27,158,0
804769,74,-22,170,0
804780,78,-18,186,0
804792,88,-9,198,0
804803,86,2,216,0
804813,86,7,240,0
804824,80,12,261,0
804835,66,17,276,0
804846,53,20,286,0
804857,43,18,288,0
804868,32,13,276,0
804879,22,6,261,0
804891,16,3,250,0
804901,10,1,228,0
804912,10,2,219,0
804923,9,2,215,0
804934,14,7,226,0
804945,21,5,231,0
804956,23,3,222,0
804967,27,4,225,0
804978,30,8,228,0
804989,31,5,224,0
805000,33,6,218,0
805011,35,7,209,0
805022,30,7,204,0
805033,26,6,202,0
805044,22,6,200,0
805055,17,4,199,0
805066,7,5,205,0
805078,2,4,205,0
805088,-1,5,209,0
805099,-4,6,212,0
805110,-9,7,214,0
805121,-10,7,216,0
805132,-9,12,222,0
805143,-10,8,223,0
805155,-3,9,224,0
805166,0,15,218,0
805178,-3,18,219,0
805188,-12,12,228,0
805199,-15,5,230,0
805210,-17,4,226,0
805222,-26,7,242,1
805232,-28,8,245,0
805243,-31,13,242,0
805254,-33,14,234,0
805265,-14,4,247,0
805277,53,-8,339,0
805287,65,61,375,0
805298,55,26,386,0
805309,81,-22,359,0
805320,73,3,310,0
805331,90,8,358,0
805342,78,3,364,0
805353,50,19,289,0
805364,29,6,227,0
805375,-7,-29,195,0
805387,-6,-51,155,0
805397,8,-56,149,0
805408,21,-51,151,0
805419,34,-41,162,0
805430,47,-31,169,0
805442,59,-19,174,0
805453,70,-6,180,0
805463,81,-2,191,0
805474,89,3,204,0
805485,97,3,215,0
805496,103,-3,216,0
805507,104,-4,213,0
805518,98,-4,213,0
805529,93,-8,215,0
805540,90,-9,217,0
805551,60,-11,218,0
805562,44,-12,219,0
805573,30,-10,223,0
805584,23,-4,224,0
805595,16,-4,225,0
805607,14,-3,227,0
805618,8,-1,227,0
805629,5,0,226,0
805640,7,0,225,0
805651,4,0,218,0
805662,3,-1,217,0
805673,4,-4,214,0
805684,6,-7,214,0
805695,5,-11,213,0
805706,5,-9,212,0
805717,8,-7,216,0
805728,9,-3,221,0
805739,8,0,229,0
805750,6,1,236,0
805761,3,4,235,0
805772,3,6,234,0
805783,5,6,231,0
805794,2,6,228,0
805805,3,6,226,0
805816,5,3,222,0
805828,8,1,220,0
805838,11,0,221,0
805849,17,-5,220,0
805860,23,-10,216,0
805871,30,-15,217,0
805882,33,-13,217,0
805893,32,-11,220,0
805905,29,-7,221,1
805916,23,-1,221,0
805926,17,3,218,0
805937,10,6,217,0
805948,7,8,219,0
805959,5,10,221,0
805970,0,16,225,0
805982,-8,16,227,0
805993,-14,17,226,0
806003,-2,20,220,0
806014,13,18,243,0
806025,4,-30,275,0
806036,-7,-10,261,0
806047,-15,-7,267,0
806058,-9,18,279,0
806069,-7,18,291,0
806080,3,1,295,0
806092,10,4,291,0
806103,17,3,291,0
806113,43,6,297,0
806124,68,14,290,0
806135,85,22,275,0
806146,102,26,266,0
806157,108,25,244,0
806168,107,11,211,0
806179,107,0,187,0
806191,104,-10,166,0
806201,89,-29,144,0
806212,78,-32,145,0
806223,69,-30,154,0
806234,64,-26,173,0
806245,59,-22,195,0
806256,58,-10,207,0
806267,47,3,229,0
806278,42,13,252,0
806289,33,21,274,0
806301,25,21,285,0
806311,21,16,288,0
806322,19,16,282,0
806333,11,9,268,0
806344,10,3,260,0
806355,11,-2,250,0
806366,13,-7,224,0
806378,14,-5,217,0
806388,15,3,220,0
806399,20,6,222,0
806410,25,4,220,0
806421,29,5,222,0
806432,27,5,222,0
806443,26,3,217,0
806454,23,3,216,0
806465,19,2,215,0
806477,16,1,217,0
806487,10,1,217,0
806498,6,1,216,0
806509,2,1,213,0
806520,0,0,212,0
806531,0,-4,207,0
806542,0,-9,209,0
806553,0,-5,209,0
806564,0,0,215,0
806575,0,-1,211,0
806586,2,0,199,0
806597,5,6,199,0
806608,1,9,214,0
806619,-1,10,227,0
806630,-7,12,232,0
806641,-12,11,235,0
806653,-16,8,238,0
806663,-17,14,242,0
806674,-21,22,247,0
806685,-30,15,247,0
806696,-31,2,245,0
806707,-28,2,250,0
806718,-1,-10,274,0
806729,54,5,367,0
806740,58,57,372,0
806752,58,20,359,1
806762,67,-15,326,0
806773,52,-8,278,0
806784,46,-11,272,0
806795,61,-15,297,0
806806,49,-1,291,0
806817,18,-15,268,0
806828,11,-29,236,0
806839,-2,-33,201,0
806850,0,-43,176,0
806861,22,-51,157,0
806872,36,-52,163,0
806883,49,-36,168,0
806894,59,-29,176,0
806906,74,-21,189,0
806917,86,-13,193,0
806928,91,0,207,0
806938,87,5,218,0
806949,71,7,222,0
806960,63,3,226,0
806971,51,0,226,0
806982,45,-1,219,0
806993,44,-7,216,0
807004,48,-5,212,0
807015,49,-10,207,0
807026,56,-14,210,0
807037,63,-9,217,0
807048,63,-9,222,0
807059,59,-8,225,0
807070,56,-3,231,0
807081,51,-3,230,0
807093,44,-3,229,0
807103,40,-3,228,0
807114,35,-3,224,0
807125,27,-3,218,0
807136,22,-6,215,0
807147,16,-9,214,0
807158,10,-7,213,0
807169,6,-8,215,0
807180,2,-6,219,0
807192,-6,-1,228,0
807203,-9,1,232,0
807213,-9,0,235,0
807224,-9,1,235,0
807235,-6,1,235,0
807246,-7,6,235,0
807257,-7,6,233,0
807268,-1,5,227,0
807279,2,5,228,0
807291,4,5,225,0
807301,8,2,225,0
807312,12,0,222,0
807323,22,-4,219,0
807334,26,-6,216,0
807345,28,-8,218,0
807356,28,-9,220,0
807367,28,-10,221,0
807378,25,-11,222,0
807389,22,-9,222,0
807400,18,-9,221,0
807411,14,-6,223,0
807422,11,-6,223,0
807433,7,-4,221,0
807444,1,-2,221,0
807455,-3,-2,221,0
807466,-8,-1,222,0
807478,-11,0,223,1
807488,0,2,217,0
807499,26,11,226,0
807510,14,-30,265,0
807521,1,-23,240,0
807532,-24,-10,240,0
807543,-25,12,260,0
807554,-20,2,279,0
807565,-11,-14,281,0
807577,0,-8,282,0
807587,1,2,288,0
807598,14,16,296,0
807609,34,28,303,0
807620,60,33,300,0
807631,84,35,295,0
807642,100,41,291,0
807653,104,36,269,0
807664,99,23,243,0
807675,94,6,209,0
807686,79,-14,170,0
807697,71,-22,158,0
807708,66,-29,150,0
807719,62,-32,152,0
807730,58,-31,152,0
807741,56,-31,162,0
807753,56,-27,179,0
807763,58,-22,194,0
807774,63,-19,210,0
807785,67,-14,224,0
807796,69,-1,234,0
807807,62,5,247,0
807818,50,10,257,0
807829,32,13,266,0
807840,17,12,276,0
807851,5,7,264,0
807862,2,5,253,0
807873,2,4,245,0
807884,2,2,238,0
807895,6,-1,233,0
807906,10,0,224,0
807917,14,0,216,0
807928,15,0,213,0
807939,16,5,221,0
807950,20,9,225,0
807961,27,9,223,0
807972,27,6,216,0
807983,27,5,216,0
807994,25,3,214,0
808005,20,4,213,0
808016,11,5,217,0
808028,8,6,220,0
808038,5,6,221,0
808049,0,2,218,0
808060,1,3,222,0
808071,1,13,227,0
808082,-1,11,233,0
808093,-1,15,230,0
808104,0,26,212,0
808115,1,35,207,0
808126,-5,30,213,0
808137,-5,22,222,0
808149,-4,24,226,0
808159,-5,25,227,0
808170,-8,23,227,0
808181,-9,18,227,0
808193,-7,9,228,0
808203,-5,12,231,0
808214,-4,15,239,0
808226,-4,12,243,0
808237,-4,15,241,0
808248,-1,19,239,0
808259,0,18,238,0
808271,0,20,237,1
808281,-2,21,240,0
808293,-8,25,248,0
808303,-11,23,255,0
808314,19,29,286,0
808325,31,71,330,0
808336,59,50,321,0
808347,74,39,309,0
808358,75,28,287,0
808369,76,23,270,0
808380,82,37,268,0
808391,57,46,259,0
808403,37,28,229,0
808413,27,1,199,0
808424,27,-25,185,0
808435,25,-34,175,0
808446,25,-34,163,0
808457,23,-30,160,0
808468,19,-24,169,0
808479,17,-14,180,0
808491,28,0,208,0
808501,40,20,221,0
808512,59,35,234,0
808523,76,44,247,0
808534,88,47,246,0
808545,93,50,237,0
808556,101,56,222,0
808567,98,49,204,0
808578,91,41,199,0
808589,82,30,195,0
808600,72,20,195,0
808611,68,20,196,0
808622,68,27,201,0
808633,70,30,211,0
808644,71,22,221,0
808655,66,24,226,0
808666,64,21,231,0
808678,62,22,235,0
808688,57,28,235,0
808699,50,31,236,0
808710,42,27,234,0
808721,38,25,231,0
808732,33,24,226,0
808743,28,17,227,0
808754,30,14,223,0
808765,28,18,220,0
808777,30,14,222,0
808787,38,15,223,0
808798,44,14,221,0
808809,50,18,223,0
808820,56,18,221,0
808831,57,21,226,0
808842,54,21,226,0
808853,50,23,227,0
808864,43,19,230,0
808875,40,15,229,0
808886,37,17,227,0
808897,34,11,227,0
808908,32,11,226,0
808919,32,8,227,0
808930,35,5,229,0
808941,38,6,228,0
808953,40,9,228,0
808963,41,13,226,0
808974,42,13,231,0
808985,49,17,230,0
808996,45,19,228,0
809007,40,19,228,0
809018,35,21,227,0
809029,30,22,227,0
809040,24,25,228,0
809051,19,28,229,0
809062,15,29,230,0
809073,11,28,232,0
809085,7,27,231,0
809095,1,27,229,0
809106,-4,29,229,0
809117,-7,29,227,0
809128,-8,33,226,0
809140,-2,39,225,1
809150,11,48,238,0
809161,14,31,251,0
809172,16,19,253,0
809183,12,17,253,0
809194,6,13,256,0
809205,5,15,267,0
809216,14,26,274,0
809228,29,34,278,0
809238,42,43,280,0
809249,59,46,277,0
809260,72,51,270,0
809271,85,51,257,0
809282,91,44,239,0
809293,95,33,219,0
809304,90,20,208,0
809315,71,2,191,0
809326,63,-8,189,0
809337,55,-9,190,0
809348,46,-6,192,0
809359,42,-3,194,0
809370,41,0,194,0
809381,40,2,197,0
809393,42,5,211,0
809403,46,9,230,0
809414,55,12,243,0
809425,64,20,250,0
809436,66,22,258,0
809447,65,18,256,0
809458,64,13,255,0
809469,60,5,253,0
809480,47,5,251,0
809492,43,4,241,0
809503,37,1,226,0
809513,27,1,216,0
809524,18,3,213,0
809535,13,6,211,0
809546,13,9,214,0
809557,16,15,218,0
809568,19,18,226,0
809579,24,22,227,0
809591,27,24,229,0
809601,27,25,227,0
809612,28,25,230,0
809623,28,24,231,0
809634,28,20,229,0
809645,29,21,230,0
809656,25,23,229,0
809667,22,22,227,0
809678,18,23,224,0
809689,13,23,219,0
809700,9,21,217,0
809711,5,23,218,0
809722,4,27,219,0
809733,2,30,222,0
809744,1,34,222,0
809755,2,35,226,0
809766,2,40,236,0
809778,0,41,239,0
809788,1,41,245,0
809799,6,37,247,0
809810,20,19,243,0
809822,20,17,238,0
809832,31,17,232,0
809843,34,19,225,0
809854,34,14,219,0
809865,40,10,218,0
809876,37,23,217,0
809887,31,25,216,0
809898,24,25,218,0
809909,17,35,220,0
809921,8,36,214,1
809931,-4,43,212,0
809942,-14,46,215,0
809953,-21,53,217,0
809964,-25,57,222,0
809975,-14,52,234,0
809986,43,76,344,0
809997,47,91,359,0
810008,91,69,368,0
810019,122,52,379,0
810030,108,32,361,0
810041,96,5,303,0
810053,63,-20,239,0
810063,39,-57,195,0
810074,27,-77,166,0
810085,30,-83,147,0
810096,36,-77,134,0
810108,46,-61,137,0
810119,52,-48,148,0
810130,60,-20,183,0
810141,63,-12,207,0
810153,67,-9,227,0
810163,72,-14,236,0
810174,75,-18,239,0
810185,64,-17,236,0
810196,54,-13,233,0
810207,44,-14,225,0
810218,35,-10,215,0
810229,31,-12,207,0
810240,31,-13,202,0
810251,33,-14,199,0
810262,32,-5,206,0
810273,37,-5,205,0
810284,42,2,217,0
810295,57,0,220,0
810306,59,1,216,0
810317,61,1,211,0
810328,56,-2,204,0
810340,51,-6,209,0
810350,49,-5,214,0
810361,44,-6,211,0
810372,40,-1,217,0
810383,34,-2,220,0
810394,36,-2,224,0
810405,32,0,226,0
810417,32,1,229,0
810428,33,1,229,0
810438,30,3,230,0
810449,31,4,230,0
810460,25,4,233,0
810471,22,8,236,0
810482,23,7,237,0
810494,26,3,235,0
810505,28,1,231,0
810516,28,1,225,0
810528,29,-1,223,0
810538,28,-2,224,0
810549,25,1,223,0
810560,22,1,223,0
810571,18,5,230,0
810582,16,14,230,0
810593,5,22,228,0
810604,-3,25,224,0
810615,-23,16,213,0
810627,-16,17,208,1
810637,-10,18,230,0
810648,-17,-2,263,0
810659,-16,-6,274,0
810670,-21,4,273,0
810681,-17,23,276,0
810693,-4,36,295,0
810703,4,13,308,0
810714,18,-6,318,0
810725,34,-4,322,0
810736,49,3,311,0
810747,71,3,292,0
810758,94,5,268,0
810769,108,2,241,0
810780,116,-7,194,0
810792,109,-17,178,0
810803,102,-25,165,0
810813,96,-22,166,0
810824,82,-19,178,0
810835,70,-17,182,0
810846,62,-12,188,0
810857,52,-10,196,0
810868,42,-7,225,0
810879,34,-1,249,0
810891,24,1,258,0
810901,15,0,260,0
810912,25,2,272,0
810923,29,7,262,0
810934,25,6,252,0
810945,27,2,233,0
810956,34,6,231,0
810967,33,5,217,0
810978,35,4,207,0
810989,40,2,205,0
811000,45,1,208,0
811011,49,0,206,0
811023,49,2,209,0
811033,49,4,208,0
811044,46,3,209,0
811055,41,2,211,0
811066,34,1,212,0
811078,26,0,210,0
811088,18,-1,210,0
811099,9,-2,210,0
811110,-1,-2,203,0
811121,-7,-3,197,0
811132,-9,-7,196,0
811143,-11,-6,196,0
811154,-14,-6,197,0
811165,-19,-5,199,0
811178,-19,-4,209,0
811188,-18,-1,220,0
811199,-16,2,233,0
811210,-15,9,239,0
811221,-18,16,241,0
811232,-22,19,243,0
811243,-23,16,250,0
811254,-21,-1,265,0
811265,-19,-6,261,0
811276,-21,0,253,0
811287,-20,2,251,0
811298,-12,-4,257,0
811309,36,-16,317,0
811321,65,26,361,1
811331,72,41,367,0
811342,76,5,359,0
811353,71,7,329,0
811364,91,6,344,0
811375,94,-2,349,0
811386,65,1,293,0
811397,48,-20,237,0
811408,34,-29,196,0
811419,17,-38,167,0
811430,26,-42,153,0
811442,31,-30,154,1
811453,35,-16,164,0
811463,39,-6,181,0
811474,45,-3,190,0
811485,58,-5,192,0
811496,70,-3,200,0
811507,77,-2,208,0
811518,85,-3,213,0
811529,90,-8,210,0
811540,98,-13,213,0
811551,100,-11,218,0
811562,93,-6,217,0
811573,77,-12,207,0
811584,62,-8,205,0
811595,43,4,217,0
811606,38,5,220,0
811617,32,5,222,0
811628,31,5,225,0
811639,31,6,224,0
811650,31,5,222,0
811661,25,4,219,0
811672,17,4,215,0
811683,12,1,212,0
811694,7,5,211,0
811705,4,4,213,0
811716,4,3,216,0
811728,0,4,217,0
811738,-2,0,220,0
811749,-3,1,226,0
811760,-1,1,235,0
811772,1,4,236,0
811782,2,3,232,0
811793,4,0,228,0
811804,5,-2,221,0
811815,2,0,216,0
811826,7,-2,222,0
811837,7,-1,217,0
811848,4,-2,216,0
811859,1,-2,218,0
811870,2,-8,220,0
811881,5,-10,218,0
811893,6,-9,217,0
811903,4,-6,215,0
811914,3,-5,217,0
811925,0,0,222,0
811936,-2,0,223,0
811947,-4,-1,228,0
811958,-8,0,232,0
811969,-14,3,229,0
811980,-13,3,224,0
811992,4,8,221,0
812003,-1,-15,248,0
812014,-7,-45,260,1
812024,-2,-22,252,0
812035,-2,-3,257,0
812046,-10,-4,284,0
812057,-4,-17,308,0
812068,11,-12,314,0
812079,54,8,328,0
812092,81,20,327,0
812103,98,29,306,0
812113,102,33,280,0
812124,106,23,254,0
812135,108,12,224,0
812147,111,0,192,1
812157,111,-11,158,0
812168,105,-16,136,0
812179,90,-17,127,0
812191,77,-15,132,0
812201,64,-12,148,0
812212,54,-2,170,0
812223,44,2,191,0
812234,30,12,212,0
812245,14,31,272,0
812256,25,31,289,0
812267,36,26,291,0
812278,45,21,273,0
812289,44,14,262,0
812300,39,5,251,0
812311,33,1,236,0
812322,29,0,228,0
812333,22,0,222,0
812344,16,0,220,0
812355,13,0,219,0
812366,16,1,218,0
812378,19,3,217,0
812388,23,6,215,0
812399,24,7,215,0
812410,13,1,210,0
812421,7,-2,212,0
812432,3,-1,209,0
812443,0,3,204,0
812454,-6,-4,199,0
812465,-9,-4,198,0
812476,-5,-9,195,0
812487,-5,-9,191,0
812498,-4,-12,192,0
812509,-3,-11,195,0
812520,-6,-5,197,0
812531,-9,-1,199,0
812542,-12,1,211,0
812553,-15,3,223,0
812564,-16,4,231,0
812575,-18,12,236,0
812586,-21,15,248,0
812597,-22,22,269,0
812608,-35,39,274,0
812619,-46,20,272,0
812631,-44,12,266,1
812641,-35,5,260,0
812653,-19,3,259,0
812663,23,-15,296,0
812674,71,-7,358,0
812685,95,22,376,0
812696,101,9,383,0
812707,92,8,338,0
812718,84,-14,314,0
812729,90,-13,310,0
812740,45,-20,249,0
812751,27,-32,215,0
812762,26,-37,188,0
812773,24,-55,169,0
812784,26,-52,168,0
812795,35,-44,163,0
812806,34,-5,131,0
812817,36,-117,229,0
812828,65,-39,154,0
812839,52,24,185,0
812850,77,-21,194,0
812861,77,6,204,0
812872,89,1,217,0
812883,98,-11,219,0
812894,100,-4,223,0
812905,95,-9,213,0
812917,90,-8,206,0
812928,83,-5,202,0
812938,69,-5,198,0
812949,59,0,199,0
812960,52,6,206,0
812971,50,10,211,0
812982,48,8,217,0
812993,47,9,222,0
813004,45,10,227,0
813015,42,11,230,0
813026,40,8,232,0
813037,38,7,231,0
813048,37,3,224,0
813059,36,1,218,0
813070,31,1,214,0
813081,30,6,215,0
813093,26,4,219,0
813103,22,5,226,0
813114,16,5,232,0
813125,15,4,233,0
813136,15,4,233,0
813147,14,3,235,0
813158,11,3,232,0
813169,6,0,227,0
813180,8,0,225,0
813192,11,1,227,0
813203,14,1,230,0
813213,18,0,231,0
813224,21,-1,226,0
813235,21,0,217,0
813246,21,-2,216,0
813257,23,-1,216,0
813268,23,0,219,0
813279,21,0,219,0
813291,15,0,222,0
813301,8,-1,222,0
813312,2,-2,222,0
813323,-7,-3,225,0
813334,-16,-4,228,0
813345,-26,-6,232,0
813356,-31,-8,236,0
813367,-35,-7,241,0
813379,-25,-3,239,1
813389,0,1,237,0
813400,5,-46,259,0
813411,11,-27,253,0
813422,8,-24,253,0
813433,24,-9,255,0
813444,34,-8,268,0
813455,40,-17,279,0
813466,46,-15,278,0
813478,48,-8,279,0
813488,52,2,279,0
813499,61,18,282,0
813510,70,35,274,0
813521,84,45,261,0
813532,94,46,244,0
813543,103,38,218,0
813554,106,27,192,0
813565,99,0,150,0
813576,92,-8,150,0
813587,78,-16,160,0
813598,62,-19,178,0
813609,52,-18,195,0
813620,45,-14,215,0
813631,33,-3,224,0
813642,23,7,251,0
813653,21,14,279,0
813664,14,14,277,0
813675,6,21,285,0
813686,4,12,274,0
813697,4,11,263,0
813708,0,12,252,0
813719,-1,8,238,0
813730,0,1,224,0
813741,4,-1,219,0
813753,9,-3,211,0
813763,16,-1,207,0
813774,24,-6,200,0
813785,31,-6,194,0
813796,29,-11,186,0
813807,30,-10,187,0
813818,25,-9,190,0
813829,17,-7,194,0
813840,7,-6,200,0
813851,-1,-4,208,0
813862,-10,-3,210,0
813873,-19,-1,211,0
813884,-26,-1,212,0
813895,-35,-9,217,0
813906,-36,-12,223,0
813917,-32,-16,231,0
813928,-29,-17,234,0
813939,-24,-15,237,0
813950,-22,-12,241,0
813961,-25,-7,245,0
813972,-31,0,248,0
813983,-34,1,253,0
813994,-32,1,255,0
814005,-37,22,258,0
814016,-44,11,256,0
814028,-45,2,254,0
814038,-43,-3,244,0
814049,-35,-9,235,0
814060,-25,-14,232,0
814071,-7,-35,253,0
814082,21,-53,291,0
814093,42,-39,335,0
814104,40,-6,331,0
814116,35,-12,302,1
814126,25,-24,270,0
814137,17,-38,266,0
814149,30,-38,278,0
814159,36,-22,281,0
814170,25,-15,249,0
814181,18,-24,218,0
814193,13,-25,205,0
814203,5,65,144,0
814214,11,-131,236,0
814226,50,-21,183,0
814236,65,-34,177,0
814247,74,-6,192,0
814258,86,-10,200,0
814269,97,-7,214,0
814280,98,-8,215,0
814292,94,-10,215,0
814303,83,-11,214,0
814313,74,-14,214,0
814324,65,-11,218,0
814335,58,-12,223,0
814346,59,-15,220,0
814357,63,-19,209,0
814368,60,-17,209,0
814379,63,-14,209,0
814391,66,-12,208,0
814401,67,-2,219,0
814412,64,2,224,0
814423,61,5,224,0
814434,56,7,226,0
814445,44,9,228,0
814456,35,10,227,0
814467,24,10,229,0
814479,13,9,227,0
814489,2,10,225,0
814500,-10,11,223,0
814511,-14,8,221,0
814522,-16,6,222,0
814533,-14,3,224,0
814544,-4,2,229,0
814555,1,3,231,0
814566,10,-3,227,0
814578,11,-4,227,0
814588,18,-5,226,0
814599,22,-4,228,0
814610,21,-3,228,0
814621,15,-3,226,0
814632,17,-3,226,0
814643,14,-8,221,0
814654,9,-10,220,0
814665,2,-7,221,0
814676,-3,-5,223,0
814687,-11,-4,225,0
814698,-20,-3,227,0
814709,-24,0,227,0
814720,-27,2,232,0
814731,-37,3,232,0
814742,-36,8,235,0
814753,-33,9,231,0
814764,-33,14,232,0
814775,-31,12,227,0
814786,-29,5,223,0
814797,-24,3,222,0
814808,-21,1,222,0
814819,-22,-1,224,0
814831,-24,-7,228,0
814842,-29,-12,230,0
814853,-38,-15,229,0
814864,-40,-15,228,0
814876,-7,-2,204,1
814886,-4,-17,235,0
814897,-17,-91,268,0
814908,9,-42,236,0
814919,2,10,222,0
814930,-17,-9,260,0
814942,-6,-29,314,0
814953,7,-19,320,0
814963,20,5,325,0
814974,45,18,330,0
814985,76,27,324,0
814996,106,35,309,0
815007,128,39,276,0
815018,144,40,231,0
815029,150,38,188,0
815040,144,33,150,0
815051,119,16,139,0
815062,99,8,150,0
815073,82,10,175,0
815084,65,11,185,0
815095,46,15,203,0
815106,33,10,229,0
815117,29,13,255,0
815128,23,19,265,0
815140,27,14,275,0
815150,34,5,269,0
815161,35,3,257,0
815172,29,5,246,0
815183,24,7,243,0
815194,19,11,248,0
815205,19,13,242,0
815216,28,7,225,0
815228,30,6,216,0
815238,31,4,211,0
815249,26,3,209,0
815260,24,0,208,0
815271,22,-2,209,0
815282,20,-3,209,0
815293,20,0,217,0
815304,16,-3,213,0
815315,13,-5,215,0
815326,13,-11,215,0
815337,13,-12,214,0
815348,15,-12,213,0
815359,7,0,203,0
815370,0,-1,196,0
815381,-16,4,195,0
815393,-21,2,196,0
815403,-26,2,203,0
815414,-27,3,207,0
815425,-27,2,213,0
815436,-26,4,221,0
815448,-20,8,232,0
815458,-17,9,238,0
815469,-9,2,229,0
815480,-5,8,222,0
815492,-13,9,226,0
815503,-16,1,230,0
815513,-21,-4,235,0
815524,-27,-3,242,0
815535,-34,-2,252,0
815546,-44,10,248,0
815557,-36,13,252,0
815569,21,-7,309,1
815580,64,38,378,0
815591,52,63,364,0
815601,61,4,350,0
815612,78,-26,343,0
815623,105,-13,374,0
815634,92,21,363,0
815645,76,10,310,0
815656,46,-30,232,0
815667,8,-17,200,0
815678,-1,-36,173,0
815689,0,-57,158,0
815700,8,-52,150,0
815711,34,-38,160,0
815722,43,-28,169,0
815733,51,-17,179,0
815744,60,-7,191,0
815755,63,-1,196,0
815766,70,-2,208,0
815778,81,-4,214,0
815788,88,-11,211,0
815799,89,-15,207,0
815810,89,-15,207,0
815821,87,-17,208,0
815832,79,-18,211,0
815843,68,-14,214,0
815854,60,-12,212,0
815865,53,-9,214,0
815876,39,-2,214,0
815887,36,1,220,0
815898,36,-1,222,0
815909,39,0,221,0
815920,40,2,223,0
815931,38,0,224,0
815942,36,1,226,0
815953,33,0,222,0
815964,29,0,217,0
815975,24,-1,212,0
815986,22,-3,211,0
815997,17,0,214,0
816008,14,1,217,0
816019,10,1,225,0
816030,5,3,231,0
816041,2,5,235,0
816053,1,9,240,0
816063,0,11,237,0
816074,2,10,231,0
816085,3,5,228,0
816096,3,5,225,0
816107,5,1,223,0
816118,8,-2,218,0
816129,11,-8,215,0
816140,12,-12,215,0
816151,13,-14,215,0
816162,14,-16,213,0
816173,19,-16,218,0
816184,21,-14,220,0
816195,22,-10,221,0
816206,20,-2,223,0
816217,9,2,224,0
816228,1,1,222,0
816239,-6,0,221,0
816250,-12,0,219,0
816261,-16,3,217,0
816273,6,9,210,0
816284,12,3,247,1
816294,6,-45,264,0
816305,2,-30,255,0
816316,-20,-19,252,0
816328,-24,9,269,0
816338,-15,18,294,0
816349,-6,0,303,0
816360,-2,-13,295,0
816371,0,-8,297,0
816382,59,22,306,0
816393,89,31,300,0
816404,108,33,286,0
816416,117,32,261,0
816426,120,29,239,0
816437,126,17,208,0
816448,126,3,184,0
816459,121,-6,163,0
816470,112,-19,149,0
816481,101,-28,137,0
816493,93,-34,140,0
816503,83,-33,148,0
816514,72,-28,162,0
816525,69,-21,182,0
816536,68,-13,197,0
816547,62,-1,237,0
816558,55,0,253,0
816569,48,6,268,0
816580,37,11,278,0
816592,30,8,281,0
816603,22,7,278,0
816613,20,2,265,0
816624,21,1,257,0
816635,18,-1,248,0
816646,17,-4,234,0
816657,18,-8,230,0
816668,19,-10,221,0
816680,21,-6,220,0
816691,21,-5,223,0
816701,24,-4,225,0
816712,25,-4,210,0
816723,24,-4,209,0
816734,15,-5,208,0
816745,12,-3,213,0
816756,9,-3,217,0
816767,6,-3,213,0
816778,3,-7,212,0
816789,1,-10,210,0
816800,1,-12,206,0
816811,0,-10,208,0
816822,0,-9,208,0
816833,1,-5,204,0
816844,1,0,199,0
816855,1,3,194,0
816866,2,5,196,0
816878,0,11,210,0
816888,0,9,219,0
816899,0,9,226,0
816911,-1,9,226,0
816921,-5,12,225,0
816932,-9,11,223,0
816943,-12,6,221,0
816954,-14,3,216,0
816965,-11,-2,217,0
816976,-5,-6,222,0
816987,-2,-5,230,0
816998,1,-10,241,0
817009,6,-10,257,0
817020,13,-8,277,0
817031,20,-4,282,0
817043,71,44,352,1
817053,57,57,361,0
817064,62,19,357,0
817075,75,-12,335,0
817086,94,-15,333,0
817097,86,-7,350,0
817108,60,-8,317,0
817119,43,-18,252,0
817130,22,-27,219,0
817141,2,-31,196,0
817153,-13,-37,185,0
817163,-12,-43,171,0
817174,-7,-43,164,0
817185,10,-38,169,0
817197,35,-33,177,0
817207,72,-12,192,0
817218,90,-2,196,0
817229,103,6,204,0
817240,112,9,208,0
817251,119,11,211,0
817262,118,5,213,0
817273,113,2,214,0
817284,106,-3,215,0
817295,94,-5,211,0
817306,80,-5,206,0
817317,69,-10,208,0
817328,61,-14,209,0
817339,54,-14,212,0
817350,50,-14,214,0
817361,50,-12,217,0
817372,54,-10,223,0
817383,61,-8,225,0
817394,65,-2,224,0
817405,68,-1,224,0
817417,69,-1,224,0
817428,65,-2,226,0
817438,62,-7,224,0
817449,60,-8,222,0
817460,57,-8,216,0
817471,53,-8,215,0
817482,50,-4,216,0
817493,47,0,219,0
817504,41,4,224,0
817516,37,3,227,0
817526,36,3,231,0
817537,35,3,230,0
817548,32,3,230,0
817559,31,1,231,0
817570,29,0,229,0
817581,28,0,227,0
817593,30,-1,227,0
817603,32,-2,233,0
817614,33,0,233,0
817625,35,0,233,0
817636,38,2,231,0
817647,41,3,231,0
817658,42,5,230,0
817669,42,7,232,0
817681,42,10,233,0
817693,34,3,234,0
817703,33,2,231,0
817714,29,2,229,0
817725,23,1,231,0
817736,22,1,229,0
817747,21,4,234,0
817758,18,4,234,0
817769,19,3,229,0
817780,16,2,226,0
817792,18,1,225,0
817803,22,1,226,0
817814,29,0,228,0
817826,35,-12,231,1
817836,40,-28,232,0
817847,39,-33,223,0
817858,36,-23,218,0
817869,35,-14,222,0
817880,36,-4,226,0
817892,31,1,229,0
817903,31,4,229,0
817913,31,7,230,0
817924,32,3,228,0
817935,32,4,225,0
817946,31,4,225,0
817957,29,3,223,0
817968,29,2,223,0
817980,27,1,224,0
817991,25,-5,222,0
818001,25,-1,231,0
818012,22,-9,235,0
818023,24,-7,237,0
818034,22,-6,235,0
818045,25,-2,235,0
818056,30,-5,234,0
818067,35,-6,234,0
818078,38,-5,235,0
818089,40,-5,235,0
818100,43,-5,232,0
818111,45,-5,232,0
818122,46,-5,232,0
818133,44,-4,230,0
818144,41,-4,229,0
818155,40,-3,229,0
818166,39,-2,233,0
818178,32,-5,229,0
818188,32,-5,230,0
818199,29,-4,230,0
818210,30,-2,228,0
818221,31,0,229,0
818232,31,0,229,0
818243,31,1,232,0
818254,30,1,232,0
818265,30,0,231,0
818276,30,-1,231,0
818287,31,-2,230,0
818298,31,-3,229,0
818309,33,-6,229,0
818321,35,-3,229,0
818331,38,-1,231,0
818342,36,-1,232,0
818353,35,-3,231,0
818364,37,-1,231,0
818375,35,-2,227,0
818386,34,-3,225,0
818397,35,-1,225,0
818408,32,0,225,0
818419,33,2,228,0
818430,33,3,236,0
818441,32,3,238,0
818453,31,0,235,0
818463,29,-1,232,0
818474,29,0,231,0
818485,31,2,231,0
818496,31,1,232,0
818507,32,-1,229,0
818519,32,-1,229,0
818530,32,-1,231,0
818541,32,-1,229,0
818553,31,-1,231,0
818563,31,-2,230,0
818574,31,-1,228,0
818585,30,0,230,0
818596,30,0,227,0
818607,30,-1,229,0
