timestamp,accX,accY,accZ,step
93989,19,35,232,0
94001,22,34,232,0
94012,23,35,231,0
94023,24,33,230,0
94033,24,31,228,0
94043,22,32,224,0
94054,21,32,228,0
94064,20,35,230,0
94075,20,35,229,0
94085,20,32,226,0
94095,20,33,227,0
94106,20,36,231,0
94117,21,39,234,0
94128,25,40,232,0
94138,25,38,233,0
94149,27,35,228,0
94160,28,32,224,0
94171,28,35,225,0
94182,26,37,231,0
94192,26,40,231,0
94203,25,36,225,0
94215,24,38,229,0
94226,24,36,228,0
94237,24,38,227,0
94248,26,39,227,0
94259,27,40,229,0
94270,27,40,230,0
94281,28,39,229,0
94292,28,40,231,0
94303,28,41,230,0
94314,28,41,230,0
94325,28,41,230,0
94336,29,41,229,0
94347,31,41,230,0
94358,32,40,229,0
94369,34,40,229,0
94380,33,39,229,0
94391,34,39,229,0
94402,33,40,229,0
94413,33,38,229,0
94424,32,39,225,0
94435,31,37,226,0
94446,31,39,225,0
94457,32,39,226,0
94468,33,38,228,0
94479,37,38,230,0
94490,38,39,231,0
94501,40,41,232,0
94512,41,40,229,0
94523,40,41,228,0
94534,41,41,228,0
94545,40,39,230,0
94556,39,38,229,0
94567,39,39,228,0
94578,37,39,229,0
94589,31,40,227,0
94600,29,40,224,0
94611,25,41,222,0
94622,20,42,225,0
94633,18,42,230,0
94644,19,43,234,0
94655,19,45,235,0
94666,18,43,233,0
94677,17,43,232,0
94688,15,43,228,0
94699,16,43,224,0
94710,15,45,224,0
94721,15,46,229,0
94732,14,47,230,0
94743,16,45,231,0
94754,15,43,233,0
94765,18,42,229,0
94776,21,38,225,0
94787,22,38,223,0
94798,23,39,222,0
94809,23,40,225,0
94820,23,39,228,0
94831,23,40,230,0
94842,23,40,232,0
94853,23,40,231,0
94864,25,40,231,0
94875,26,40,231,0
94886,27,40,229,0
94897,30,41,228,0
94908,31,39,228,0
94919,31,40,230,0
94930,32,40,229,0
94941,33,39,228,0
94952,34,38,227,0
94963,33,39,227,0
94974,34,39,227,0
94985,34,38,227,0
94996,33,39,228,0
95007,32,40,226,0
95018,31,40,227,0
95029,28,40,227,0
95040,28,41,231,0
95051,26,43,230,0
95062,27,42,231,0
95073,26,43,230,0
95084,26,40,232,0
95095,29,37,232,0
95106,29,38,230,0
95117,30,37,229,0
95128,31,39,229,0
95139,32,38,228,0
95150,32,38,227,0
95161,31,38,227,0
95172,30,39,227,0
95183,30,38,227,0
95194,31,38,228,0
95205,33,39,232,0
95216,34,40,234,0
95227,36,42,230,0
95238,35,37,230,0
95249,34,36,228,0
95260,33,33,227,0
95271,34,32,228,0
95282,32,34,227,0
95293,33,32,227,0
95304,32,34,228,0
95315,33,35,230,0
95326,34,35,230,0
95337,35,34,229,0
95348,35,32,231,0
95359,37,33,230,0
95370,37,31,232,0
95381,37,33,233,0
95392,34,29,229,0
95403,33,30,229,0
95414,30,32,229,0
95425,29,31,230,0
95436,30,29,227,0
95447,28,31,227,0
95458,27,29,227,0
95469,28,28,229,0
95480,29,28,229,0
95491,30,28,231,0
95502,31,30,232,0
95513,31,28,231,0
95524,30,28,230,0
95535,29,29,230,0
95546,27,29,229,0
95557,26,30,229,0
95568,26,30,230,0
95579,27,28,231,0
95590,28,27,230,0
95601,27,26,230,0
95612,27,23,227,0
95623,29,24,226,0
95634,29,26,225,0
95645,28,27,223,0
95656,30,26,224,0
95667,28,24,227,0
95678,30,23,229,0
95689,32,24,231,0
95700,33,23,229,0
95711,34,33,228,0
95722,32,32,226,0
95733,32,30,226,0
95744,31,29,226,0
95756,30,29,228,0
95767,27,26,230,0
95778,26,15,235,0
95789,32,31,228,0
95800,25,39,218,0
95811,15,27,218,0
95822,17,30,229,0
95833,17,44,228,0
95844,14,50,238,0
95855,15,49,238,0
95866,17,51,237,0
95877,19,48,232,0
95889,20,42,227,0
95900,22,45,222,0
95911,22,53,215,0
95922,16,59,211,0
95933,14,60,214,0
95944,15,64,225,0
95955,19,66,245,0
95966,28,67,252,0
95977,29,65,251,0
95988,30,52,233,0
95999,30,49,223,0
96010,32,48,221,0
96021,35,56,223,0
96032,37,60,233,0
96043,39,60,237,0
96054,40,60,235,0
96065,39,56,228,0
96076,37,61,221,0
96087,33,58,220,0
96098,32,61,219,0
96109,27,67,220,0
96120,20,69,224,0
96131,15,70,226,0
96142,6,67,217,0
96153,5,63,211,0
96164,7,58,202,0
96175,9,58,199,0
96186,9,60,206,0
96197,8,62,219,0
96208,7,66,228,0
96219,7,64,234,0
96230,9,59,233,0
96241,15,56,224,0
96252,19,47,219,0
96263,23,45,216,0
96274,28,47,219,0
96285,32,51,218,0
96296,29,50,223,0
96307,29,54,222,0
96318,24,55,221,0
96329,19,57,221,0
96340,19,58,219,0
96351,18,55,226,0
96362,21,60,239,0
96373,25,63,249,0
96384,24,62,251,0
96395,24,57,248,0
96406,23,57,240,0
96417,21,56,230,0
96428,20,58,225,0
96439,21,64,223,0
96450,17,69,226,0
96461,13,69,228,0
96472,13,66,229,0
96483,14,64,226,0
96494,15,63,227,0
96505,16,63,227,0
96516,21,64,228,0
96527,21,64,230,0
96538,19,66,230,0
96549,15,67,230,0
96560,12,66,225,0
96571,6,66,221,0
96582,3,63,217,0
96593,-3,63,215,0
96604,-20,62,219,0
96615,-23,60,218,0
96626,-23,56,221,0
96637,-21,55,221,0
96648,-18,54,223,0
96659,-16,56,226,0
96670,-10,59,228,0
96681,-8,60,227,0
96692,-2,61,227,0
96703,-1,61,227,0
96714,-1,64,226,0
96725,-2,64,226,0
96736,-1,64,223,0
96747,-2,63,223,0
96758,-6,63,220,0
96769,-6,64,222,0
96780,-7,67,221,0
96791,-8,67,223,0
96802,-8,68,223,0
96813,-8,70,223,0
96824,-7,72,223,0
96835,-10,72,223,0
96846,-14,73,221,0
96857,-14,69,221,0
96868,-14,65,220,0
96879,-13,65,218,0
96890,-13,66,216,0
96901,-14,65,216,0
96912,-12,72,216,0
96923,-13,74,219,0
96934,-14,74,218,0
96945,-14,74,217,0
96956,-16,73,218,0
96967,-17,69,217,0
96978,-21,67,215,0
96989,-25,65,216,0
97000,-28,63,212,0
97011,-32,60,210,0
97022,-36,62,210,0
97033,-39,63,211,0
97044,-42,67,214,0
97055,-46,71,216,0
97066,-51,75,224,0
97077,-48,69,223,0
97088,-46,68,220,0
97099,-46,63,220,0
97110,-49,64,217,0
97121,-45,61,219,0
97132,-40,63,224,0
97143,-29,76,225,1
97154,-26,84,237,0
97165,-36,88,259,0
97176,-53,79,290,0
97187,-62,71,300,0
97198,-62,66,297,0
97209,-63,63,300,0
97220,-41,81,309,0
97231,-22,85,310,0
97242,10,91,310,0
97253,52,86,306,0
97264,88,71,290,0
97275,115,83,261,0
97286,121,102,218,0
97297,119,95,195,0
97308,113,75,165,0
97319,102,64,163,0
97330,83,48,181,0
97341,63,41,195,0
97352,43,46,208,0
97363,22,58,224,0
97374,1,82,239,0
97385,-5,85,239,0
97396,-1,91,234,0
97407,6,94,232,0
97418,17,87,232,0
97429,25,69,223,0
97440,24,57,216,0
97451,19,47,206,0
97462,18,41,202,0
97473,19,35,196,0
97484,21,34,200,0
97495,21,38,202,0
97506,22,41,198,0
97517,24,45,194,0
97528,28,43,190,0
97539,24,44,189,0
97550,16,42,190,0
97561,4,47,189,0
97572,-5,48,190,0
97583,-18,40,188,0
97594,-37,38,187,0
97605,-43,29,192,0
97616,-41,52,200,0
97627,-37,52,202,0
97638,-33,25,176,0
97649,-38,64,166,0
97660,-37,75,173,0
97671,-37,74,189,0
97682,-38,53,198,0
97693,-38,58,200,0
97704,-35,61,205,0
97715,-38,78,212,0
97726,-49,74,230,0
97737,-55,53,242,0
97748,-55,35,250,0
97759,-45,29,252,0
97770,-42,51,272,0
97781,-48,46,295,0
97792,-57,59,284,0
97803,-69,90,276,1
97814,-76,96,294,0
97825,-73,97,315,0
97836,-45,79,347,0
97847,-34,103,345,0
97858,-7,105,374,0
97869,38,96,386,0
97880,71,89,368,0
97891,78,50,334,0
97902,67,41,287,0
97913,78,11,253,0
97924,86,-1,212,0
97935,78,7,167,0
97946,64,5,146,0
97957,51,5,141,0
97968,29,5,137,0
97979,11,2,139,0
97990,-5,2,166,0
98001,5,6,185,0
98012,24,17,198,0
98023,34,23,201,0
98034,45,26,210,0
98045,50,25,216,0
98056,42,29,212,0
98067,33,38,217,0
98078,26,53,227,0
98089,19,59,229,0
98100,11,57,222,0
98111,0,55,214,0
98122,-9,53,203,0
98133,-18,50,198,0
98144,-14,28,190,0
98155,-17,30,189,0
98166,-19,32,197,0
98177,-24,33,205,0
98188,-26,36,210,0
98199,-32,41,215,0
98210,-30,41,215,0
98221,-26,44,213,0
98232,-24,48,211,0
98243,-22,52,212,0
98254,-19,56,216,0
98265,-20,61,216,0
98276,-23,66,215,0
98287,-27,68,212,0
98298,-33,65,204,0
98309,-34,63,202,0
98320,-32,55,198,0
98331,-24,49,198,0
98342,-19,43,197,0
98353,-11,41,198,0
98364,-3,42,200,0
98375,1,50,201,0
98386,4,56,208,0
98397,12,58,220,0
98408,18,61,237,0
98419,15,65,254,1
98430,3,72,261,0
98441,-18,75,253,0
98452,-66,91,229,0
98463,-83,84,234,0
98474,-96,65,258,0
98485,-93,57,300,0
98496,-79,64,324,0
98507,-67,58,349,0
98518,-55,58,373,0
98529,-44,84,370,0
98540,-23,106,350,0
98551,11,105,323,0
98562,49,73,297,0
98573,81,50,264,0
98584,116,45,226,0
98595,131,50,199,0
98606,145,39,175,0
98617,138,34,170,0
98628,115,33,172,0
98639,92,41,182,0
98650,73,51,197,0
98661,59,59,224,0
98672,46,63,239,0
98683,31,63,249,0
98694,22,69,261,0
98705,19,68,264,0
98716,21,64,254,0
98727,22,62,244,0
98738,21,57,232,0
98749,17,60,222,0
98760,17,60,212,0
98771,10,53,185,0
98782,8,54,191,0
98793,8,52,189,0
98804,13,59,195,0
98815,11,51,190,0
98826,12,52,190,0
98837,14,52,192,0
98848,16,52,193,0
98859,14,51,191,0
98870,9,47,182,0
98881,-4,40,175,0
98892,-9,27,166,0
98903,-5,30,178,0
98914,-2,35,185,0
98925,0,57,178,0
98936,-14,89,177,0
98947,-28,91,177,0
98958,-33,70,203,0
98969,-30,53,223,0
98980,-35,66,227,0
98991,-35,65,225,0
99002,-31,67,225,0
99013,-27,66,232,0
99024,-18,70,234,0
99035,-12,60,261,0
99046,-18,76,249,0
99057,-52,121,239,0
99068,-81,111,269,0
99079,-69,102,357,1
99090,-57,127,378,0
99101,-55,166,366,0
99112,-4,100,387,0
99123,43,110,379,0
99134,61,93,365,0
99145,73,22,349,0
99156,95,23,327,0
99167,108,1,286,0
99178,93,0,216,0
99189,70,-20,168,0
99200,34,-25,154,0
99211,3,-28,148,0
99222,-22,-19,143,0
99233,-23,2,153,0
99244,-2,5,158,0
99255,19,12,176,0
99266,42,16,190,0
99277,61,19,196,0
99288,77,27,207,0
99299,77,40,214,0
99310,73,47,213,0
99321,61,46,206,0
99332,42,52,201,0
99343,21,60,208,0
99354,4,61,212,0
99365,-9,63,213,0
99376,-16,63,209,0
99387,-34,47,197,0
99398,-40,47,197,0
99409,-44,46,198,0
99420,-48,47,201,0
99431,-48,47,204,0
99442,-41,50,208,0
99453,-33,53,210,0
99464,-26,57,210,0
99475,-20,63,213,0
99486,-19,65,214,0
99497,-21,68,216,0
99508,-22,69,217,0
99519,-24,75,217,0
99530,-24,81,214,0
99541,-17,70,206,0
99552,-11,67,205,0
99563,-5,61,204,0
99574,0,51,206,0
99585,3,43,204,0
99596,10,40,197,0
99607,14,48,194,0
99618,11,52,200,0
99629,11,58,222,0
99640,11,66,242,0
99651,7,64,250,0
99662,-12,60,242,0
99673,-47,67,219,0
99684,-79,74,194,0
99695,-74,67,201,0
99706,-47,73,249,1
99717,-11,63,303,0
99728,25,52,337,0
99739,43,55,344,0
99750,17,59,353,0
99761,4,63,343,0
99772,2,63,313,0
99783,16,54,272,0
99794,49,39,264,0
99805,90,23,261,0
99816,122,35,249,0
99827,140,47,233,0
99838,146,58,220,0
99849,125,66,204,0
99860,98,94,238,0
99871,75,109,273,0
99882,53,101,281,0
99893,27,89,271,0
99904,5,78,257,0
99915,-14,72,249,0
99926,-28,64,241,0
99937,-30,68,239,0
99948,-27,72,231,0
99959,-20,73,223,0
99970,-15,67,211,0
99981,-7,66,197,0
99992,-3,59,182,0
100003,15,42,164,0
100014,23,41,163,0
100025,28,48,164,0
100036,34,54,173,0
100047,40,57,179,0
100058,39,54,180,0
100069,33,48,183,0
100080,24,41,183,0
100091,21,36,182,0
100102,8,48,182,0
100113,1,53,189,0
100124,-2,61,190,0
100135,-2,59,182,0
100146,-2,62,173,0
100157,-6,81,177,0
100168,-13,80,178,0
100179,-25,75,178,0
100190,-33,72,191,0
100201,-43,67,209,0
100212,-42,58,235,0
100223,-35,60,247,0
100234,-28,67,251,0
100245,-31,91,261,0
100256,-33,93,287,0
100267,-27,97,298,0
100278,-27,114,304,1
100289,-36,127,312,0
100300,-32,119,330,0
100311,-23,123,390,0
100322,-10,123,379,0
100333,15,91,389,0
100344,36,67,363,0
100355,26,78,296,0
100366,2,42,251,0
100377,14,-11,229,0
100388,18,0,202,0
100399,26,-14,184,0
100410,29,-1,169,0
100421,20,7,158,0
100432,8,14,157,0
100443,-11,14,160,0
100454,-25,18,164,0
100465,-6,33,186,0
100476,12,33,190,0
100487,18,32,196,0
100498,19,29,197,0
100509,17,29,204,0
100520,22,32,203,0
100531,29,39,194,0
100542,33,43,193,0
100553,42,54,202,0
100564,40,56,210,0
100575,29,52,208,0
100586,16,46,211,0
100597,10,43,213,0
100608,13,43,217,0
100619,1,43,201,0
100630,-14,44,198,0
100641,-29,45,195,0
100652,-43,49,197,0
100663,-54,53,201,0
100674,-59,56,200,0
100685,-61,60,202,0
100696,-60,64,204,0
100707,-57,69,207,0
100718,-55,77,212,0
100729,-53,82,214,0
100740,-52,85,219,0
100751,-51,84,218,0
100762,-49,79,214,0
100773,-39,63,203,0
100784,-31,54,200,0
100795,-20,48,198,0
100806,-11,45,196,0
100817,-1,45,196,0
100828,11,58,196,0
100839,14,66,199,0
100850,17,69,209,0
100861,10,85,221,0
100872,-3,94,221,0
100883,-34,102,221,1
100894,-69,101,206,0
100905,-93,104,202,0
100916,-93,106,211,0
100927,-80,93,237,0
100938,-43,94,308,0
100949,-19,83,325,0
100960,-12,68,351,0
100971,-11,65,361,0
100982,-7,62,348,0
100993,-1,47,313,0
101004,24,48,278,0
101015,41,31,252,0
101026,71,-10,246,0
101037,106,-26,233,0
101048,131,-13,207,0
101059,146,18,187,0
101070,151,39,174,0
101081,140,53,190,0
101092,106,37,201,0
101103,70,66,237,0
101114,39,102,298,0
101126,4,105,319,0
101137,-21,101,311,0
101148,-39,92,293,0
101159,-49,99,278,0
101170,-41,84,263,0
101181,-31,81,243,0
101192,-21,91,230,0
101203,-9,77,215,0
101214,2,64,189,0
101225,4,47,164,0
101236,8,46,161,0
101247,17,45,164,0
101258,28,49,165,0
101269,34,54,164,0
101280,43,59,168,0
101291,48,57,171,0
101302,44,53,167,0
101313,39,45,167,0
101324,27,40,165,0
101335,16,42,171,0
101346,2,48,178,0
101357,-9,51,187,0
101368,-21,53,190,0
101379,-38,53,185,0
101390,-43,49,182,0
101401,-47,47,184,0
101412,-53,57,190,0
101423,-61,65,203,0
101434,-69,64,213,0
101445,-75,58,226,0
101456,-75,48,234,0
101467,-63,35,250,0
101478,-33,57,273,0
101489,-12,69,313,0
101500,3,57,312,0
101511,0,73,279,1
101522,-36,116,267,0
101533,-61,67,342,0
101544,-45,47,361,0
101555,-8,71,350,0
101566,33,96,372,0
101577,66,93,401,0
101588,81,74,376,0
101599,71,54,317,0
101610,64,30,261,0
101621,70,31,232,0
101632,83,28,240,0
101643,78,72,232,0
101654,62,46,225,0
101665,37,18,203,0
101676,5,32,194,0
101687,-11,5,158,0
101698,9,-6,142,0
101709,29,-24,143,0
101720,58,-27,153,0
101731,78,-16,167,0
101742,99,3,187,0
101753,119,24,205,0
101764,126,45,210,0
101775,121,58,203,0
101786,102,70,211,0
101797,82,75,213,0
101808,55,79,223,0
101819,35,76,225,0
101830,13,74,212,0
101841,0,62,196,0
101852,-33,54,194,0
101863,-44,56,199,0
101874,-50,54,201,0
101885,-53,55,211,0
101896,-50,56,215,0
101907,-44,61,213,0
101918,-36,65,215,0
101929,-31,67,215,0
101940,-28,74,217,0
101951,-31,77,225,0
101962,-33,79,227,0
101973,-41,80,230,0
101984,-48,68,229,0
101995,-52,60,223,0
102006,-62,44,211,0
102017,-57,38,199,0
102028,-51,36,189,0
102039,-46,40,183,0
102050,-46,46,180,0
102061,-45,44,185,0
102072,-30,52,193,0
102083,-21,65,206,0
102094,-16,65,226,1
102105,-10,50,238,0
102116,1,44,231,0
102127,-6,45,222,0
102138,-28,48,225,0
102149,-33,54,237,0
102160,-4,51,293,0
102171,5,41,321,0
102182,22,21,323,0
102193,21,6,323,0
102204,31,16,329,0
102215,59,45,308,0
102226,71,64,274,0
102237,70,30,289,0
102248,96,-13,300,0
102259,126,-1,273,0
102270,134,51,243,0
102281,123,90,222,0
102292,103,101,212,0
102303,83,97,201,0
102314,45,123,274,0
102325,4,126,277,0
102336,-31,121,265,0
102347,-59,92,255,0
102358,-79,76,257,0
102369,-80,62,259,0
102380,-69,55,249,0
102391,-47,54,228,0
102402,-26,54,218,0
102413,-3,43,198,0
102424,16,38,178,0
102435,32,35,156,0
102446,46,35,146,0
102457,53,31,132,0
102468,50,38,147,0
102479,46,45,152,0
102490,38,45,168,0
102501,21,45,175,0
102512,-2,45,177,0
102523,-16,43,180,0
102534,-29,43,177,0
102545,-42,42,181,0
102556,-50,40,188,0
102567,-57,44,191,0
102578,-61,42,199,0
102589,-69,42,202,0
102600,-72,36,208,0
102611,-74,33,208,0
102622,-84,49,220,0
102633,-94,64,235,0
102644,-105,67,238,0
102655,-111,67,237,0
102666,-111,66,238,0
102677,-105,58,241,1
102688,-80,39,252,0
102699,-49,64,267,0
102710,-41,78,266,0
102721,-51,99,263,0
102732,-58,97,279,0
102743,-54,97,318,0
102754,-43,70,374,0
102765,-14,69,376,0
102776,52,53,397,0
102787,99,53,361,0
102798,104,76,323,0
102809,102,63,305,0
102820,143,54,312,0
102831,159,92,273,0
102842,131,77,213,0
102853,101,22,167,0
102865,86,6,169,0
102876,58,-1,175,0
102887,19,-15,152,0
102898,9,-20,140,0
102909,26,-24,157,0
102920,45,-19,169,0
102931,58,-4,184,0
102942,65,16,199,0
102953,83,35,221,0
102964,91,51,229,0
102975,90,68,228,0
102986,84,72,220,0
102997,65,77,212,0
103008,45,78,209,0
103019,18,77,213,0
103031,-6,74,208,0
103042,-29,64,198,0
103053,-50,59,192,0
103064,-65,49,191,0
103075,-63,49,199,0
103086,-58,48,207,0
103097,-46,44,213,0
103108,-34,50,216,0
103119,-31,64,212,0
103130,-32,65,214,0
103141,-31,67,219,0
103152,-32,79,223,0
103163,-36,86,231,0
103174,-44,91,228,0
103185,-52,85,228,0
103196,-60,79,225,0
103207,-66,70,223,0
103218,-85,59,213,0
103229,-78,45,197,0
103240,-62,45,184,0
103251,-47,60,177,0
103262,-31,61,186,0
103273,-19,54,192,0
103284,-16,47,198,0
103295,-9,39,206,0
103306,0,39,210,0
103317,8,35,215,0
103328,7,26,216,1
103339,-4,32,216,0
103350,-29,48,218,0
103361,-58,64,220,0
103372,-40,69,261,0
103383,-24,70,295,0
103394,-16,57,316,0
103405,-5,31,315,0
103416,-4,13,316,0
103427,0,4,325,0
103438,13,3,322,0
103449,26,34,296,0
103460,24,44,281,0
103471,24,9,286,0
103482,51,-25,275,0
103493,71,16,246,0
103504,85,60,213,0
103515,94,92,193,0
103526,97,97,191,0
103537,84,88,199,0
103548,68,90,231,0
103559,45,95,275,0
103570,18,73,287,0
103581,-12,69,274,0
103592,-15,67,270,0
103603,-15,50,270,0
103614,-14,47,261,0
103625,-3,46,250,0
103636,13,47,235,0
103647,27,51,221,0
103658,34,51,200,0
103669,35,43,183,0
103680,28,44,174,0
103691,27,42,167,0
103702,19,43,165,0
103713,14,47,165,0
103724,12,50,172,0
103735,8,53,180,0
103746,5,52,185,0
103757,1,50,189,0
103768,-7,45,190,0
103779,-16,43,193,0
103790,-27,47,194,0
103801,-35,47,191,0
103812,-41,48,187,0
103823,-48,52,186,0
103834,-62,48,183,0
103845,-62,40,184,0
103856,-62,48,189,0
103867,-63,53,194,0
103878,-65,55,200,0
103889,-65,59,208,0
103900,-67,72,216,0
103911,-72,80,218,0
103922,-77,75,225,1
103933,-68,58,236,0
103944,-46,54,252,0
103955,-33,67,270,0
103966,-36,84,272,0
103977,-44,91,276,0
103988,-70,80,291,0
103999,-70,60,332,0
104010,-63,42,378,0
104021,-44,57,362,0
104032,-23,96,344,0
104043,8,86,362,0
104054,65,75,357,0
104065,123,66,334,0
104076,120,56,321,0
104087,84,47,288,0
104098,104,37,257,0
104109,115,30,230,0
104120,88,23,189,0
104131,59,23,154,0
104142,9,-4,148,0
104153,-8,-2,153,0
104164,-17,-12,153,0
104175,-3,-10,163,0
104186,28,-9,184,0
104197,54,-4,194,0
104208,62,0,202,0
104219,65,8,206,0
104230,69,29,213,0
104241,66,46,220,0
104252,60,56,223,0
104263,52,62,221,0
104274,43,65,225,0
104285,31,63,225,0
104296,15,54,219,0
104307,10,50,208,0
104318,8,39,198,0
104329,11,32,191,0
104340,12,39,192,0
104351,12,45,195,0
104362,11,59,204,0
104373,3,63,215,0
104384,-6,63,220,0
104395,-16,63,230,0
104406,-23,64,241,0
104417,-28,60,248,0
104428,-25,55,242,0
104439,-29,52,234,0
104450,-28,41,217,0
104461,-25,35,213,0
104472,-21,32,211,0
104483,-19,29,212,0
104494,-16,22,213,0
104505,-14,20,213,0
104516,-11,24,210,0
104527,-13,30,199,0
104538,-15,36,193,0
104549,-16,46,189,0
104560,-20,59,194,0
104571,-20,63,203,1
104582,-15,57,210,0
104593,-4,52,218,0
104604,12,61,231,0
104616,6,46,235,0
104627,0,33,237,0
104638,-21,31,243,0
104649,-45,28,248,0
104660,-50,34,254,0
104671,-53,19,276,0
104682,-27,21,286,0
104693,1,38,279,0
104704,4,15,298,0
104715,15,16,331,0
104726,38,56,328,0
104737,50,68,327,0
104748,70,22,339,0
104759,72,32,297,0
104770,71,35,255,0
104781,77,33,224,0
104792,76,51,197,0
104803,66,56,167,0
104814,49,53,137,0
104825,37,50,147,0
104836,27,64,184,0
104847,14,80,227,0
104858,4,81,248,0
104869,-1,80,240,0
104880,-10,85,229,0
104891,-12,95,230,0
104902,4,93,253,0
104913,13,75,248,0
104924,14,63,231,0
104935,14,53,214,0
104946,12,43,196,0
104957,12,41,189,0
104968,13,39,182,0
104979,10,37,182,0
104990,9,41,183,0
105001,6,44,186,0
105012,2,47,189,0
105023,-4,50,197,0
105034,-13,53,202,0
105045,-23,51,203,0
105056,-44,44,204,0
105067,-51,45,202,0
105078,-57,41,203,0
105089,-56,34,198,0
105101,-46,23,190,0
105112,-41,24,187,0
105123,-42,36,178,0
105134,-42,46,171,0
105145,-42,52,170,0
105156,-44,55,177,0
105167,-44,48,188,0
105178,-39,40,193,0
105189,-41,49,201,0
105200,-37,75,232,0
105211,-33,89,255,1
105222,-40,103,284,0
105233,-59,104,290,0
105244,-80,121,284,0
105255,-107,126,276,0
105266,-117,108,291,0
105277,-107,122,325,0
105288,-85,115,364,0
105299,-67,151,350,0
105310,-22,161,363,0
105321,52,96,379,0
105332,92,51,340,0
105343,69,55,282,0
105354,108,-14,261,0
105365,134,16,265,0
105376,123,14,212,0
105387,103,-10,168,0
105398,77,-20,168,0
105409,47,-2,180,0
105420,22,4,191,0
105431,1,6,194,0
105442,9,3,196,0
105453,25,-1,198,0
105464,28,0,204,0
105475,25,9,204,0
105486,26,21,207,0
105497,30,30,206,0
105508,41,37,201,0
105519,35,44,205,0
105530,29,46,205,0
105541,21,45,201,0
105552,11,49,204,0
105563,-1,56,208,0
105574,-8,51,208,0
105585,-9,45,207,0
105597,-12,47,205,0
105608,-16,50,207,0
105619,-28,48,215,0
105630,-35,47,220,0
105641,-44,51,222,0
105652,-61,59,219,0
105663,-62,58,217,0
105674,-59,54,213,0
105685,-58,54,212,0
105696,-56,55,209,0
105707,-55,56,210,0
105718,-51,56,209,0
105729,-44,53,206,0
105740,-42,53,205,0
105751,-36,49,202,0
105762,-32,44,200,0
105773,-31,43,200,0
105784,-30,41,197,0
105795,-26,43,194,0
105806,-16,43,202,0
105817,-4,41,210,0
105828,6,39,219,0
105839,14,40,221,1
105850,13,38,218,0
105861,2,41,208,0
105872,-17,55,199,0
105883,-28,76,189,0
105894,-35,85,193,0
105905,-36,83,219,0
105916,-39,78,270,0
105927,-39,84,308,0
105938,-40,76,327,0
105949,-49,60,358,0
105960,-51,55,361,0
105971,-31,63,341,0
105982,-1,74,325,0
105993,19,62,317,0
106004,45,41,303,0
106015,71,39,274,0
106026,96,45,244,0
106037,106,44,209,0
106048,110,43,175,0
106059,105,41,140,0
106070,92,42,129,0
106081,76,34,124,0
106092,62,34,146,0
106103,47,46,186,0
106114,23,57,240,0
106125,17,66,255,0
106136,7,74,265,0
106147,3,84,270,0
106158,9,83,266,0
106169,21,80,270,0
106180,24,72,262,0
106191,21,58,241,0
106202,14,54,222,0
106213,10,55,203,0
106224,9,52,192,0
106235,8,43,191,0
106246,11,41,195,0
106257,16,42,197,0
106268,19,49,197,0
106279,17,52,197,0
106290,10,55,197,0
106301,0,56,196,0
106312,-13,58,195,0
106323,-31,60,193,0
106334,-31,55,201,0
106345,-30,61,207,0
106356,-26,55,197,0
106367,-24,59,191,0
106378,-24,65,182,0
106389,-25,77,175,0
106400,-24,79,173,0
106411,-27,72,175,0
106422,-32,65,191,0
106433,-35,66,198,0
106444,-34,61,211,0
106455,-30,45,225,0
106466,-23,46,225,0
106477,-25,59,226,0
106488,-26,65,228,0
106499,-29,75,249,0
106510,-31,67,256,1
106521,-48,89,240,0
106532,-72,104,244,0
106543,-76,103,259,0
106554,-74,102,283,0
106565,-51,110,325,0
106576,3,152,386,0
106587,63,129,420,0
106598,89,127,400,0
106609,87,78,373,0
106620,90,39,330,0
106631,96,17,294,0
106642,79,14,251,0
106653,56,4,192,0
106664,46,-12,159,0
106675,23,-23,149,0
106686,1,-20,148,0
106697,-20,-10,144,0
106708,-32,5,144,0
106719,-17,23,163,0
106730,25,34,192,0
106741,45,38,200,0
106752,59,43,212,0
106763,65,50,217,0
106774,67,58,224,0
106785,63,56,217,0
106796,54,51,208,0
106807,46,50,209,0
106818,27,54,206,0
106829,15,60,212,0
106840,4,54,220,0
106851,-2,50,221,0
106862,-14,44,214,0
106873,-22,42,206,0
106884,-28,43,205,0
106895,-34,49,205,0
106906,-31,51,212,0
106918,-29,59,218,0
106929,-21,64,222,0
106940,-14,68,223,0
106951,-12,71,227,0
106962,-14,74,225,0
106973,-18,74,225,0
106984,-27,75,221,0
106995,-34,75,214,0
107006,-37,71,209,0
107017,-41,71,207,0
107028,-36,69,201,0
107039,-31,68,202,0
107050,-24,67,203,0
107061,-13,68,206,0
107072,1,72,216,0
107083,13,71,227,0
107094,19,63,240,0
107105,18,55,245,0
107116,15,45,244,1
107127,14,34,244,0
107138,6,30,236,0
107149,-7,35,218,0
107160,-25,54,196,0
107171,-55,71,188,0
107182,-66,84,193,0
107193,-39,78,245,0
107204,-19,59,286,0
107215,3,45,329,0
107226,16,59,368,0
107237,2,71,383,0
107248,-17,92,379,0
107259,-22,110,363,0
107270,-5,114,329,0
107281,12,104,289,0
107292,34,83,261,0
107303,67,64,234,0
107314,96,52,177,0
107325,112,30,131,0
107336,110,12,104,0
107347,80,19,128,0
107358,69,28,152,0
107369,59,40,181,0
107380,46,54,211,0
107391,35,62,229,0
107402,31,73,244,0
107413,24,82,260,0
107424,22,78,271,0
107435,30,71,282,0
107446,40,63,272,0
107458,42,58,255,0
107469,35,61,244,0
107480,26,63,216,0
107491,18,65,210,0
107502,10,66,209,0
107513,0,63,204,0
107524,-7,62,209,0
107535,-13,66,215,0
107546,-18,69,221,0
107557,-19,64,220,0
107568,-12,62,220,0
107579,-3,60,213,0
107590,11,59,205,0
107601,20,57,195,0
107612,28,47,188,0
107623,31,40,178,0
107635,36,31,166,0
107646,30,30,163,0
107657,21,34,162,0
107668,12,29,177,0
107679,10,37,193,0
107690,4,56,194,0
107701,-14,82,196,0
107712,-24,65,218,0
107723,-26,68,214,0
107734,-41,90,208,0
107745,-63,89,209,0
107756,-68,71,212,0
107767,-65,72,220,1
107778,-69,93,232,0
107789,-90,128,242,0
107800,-117,140,265,0
107811,-126,135,282,0
107822,-126,152,293,0
107833,-109,147,337,0
107844,-83,148,348,0
107855,-49,149,350,0
107866,15,121,379,0
107877,68,128,397,0
107888,89,91,376,0
107899,106,25,325,0
107910,138,14,326,0
107921,153,22,320,0
107932,94,-22,170,0
107943,61,-37,141,0
107954,29,-43,131,0
107965,9,-35,130,0
107976,3,-25,134,0
107987,4,-21,140,0
107998,20,-24,158,0
108009,39,-7,184,0
108020,50,15,209,0
108031,61,37,230,0
108042,68,50,242,0
108053,69,57,241,0
108064,60,54,225,0
108075,45,53,210,0
108086,24,49,203,0
108097,-17,57,206,0
108108,-29,58,213,0
108119,-37,50,210,0
108130,-43,43,204,0
108141,-51,33,196,0
108152,-52,30,193,0
108163,-55,35,196,0
108174,-54,37,200,0
108185,-49,39,206,0
108196,-37,55,224,0
108207,-28,58,223,0
108218,-23,62,224,0
108229,-22,66,226,0
108240,-25,69,225,0
108251,-35,67,215,0
108262,-40,69,214,0
108273,-43,67,210,0
108284,-41,67,208,0
108296,-35,67,208,0
108307,-26,63,208,0
108318,-13,57,207,0
108329,-4,55,208,0
108340,8,54,209,0
108351,21,59,208,0
108362,33,68,208,0
108373,33,69,217,0
108384,22,65,228,0
108395,5,58,228,0
108406,4,58,218,1
108417,-7,70,213,0
108428,-35,79,206,0
108439,-64,83,202,0
108450,-72,92,198,0
108461,-65,101,218,0
108472,-43,104,258,0
108483,-18,95,303,0
108494,2,72,324,0
108505,14,60,337,0
108516,14,55,336,0
108527,4,51,326,0
108538,1,43,304,0
108549,6,57,261,0
108560,22,67,237,0
108571,51,53,220,0
108582,83,20,197,0
108593,115,17,186,0
108604,139,22,181,0
108615,146,40,179,0
108626,146,42,179,0
108637,140,30,185,0
108648,121,21,191,0
108659,99,37,240,0
108670,78,56,285,0
108681,58,72,305,0
108692,33,80,301,0
108703,-5,98,286,0
108714,-9,99,275,0
108725,-7,91,261,0
108736,-10,82,247,0
108747,-10,82,233,0
108758,-4,77,216,0
108769,0,78,203,0
108780,-1,74,192,0
108791,0,72,185,0
108802,5,67,183,0
108813,5,66,179,0
108824,5,64,189,0
108835,16,63,190,0
108846,25,68,190,0
108857,15,64,179,0
108869,15,56,181,0
108880,12,58,181,0
108891,12,61,179,0
108902,8,65,171,0
108913,2,65,170,0
108924,8,53,181,0
108935,10,45,171,0
108946,4,53,160,0
108957,0,58,161,0
108968,-7,62,164,0
108979,-19,64,169,0
108990,-32,63,185,0
109001,-47,75,230,0
109012,-48,91,238,0
109023,-43,92,244,1
109034,-31,83,250,0
109045,-25,83,267,0
109056,-8,70,292,0
109067,7,78,299,0
109078,5,108,303,0
109089,-4,113,293,0
109100,-8,99,287,0
109111,-1,102,289,0
109122,34,83,318,0
109133,63,84,338,0
109144,68,115,326,0
109155,90,97,346,0
109166,65,96,320,0
109177,49,40,294,0
109188,30,22,263,0
109199,6,23,234,0
109210,-15,1,212,0
109221,-19,-10,186,0
109232,-17,-10,173,0
109243,-15,-8,173,0
109254,-18,1,174,0
109265,-15,9,169,0
109276,-8,21,165,0
109287,15,31,163,0
109298,44,43,173,0
109309,64,46,187,0
109320,72,42,193,0
109331,67,44,198,0
109342,55,53,209,0
109353,45,62,224,0
109364,33,62,227,0
109375,18,63,226,0
109386,5,59,221,0
109397,-8,61,211,0
109408,-14,55,209,0
109419,-15,53,210,0
109430,-10,57,210,0
109441,-13,62,211,0
109452,-16,61,209,0
109463,-28,64,203,0
109474,-30,63,203,0
109485,-30,66,204,0
109496,-27,67,208,0
109507,-23,66,213,0
109518,-13,68,217,0
109529,-6,70,219,0
109540,0,70,224,0
109551,1,71,224,0
109562,1,71,224,0
109573,-3,69,222,0
109584,-7,67,221,0
109595,-11,66,215,0
109606,-16,64,208,0
109617,-16,61,203,0
109628,-12,60,207,0
109639,-6,61,211,0
109650,3,61,215,0
109661,11,58,217,0
109672,10,50,219,0
109683,7,44,220,0
109694,9,46,223,0
109705,12,50,225,0
109716,9,54,224,0
109727,2,62,225,0
109738,-4,65,226,0
109749,-15,74,223,1
109760,-27,93,216,0
109771,-44,104,214,0
109782,-30,92,249,0
109793,-7,85,277,0
109804,2,76,307,0
109815,0,63,330,0
109826,-6,58,341,0
109837,-3,64,335,0
109848,8,74,311,0
109859,32,74,288,0
109870,57,70,256,0
109881,73,33,243,0
109892,94,5,235,0
109903,113,4,226,0
109914,133,5,210,0
109925,140,19,183,0
109936,107,43,153,0
109947,84,62,182,0
109958,63,79,226,0
109969,48,85,260,0
109980,34,90,287,0
109991,23,82,286,0
110002,16,69,266,0
110013,8,68,256,0
110024,5,69,246,0
110035,3,69,239,0
110046,3,62,231,0
110057,0,54,223,0
110068,-2,49,209,0
110080,-3,55,205,0
110091,0,50,198,0
110102,4,55,194,0
110113,5,61,195,0
110124,9,65,192,0
110135,10,69,191,0
110146,12,68,191,0
110157,12,65,190,0
110168,7,61,192,0
110179,0,60,192,0
110190,-11,57,190,0
110201,-29,53,188,0
110212,-37,44,193,0
110223,-24,58,206,0
110234,-12,46,190,0
110245,-6,74,182,0
110256,-21,99,173,0
110267,-27,84,177,0
110278,-20,62,180,0
110289,-14,66,180,0
110300,-22,74,194,0
110312,-26,68,218,0
110323,-20,63,231,0
110334,-9,59,228,0
110345,-9,72,230,0
110356,-15,106,233,0
110367,-16,70,253,0
110378,-43,97,251,1
110389,-56,108,270,0
110400,-75,125,265,0
110411,-70,109,299,0
110422,-51,148,331,0
110433,-34,179,351,0
110444,34,123,396,0
110455,71,147,392,0
110466,88,119,391,0
110477,83,76,348,0
110488,84,42,291,0
110499,87,15,261,0
110510,87,14,230,0
110521,46,-9,151,0
110532,21,-3,153,0
110543,6,-1,159,0
110554,0,11,161,0
110565,0,18,165,0
110576,6,9,170,0
110587,19,7,177,0
110598,36,17,189,0
110609,57,34,209,0
110620,68,47,221,0
110631,66,58,226,0
110642,55,55,219,0
110653,34,52,207,0
110664,16,49,197,0
110675,-10,53,209,0
110686,-17,56,209,0
110697,-18,51,208,0
110709,-16,50,202,0
110720,-8,47,200,0
110731,-7,45,192,0
110742,-3,48,191,0
110753,-2,54,194,0
110764,1,60,200,0
110775,3,68,209,0
110786,6,74,217,0
110797,6,79,221,0
110808,4,82,223,0
110819,1,75,212,0
110830,-6,70,214,0
110841,-12,75,215,0
110852,-21,79,220,0
110863,-18,79,215,0
110874,-13,80,209,0
110885,-7,76,204,0
110896,-4,71,199,0
110907,1,64,197,0
110918,8,59,196,0
110929,19,50,194,0
110940,27,49,196,0
110951,27,55,197,0
110962,26,65,207,1
110973,28,91,249,0
110984,29,101,270,0
110995,12,115,269,0
111006,-9,112,255,0
111017,-27,97,236,0
111028,-34,74,220,0
111039,-46,54,240,0
111050,-42,47,271,0
111061,-34,57,290,0
111072,-17,53,322,0
111083,4,78,368,0
111094,30,121,388,0
111105,51,133,375,0
111116,56,115,349,0
111127,56,53,264,0
111138,67,17,221,0
111150,78,2,186,0
111161,81,8,165,0
111172,77,19,138,0
111183,65,25,119,0
111194,51,31,108,0
111205,37,42,145,0
111216,30,60,193,0
111227,21,76,228,0
111238,11,81,251,0
111249,7,86,260,0
111260,16,92,267,0
111271,37,84,265,0
111282,47,74,256,0
111293,47,64,244,0
111304,43,54,228,0
111315,37,50,212,0
111326,31,48,204,0
111337,30,48,198,0
111348,30,48,192,0
111359,29,53,192,0
111370,26,54,191,0
111381,23,56,192,0
111392,17,59,197,0
111403,10,61,199,0
111414,5,60,200,0
111425,-3,57,197,0
111436,-11,54,190,0
111447,-17,52,182,0
111458,-18,48,179,0
111469,-14,44,182,0
111480,-13,48,183,0
111491,-11,45,178,0
111502,-5,45,178,0
111513,-9,62,184,0
111524,-14,72,191,0
111535,-16,73,203,0
111546,-17,67,214,0
111557,-16,56,222,0
111568,-14,48,229,0
111579,-11,63,230,0
111590,-7,68,234,0
111601,-6,76,246,0
111612,-12,69,260,0
111623,-19,82,250,0
111634,-37,114,248,0
111645,-59,113,260,1
111656,-63,100,281,0
111667,-65,98,321,0
111678,-50,119,349,0
111689,-37,160,361,0
111700,2,122,387,0
111711,54,82,378,0
111722,48,122,343,0
111733,59,37,277,0
111744,71,27,268,0
111755,79,33,262,0
111766,74,44,224,0
111777,57,11,177,0
111788,34,-8,151,0
111799,15,-27,147,0
111810,1,-25,146,0
111821,-3,-22,148,0
111832,9,-6,157,0
111843,26,4,179,0
111854,38,19,198,0
111865,50,28,216,0
111876,55,41,222,0
111887,55,48,226,0
111898,60,57,219,0
111909,52,56,213,0
111920,35,53,211,0
111931,17,53,211,0
111942,3,55,206,0
111953,-9,57,207,0
111964,-18,51,202,0
111975,-21,41,196,0
111986,-24,41,194,0
111997,-29,37,194,0
112008,-31,41,198,0
112019,-34,47,206,0
112030,-34,52,213,0
112041,-33,58,220,0
112052,-33,63,222,0
112063,-32,67,222,0
112074,-31,65,219,0
112085,-33,67,215,0
112096,-33,65,215,0
112107,-34,65,212,0
112118,-32,63,209,0
112129,-31,62,208,0
112140,-28,61,205,0
112151,-25,58,204,0
112162,-22,53,204,0
112173,-20,50,206,0
112184,-16,47,210,0
112195,-9,45,210,0
112206,2,55,207,0
112217,2,59,212,0
112228,2,61,222,0
112239,1,62,229,0
112250,1,59,234,0
112261,1,53,230,1
112272,-5,56,218,0
112283,-25,68,202,0
112294,-35,86,189,0
112305,-51,90,195,0
112316,-53,85,221,0
112327,-49,82,274,0
112338,-29,83,330,0
112349,-5,71,356,0
112360,5,78,370,0
112371,6,102,351,0
112382,2,95,336,0
112393,27,85,306,0
112404,56,83,280,0
112415,88,69,247,0
112426,114,50,217,1
112437,129,39,193,0
112448,136,37,176,0
112459,128,34,158,0
112470,107,34,160,0
112481,78,31,163,0
112492,54,41,179,0
112503,32,52,208,0
112514,5,64,248,0
112525,-4,73,253,0
112536,-9,75,257,0
112547,-3,74,258,0
112558,6,76,257,0
112569,15,70,252,0
112580,21,71,249,0
112591,20,71,241,0
112602,19,64,222,0
112613,14,64,206,0
112624,13,57,199,0
112635,10,52,200,0
112646,4,50,200,0
112657,1,49,207,0
112668,3,52,211,0
112679,6,55,209,0
112690,9,54,203,0
112701,8,54,195,0
112712,6,57,188,0
112723,0,57,181,0
112734,-8,57,176,0
112745,-17,54,173,0
112756,-25,55,172,0
112767,-29,55,170,0
112778,-27,57,170,0
112789,-21,56,177,0
112800,-15,56,182,0
112811,-7,62,183,0
112822,-11,83,202,0
112833,-9,60,214,0
112844,-1,45,224,0
112855,-9,60,221,0
112866,-24,71,220,0
112877,-35,65,224,0
112888,-37,61,226,0
112899,-41,63,241,0
112910,-49,63,254,0
112921,-66,84,244,0
112932,-82,108,248,0
112943,-83,116,272,1
112954,-85,131,304,0
112965,-59,131,368,0
112976,-10,160,404,0
112987,51,120,413,0
112998,66,106,398,0
113009,70,51,360,0
113020,77,19,333,0
113031,102,24,306,0
113042,87,11,229,0
113053,66,-6,162,0
113064,47,-19,125,0
113075,25,-25,117,0
113086,14,-26,119,0
113097,9,-29,121,0
113108,9,-17,144,0
113119,16,-8,169,0
113130,31,9,218,0
113141,37,23,234,0
113152,39,28,246,0
113163,35,43,242,0
113174,23,40,232,0
113185,17,43,217,0
113196,10,37,199,0
113207,4,38,192,0
113218,-3,35,191,0
113229,-13,38,191,0
113240,-16,35,193,0
113251,-18,39,195,0
113262,-13,39,201,0
113273,-5,29,200,0
113284,-4,29,211,0
113295,-4,36,217,0
113306,-8,43,223,0
113317,-8,48,225,0
113328,-12,51,227,0
113339,-12,57,227,0
113350,-12,58,225,0
113361,-14,58,223,0
113372,-18,60,223,0
113383,-24,61,225,0
113394,-32,65,227,0
113405,-38,72,221,0
113416,-41,74,211,0
113427,-40,80,202,0
113438,-36,75,191,0
113449,-35,68,183,0
113460,-27,74,188,0
113471,-13,78,191,0
113482,-2,71,215,0
113493,4,61,253,0
113504,4,46,264,0
113515,0,37,255,0
113526,-7,32,237,0
113537,-25,30,219,0
113548,-45,29,215,0
113559,-62,40,212,1
113570,-71,61,210,0
113581,-72,69,224,0
113592,-57,69,246,0
113603,11,51,285,0
113614,30,38,300,0
113625,33,19,321,0
113636,33,28,318,0
113647,30,50,296,0
113658,34,60,284,0
113669,56,52,273,0
113680,84,38,262,0
113691,116,37,252,0
113702,126,35,224,0
113713,125,41,213,0
113724,113,49,209,0
113735,99,56,197,0
113746,79,71,203,0
113757,33,101,242,0
113768,14,98,245,0
113779,0,88,244,0
113790,-13,77,248,0
113801,-26,70,256,0
113812,-32,64,272,0
113823,-26,62,276,0
113834,-18,54,267,0
113845,-9,61,252,0
113856,0,64,236,0
113867,13,67,214,0
113878,26,62,194,0
113889,36,59,185,0
113900,44,55,181,0
113911,49,50,186,0
113922,49,48,184,0
113933,47,49,188,0
113944,41,48,191,0
113955,34,51,195,0
113966,24,52,190,0
113977,17,50,188,0
113988,14,51,187,0
113999,10,48,189,0
114010,10,42,186,0
114021,8,41,187,0
114032,9,35,194,0
114043,17,38,198,0
114054,24,36,197,0
114065,4,75,200,0
114076,-10,72,193,0
114087,-15,73,199,0
114098,-20,67,213,0
114109,-27,60,223,0
114120,-34,59,221,0
114131,-40,63,225,0
114142,-43,65,229,0
114153,-50,65,228,0
114164,-54,65,236,0
114175,-60,68,234,0
114186,-73,94,225,0
114197,-91,112,228,0
114208,-112,114,236,0
114219,-122,80,255,1
114230,-106,111,279,0
114241,-76,140,316,0
114252,-41,160,337,0
114263,14,138,360,0
114274,76,94,388,0
114285,88,109,371,0
114296,84,95,341,0
114307,103,42,325,0
114318,114,22,321,0
114329,113,28,301,0
114340,96,23,224,0
114351,65,-4,157,1
114362,38,-26,135,0
114373,-3,-20,137,0
114384,-8,-15,142,0
114395,-3,-5,156,0
114406,13,-2,182,0
114417,26,6,203,0
114428,40,20,221,0
114439,47,38,237,0
114450,52,52,250,0
114461,53,55,241,0
114472,46,48,225,0
114484,35,45,211,0
114495,19,46,207,0
114506,6,48,208,0
114517,-15,50,214,0
114528,-19,55,211,0
114539,-17,53,209,0
114550,-17,38,202,0
114561,-16,30,193,0
114572,-22,36,194,0
114583,-30,43,204,0
114594,-34,49,215,0
114605,-36,54,223,0
114616,-36,58,225,0
114627,-34,61,225,0
114638,-30,64,226,0
114649,-28,64,224,0
114660,-32,66,228,0
114671,-41,64,223,0
114682,-41,65,216,0
114693,-40,63,208,0
114704,-38,65,203,0
114715,-32,65,203,0
114726,-24,62,207,0
114737,-16,58,212,0
114748,-7,54,215,0
114759,0,51,216,0
114770,9,46,213,0
114781,16,41,212,0
114792,19,37,210,0
114803,27,36,211,0
114814,34,41,217,0
114825,23,38,215,0
114836,9,39,207,0
114847,-8,51,195,1
114858,-30,71,179,0
114869,-41,84,168,0
114880,-40,84,190,0
114891,-27,71,214,0
114902,-13,69,263,0
114913,-5,56,302,0
114924,-8,52,344,0
114935,-29,51,373,0
114946,-41,67,387,0
114957,-33,97,377,0
114968,-15,114,367,0
114979,40,75,315,0
114990,59,60,282,0
115001,73,46,251,0
115012,92,23,209,0
115023,102,12,177,0
115034,105,14,153,0
115045,91,17,129,0
115056,81,21,118,0
115067,68,17,112,0
115078,54,24,141,0
115089,38,40,191,0
115100,27,54,239,0
115111,27,70,273,0
115122,25,85,292,0
115133,23,102,298,0
115144,27,98,290,0
115155,34,84,272,0
115166,31,68,258,0
115177,28,66,250,0
115188,24,64,229,0
115199,19,60,210,0
115210,16,61,202,0
115221,15,60,195,0
115232,17,57,198,0
115243,20,61,208,0
115254,22,62,211,0
115265,24,60,210,0
115276,22,57,207,0
115287,13,55,197,0
115298,12,56,196,0
115309,9,54,190,0
115320,7,54,187,0
115331,3,58,186,0
115342,1,59,184,0
115353,-2,59,181,0
115364,-4,56,180,0
115375,-5,49,180,0
115386,2,43,186,0
115397,9,54,191,0
115408,4,74,200,0
115419,-3,94,203,0
115430,-16,103,210,0
115441,-6,51,239,0
115452,-9,68,254,0
115463,-26,79,253,0
115474,-37,80,240,0
115485,-41,78,241,0
115496,-49,66,239,0
115507,-51,63,225,0
115518,-54,77,207,0
115529,-67,92,198,0
115540,-81,96,199,1
115551,-84,75,223,0
115562,-92,102,230,0
115573,-86,122,266,0
115584,-65,139,300,0
115595,13,105,360,0
115606,43,127,368,0
115617,63,100,366,0
115628,95,57,367,0
115639,125,58,373,0
115650,128,51,321,0
115661,95,23,218,0
115672,65,-5,162,0
115683,46,-25,143,0
115694,30,-28,142,0
115705,11,-29,132,0
115716,5,-19,137,0
115727,12,-4,153,0
115738,20,10,177,0
115749,38,37,224,0
115760,50,39,234,0
115771,58,43,230,0
115782,55,42,224,0
115793,49,44,220,0
115804,35,46,218,0
115815,20,52,217,0
115826,1,55,222,0
115837,-10,52,225,0
115848,-16,53,224,0
115859,-26,46,217,0
115870,-34,44,211,0
115881,-33,37,204,0
115892,-31,41,199,0
115903,-25,40,199,0
115914,-21,44,205,0
115925,-18,50,213,0
115936,-15,56,216,0
115947,-13,63,226,0
115958,-12,66,227,0
115969,-16,68,226,0
115980,-19,69,226,0
115991,-23,67,222,0
116002,-29,66,219,0
116013,-33,67,216,0
116024,-38,70,216,0
116035,-38,73,213,0
116046,-36,73,207,0
116057,-30,80,205,0
116068,-11,83,207,0
116079,0,72,207,0
116090,13,66,197,0
116101,19,72,208,0
116112,25,68,211,0
116123,26,58,212,0
116134,24,50,220,0
116145,26,42,225,0
116156,33,37,226,0
116167,33,45,223,0
116178,16,62,210,0
116189,-6,87,189,1
116200,-29,95,187,0
116211,-18,86,246,0
116222,4,72,279,0
116233,20,62,310,0
116244,16,53,339,0
116255,0,61,369,0
116266,-21,79,379,0
116277,-38,95,376,0
116289,-27,101,356,0
116300,-4,99,329,0
116311,24,89,300,0
116323,53,71,263,0
116334,77,53,229,0
116345,110,33,161,0
116356,117,30,138,0
116367,117,21,129,0
116378,109,16,126,0
116389,94,15,133,0
116400,77,8,141,0
116411,58,8,164,0
116422,42,19,199,0
116433,33,36,238,0
116444,19,51,263,0
116455,6,60,280,0
116466,-2,64,289,0
116477,-7,65,286,0
116488,-2,69,270,0
116499,1,66,234,0
116510,-1,70,230,0
116521,0,74,224,0
116532,0,71,215,0
116543,-1,67,215,0
116554,2,55,217,0
116565,6,49,218,0
116576,9,50,223,0
116587,10,51,229,0
116598,8,53,227,0
116609,6,59,225,0
116620,5,63,220,0
116631,2,63,208,0
116642,1,60,201,0
116653,-9,53,188,0
116664,-15,48,185,0
116675,-22,49,180,0
116686,-25,51,178,0
116697,-24,54,186,0
116708,-18,54,193,0
116719,-4,52,202,0
116730,14,48,208,0
116741,34,51,215,0
116752,38,80,204,0
116763,21,106,198,0
116774,13,74,213,0
116785,8,43,234,0
116796,7,47,217,0
116807,-20,64,203,0
116818,-33,56,202,0
116829,-43,59,208,0
116840,-60,62,217,0
116851,-77,76,215,0
116862,-97,108,218,0
116873,-106,138,228,0
116884,-114,146,250,0
116895,-116,130,262,0
116906,-122,152,268,1
116917,-100,138,288,0
116928,-60,140,299,0
116939,-6,138,321,0
116950,62,102,355,0
116961,136,78,367,0
116972,151,12,357,0
116983,163,-4,339,0
116994,153,-4,298,0
117005,121,-9,214,0
117016,86,-16,165,0
117027,62,-28,139,0
117038,40,-34,133,0
117049,24,-33,130,0
117060,11,-37,150,0
117071,6,-22,168,0
117082,12,-4,197,0
117093,15,15,228,0
117104,11,30,244,0
117115,4,38,247,0
117126,4,38,234,0
117137,3,32,218,0
117148,3,30,208,0
117159,4,37,206,0
117170,4,39,207,0
117181,0,43,212,0
117192,-3,44,219,0
117203,-5,43,220,0
117214,-11,43,214,0
117225,-14,43,206,0
117236,-14,44,205,0
117247,-16,43,204,0
117258,-21,46,205,0
117269,-27,48,211,0
117280,-28,52,218,0
117291,-32,58,223,0
117302,-36,62,225,0
117313,-40,66,227,0
117324,-45,70,228,0
117335,-50,70,222,0
117346,-53,71,221,0
117357,-56,74,217,0
117368,-56,74,214,0
117379,-54,76,206,0
117390,-50,80,203,0
117401,-45,78,201,0
117412,-39,77,199,0
117423,-26,70,199,0
117434,-21,69,196,0
117445,-12,70,197,0
117456,-4,72,202,0
117467,0,68,212,0
117478,2,62,228,0
117489,3,56,239,0
117500,-1,45,238,0
117511,-6,42,227,0
117522,-14,52,213,0
117533,-29,68,197,1
117544,-38,88,185,0
117555,-45,88,191,0
117566,-42,80,216,0
117577,-12,66,284,0
117588,5,61,307,0
117599,17,54,331,0
117610,16,63,350,0
117621,6,93,351,0
117632,14,111,326,0
117643,21,96,313,0
117654,52,76,298,0
117665,83,69,273,0
117676,110,58,248,0
117687,124,39,214,0
117698,127,29,186,0
117709,119,11,159,0
117720,99,7,139,0
117731,47,37,139,0
117742,31,56,176,0
117753,15,71,217,0
117764,5,78,253,0
117775,2,79,276,0
117786,1,75,288,0
117797,-1,68,290,0
117808,1,68,291,0
117819,9,69,288,0
117830,17,66,271,0
117841,18,57,254,0
117852,14,62,241,0
117863,14,63,222,0
117874,16,62,205,0
117885,14,59,195,0
117896,19,48,186,0
117907,18,48,190,0
117918,18,50,194,0
117929,18,54,198,0
117940,14,56,196,0
117951,9,59,197,0
117962,5,59,195,0
117973,2,54,190,0
117984,-15,54,186,0
117995,-5,42,188,0
118006,2,63,190,0
118017,-1,69,178,0
118028,-6,67,172,0
118039,-3,68,177,0
118050,-14,77,191,0
118061,-26,80,204,0
118072,-32,71,221,0
118083,-27,67,228,0
118094,-23,87,234,0
118105,-24,95,240,0
118116,-22,76,243,0
118127,-17,62,242,0
118138,-10,43,233,0
118149,2,38,241,0
118160,14,19,263,0
118171,34,31,255,1
118182,14,71,233,0
118193,-29,91,231,0
118204,-79,95,235,0
118215,-90,99,259,0
118226,-84,98,290,0
118237,-76,137,290,0
118248,-68,134,298,0
118259,-32,120,324,0
118270,10,116,347,1
118281,30,97,341,0
118292,54,64,323,0
118303,84,34,310,0
118314,110,19,305,0
118325,103,18,273,0
118336,82,10,214,0
118347,57,3,173,0
118358,14,-13,144,0
118369,4,-4,144,0
118380,0,3,144,0
118391,5,11,159,0
118402,19,18,180,0
118413,32,30,199,0
118424,47,38,212,0
118435,57,45,219,0
118446,52,52,223,0
118457,36,53,218,0
118468,23,49,210,0
118479,12,47,203,0
118490,1,52,208,0
118501,-8,57,213,0
118512,-18,56,225,0
118523,-20,52,220,0
118534,-20,47,204,0
118545,-21,39,194,0
118556,-20,36,191,0
118567,-15,41,190,0
118578,-11,46,193,0
118589,-5,51,201,0
118600,-2,59,211,0
118611,2,62,218,0
118622,3,63,222,0
118633,5,65,225,0
118644,1,66,224,0
118655,-3,66,225,0
118666,-16,68,222,0
118677,-21,67,218,0
118688,-22,69,216,0
118699,-19,68,213,0
118710,-13,70,210,0
118721,-5,65,211,0
118732,2,64,207,0
118743,10,59,207,0
118754,15,60,204,0
118765,20,64,203,0
118776,12,74,209,0
118787,6,88,212,0
118798,0,91,220,0
118809,-3,87,230,0
118820,-35,73,234,0
118831,-57,78,215,0
118842,-62,80,195,0
118853,-54,67,195,0
118864,-26,64,223,0
118875,-10,75,268,1
118886,16,72,303,0
118897,39,64,328,0
118908,27,68,359,0
118919,10,79,367,0
118930,11,99,342,0
118941,7,103,320,0
118952,21,70,311,0
118963,60,39,304,0
118974,123,33,240,0
118985,139,28,216,0
118996,134,28,191,0
119007,117,30,173,0
119018,91,41,163,0
119029,67,39,148,0
119040,45,35,164,0
119051,26,53,212,0
119062,8,63,239,0
119073,-2,77,256,0
119084,-3,79,256,0
119095,-4,78,254,0
119106,0,76,256,0
119117,2,72,257,0
119128,13,62,243,0
119139,14,62,231,0
119150,13,61,218,0
119161,16,58,200,0
119172,16,55,190,0
119183,20,53,183,0
119194,20,46,178,0
119205,20,47,179,0
119216,25,51,184,0
119227,25,51,187,0
119238,28,51,190,0
119249,30,51,197,0
119260,21,50,198,0
119271,16,45,201,0
119282,2,48,205,0
119293,-1,45,204,0
119304,-10,47,201,0
119315,-16,49,197,0
119326,-20,54,196,0
119337,-27,51,197,0
119349,-29,43,197,0
119360,-30,37,195,0
119371,-34,39,195,0
119382,-37,42,196,0
119393,-39,46,197,0
119404,-42,52,201,0
119415,-45,60,211,0
119426,-35,57,226,0
119437,-19,47,236,0
119449,0,58,259,0
119460,10,54,275,0
119471,-3,64,260,0
119482,-21,86,252,0
119493,-38,94,253,0
119504,-43,86,272,0
119515,-49,85,297,1
119526,-59,74,317,0
119537,-57,83,320,0
119548,-44,109,324,0
119560,27,111,352,0
119571,92,77,341,0
119582,113,41,317,0
119593,69,86,298,0
119604,94,33,284,0
119615,115,40,257,0
119626,69,61,207,0
119637,52,32,171,0
119648,34,27,157,0
119659,14,26,147,0
119670,-4,24,141,0
119681,-8,19,143,0
119692,-3,11,150,0
119703,31,15,189,0
119714,46,24,202,0
119725,52,27,211,0
119736,54,35,225,0
119747,47,43,223,0
119758,40,51,226,0
119769,28,57,230,0
119780,18,64,235,0
119791,6,63,235,0
119802,-2,63,232,0
119813,-2,61,233,0
119824,-1,52,220,0
119835,-8,47,207,0
119846,-10,44,192,0
119857,-3,35,189,0
119868,3,34,190,0
119879,3,35,205,0
119890,3,44,213,0
119901,0,47,219,0
119912,-8,55,224,0
119923,-19,61,234,0
119934,-26,63,231,0
119945,-35,63,235,0
119956,-40,65,230,0
119967,-47,62,225,0
119978,-49,53,219,0
119989,-52,51,217,0
120000,-54,47,216,0
120011,-51,46,214,0
120022,-44,44,210,0
120033,-41,50,205,0
120044,-40,56,200,0
120055,-35,58,196,0
120066,-30,57,193,0
120077,-28,57,191,0
120088,-21,56,189,0
120099,-14,54,192,0
120110,-4,57,199,0
120121,1,56,208,0
120132,5,53,217,0
120143,-5,46,228,0
120154,-19,48,234,1
120165,-38,50,240,0
120176,-32,41,256,0
120187,-25,41,277,0
120198,-15,47,291,0
120209,3,58,289,0
120220,13,53,294,0
120231,19,50,313,0
120242,27,59,324,0
120253,26,81,331,0
120264,19,89,347,0
120276,28,78,359,0
120287,44,83,344,0
120298,59,89,300,0
120309,79,54,206,0
120320,83,48,164,0
120331,77,42,137,0
120342,68,30,126,0
120353,60,29,135,0
120364,52,28,163,0
120375,47,34,187,0
120386,39,43,205,0
120397,24,56,226,0
120408,12,59,239,0
120419,3,66,246,0
120430,-10,75,257,0
120441,-19,85,266,0
120452,-24,72,259,0
120463,-21,59,239,0
120474,-11,56,232,0
120485,0,55,222,0
120496,12,51,211,0
120507,26,43,195,0
120518,32,40,183,0
120529,34,35,177,0
120540,32,29,177,0
120551,26,28,180,0
120562,18,34,191,0
120573,8,42,201,0
120584,1,43,207,0
120595,-4,43,207,0
120606,-9,40,209,0
120617,-10,37,209,0
120628,-10,36,206,0
120639,-11,34,202,0
120650,-16,36,197,0
120661,-21,32,197,0
120672,-26,30,195,0
120683,-29,28,195,0
120694,-33,30,194,0
120705,-39,34,195,0
120716,-41,35,202,0
120727,-41,35,205,0
120738,-43,37,211,0
120749,-36,39,220,0
120760,-24,40,234,0
120771,-12,41,246,0
120782,8,32,259,0
120793,7,38,268,0
120804,-5,45,279,0
120815,-24,45,284,0
120826,-33,29,303,1
120837,-28,17,319,0
120848,-5,22,322,0
120859,26,42,326,0
120870,55,58,335,0
120881,88,48,365,0
120892,115,49,367,0
120903,109,87,354,0
120914,86,80,326,0
120925,91,57,291,0
120936,72,67,227,0
120947,39,47,175,0
120958,24,40,142,0
120969,13,50,130,0
120980,11,38,132,0
120991,22,34,145,0
121002,29,30,153,0
121013,38,22,155,0
121024,51,25,156,0
121035,73,31,171,0
121046,98,35,185,0
121057,111,40,198,0
121068,114,41,207,0
121079,107,50,217,0
121090,72,73,245,0
121101,56,82,248,0
121112,33,80,245,0
121123,8,80,236,0
121134,-11,71,221,0
121145,-27,69,214,0
121156,-40,63,205,0
121167,-47,58,199,0
121178,-49,54,196,0
121189,-53,57,199,0
121200,-51,56,198,0
121211,-46,58,208,0
121222,-37,58,210,0
121233,-31,54,209,0
121244,-21,62,216,0
121255,-17,61,213,0
121266,-17,58,214,0
121277,-16,59,219,0
121288,-16,59,223,0
121299,-17,61,228,0
121310,-19,60,230,0
121321,-24,61,227,0
121332,-29,63,224,0
121343,-34,64,223,0
121354,-34,63,224,0
121365,-34,62,222,0
121376,-36,61,220,0
121387,-33,59,213,0
121398,-35,57,200,0
121409,-33,57,195,0
121420,-29,63,195,0
121431,-30,65,198,0
121442,-29,65,207,0
121453,-24,66,216,0
121464,-24,61,224,0
121475,-21,50,227,0
121486,-24,45,227,0
121497,-32,53,226,0
121508,-49,65,227,0
121519,-69,77,237,0
121530,-75,85,254,1
121541,-61,84,271,0
121552,4,60,292,0
121563,37,44,288,0
121575,37,18,280,0
121586,7,3,292,0
121597,-9,19,279,0
121608,3,48,257,0
121619,34,52,250,0
121630,82,31,266,0
121641,120,14,261,0
121652,131,21,232,0
121663,131,28,208,0
121674,118,38,197,0
121685,97,58,211,0
121696,49,105,243,0
121707,32,107,263,0
121718,21,101,269,0
121729,11,86,257,0
121740,-1,72,244,0
121751,-17,67,242,0
121762,-29,63,250,0
121773,-34,62,255,0
121784,-33,63,258,0
121795,-25,65,254,0
121806,-13,63,236,0
121817,-4,59,214,0
121828,2,56,196,0
121839,7,49,181,0
121850,24,41,166,0
121861,27,44,168,0
121872,29,51,176,0
121883,27,53,186,0
121894,27,51,190,0
121905,23,48,191,0
121916,14,45,191,0
121927,4,44,191,0
121938,-8,46,192,0
121949,-14,42,201,0
121960,-16,42,210,0
121971,-20,45,209,0
121982,-20,45,205,0
121993,-15,55,192,0
122004,-41,109,178,0
122015,-41,76,200,0
122026,-39,72,195,0
122037,-46,79,195,0
122048,-50,68,210,0
122059,-40,64,213,0
122070,-38,75,207,0
122081,-42,83,215,0
122092,-37,70,224,0
122103,-28,66,244,0
122114,-27,79,251,0
122125,-44,121,243,0
122136,-71,127,250,0
122147,-80,130,264,0
122158,-51,135,332,1
122169,-39,162,338,0
122180,14,134,378,0
122191,62,125,386,0
122202,79,109,383,0
122213,81,48,361,0
122224,89,24,332,0
122235,96,13,298,0
122246,80,-8,215,0
122257,63,-27,166,0
122268,31,-27,151,0
122279,2,-13,152,0
122290,-25,-2,146,0
122301,-34,24,160,0
122312,-14,25,181,0
122323,1,32,193,0
122334,20,39,198,0
122345,42,44,199,0
122356,56,50,211,0
122367,61,55,210,0
122378,64,50,202,0
122389,62,48,196,0
122400,50,45,197,0
122411,33,54,202,0
122422,13,58,217,0
122433,0,60,222,0
122444,-14,53,220,0
122455,-22,41,207,0
122466,-36,36,192,0
122477,-39,41,197,0
122488,-37,50,204,0
122499,-31,62,212,0
122510,-18,63,215,0
122521,-8,69,217,0
122532,-2,73,221,0
122543,-1,76,220,0
122554,-6,75,219,0
122565,-13,76,216,0
122576,-21,73,211,0
122587,-26,78,208,0
122598,-27,81,207,0
122609,-26,82,209,0
122620,-10,80,208,0
122631,-2,69,210,0
122642,5,65,206,0
122653,18,65,202,0
122664,20,64,204,0
122675,24,65,205,0
122686,25,69,220,0
122697,23,67,244,0
122708,21,65,263,0
122719,14,60,273,0
122730,3,59,257,0
122741,-10,75,227,0
122752,-34,99,203,1
122763,-52,106,198,0
122774,-41,84,263,0
122785,-31,74,306,0
122796,-29,75,348,0
122807,-42,80,380,0
122818,-50,102,394,0
122829,-43,114,385,0
122840,-27,105,357,0
122851,9,101,320,0
122862,45,97,276,0
122873,72,74,235,0
122884,102,56,201,0
122895,129,51,171,0
122906,141,58,144,0
122917,143,53,131,0
122928,129,20,145,0
122939,113,11,149,0
122950,93,16,167,0
122961,75,25,196,0
122972,54,33,217,0
122983,38,37,240,0
122994,26,34,243,0
123005,15,36,242,0
123016,1,42,245,0
123027,1,53,241,0
123038,2,60,236,0
123049,3,61,228,0
123060,5,62,216,0
123071,4,66,213,0
123082,2,68,209,0
123093,4,62,212,0
123104,5,51,212,0
123115,8,51,222,0
123126,3,48,223,0
123137,2,52,220,0
123148,2,59,220,0
123159,1,61,216,0
123170,2,59,210,0
123181,6,54,202,0
123192,9,48,195,0
123203,12,43,190,0
123214,13,40,185,0
123225,15,39,180,0
123236,19,41,179,0
123247,22,44,179,0
123259,21,47,184,0
123270,17,55,191,0
123281,8,61,195,0
123292,3,50,213,0
123303,2,33,225,0
123314,9,31,220,0
123325,10,39,201,0
123336,-7,54,201,0
123347,-36,77,217,0
123358,-49,98,237,0
123369,-65,101,250,0
123380,-94,124,245,0
123391,-107,128,258,1
123402,-108,134,269,0
123413,-109,136,303,0
123424,-78,131,349,0
123436,-38,161,357,0
123447,-6,131,375,0
123458,59,72,380,0
123469,76,89,376,0
123480,86,45,364,0
123491,105,17,337,0
123502,121,4,318,0
123513,124,-5,264,0
123524,84,-22,137,0
123535,77,-20,125,0
123546,57,-5,125,0
123557,40,0,133,0
123568,35,-6,150,0
123579,35,-9,168,0
123590,40,-12,190,0
123601,46,-5,205,0
123612,51,1,216,0
123623,48,17,229,0
123634,44,28,230,0
123645,36,34,222,0
123656,30,40,213,0
123667,27,38,198,0
123678,17,51,204,0
123689,7,53,213,0
123700,0,54,214,0
123711,-1,46,207,0
123722,-3,42,201,0
123733,-3,40,195,0
123744,-7,39,202,0
123755,-7,35,209,0
123766,-10,38,216,0
123777,-13,41,220,0
123788,-19,45,222,0
123799,-25,48,225,0
123810,-30,52,229,0
123821,-33,59,230,0
123832,-41,62,226,0
123843,-42,61,225,0
123854,-40,60,219,0
123865,-39,62,221,0
123876,-35,60,223,0
123887,-27,54,215,0
123898,-23,54,217,0
123909,-26,60,218,0
123920,-8,47,203,0
123931,2,32,194,0
123942,4,36,192,0
123953,4,43,196,0
123964,5,42,203,0
123975,9,35,204,0
123986,18,43,203,0
123997,4,43,206,0
124009,-17,48,209,1
124020,-40,52,208,0
124031,-64,56,209,0
124042,-73,61,220,0
124053,-66,57,244,0
124064,-55,56,278,0
124075,-29,48,296,0
124086,2,33,307,0
124097,15,16,310,0
124108,17,26,327,0
124119,20,31,325,0
124130,27,62,286,0
124141,37,23,292,0
124152,63,-5,282,0
124163,88,3,252,0
124174,106,16,216,0
124185,110,30,196,0
124196,111,42,184,0
124207,104,53,180,0
124218,101,53,183,0
124229,89,51,186,0
124240,76,60,219,0
124251,57,73,256,0
124262,33,83,276,0
124273,6,83,272,0
124284,-36,82,275,0
124295,-40,83,275,0
124306,-35,75,264,0
124317,-30,66,256,0
124328,-25,64,243,0
124339,-17,63,227,0
124350,-10,57,211,0
124361,-2,51,196,0
124372,4,42,188,0
124383,13,36,184,0
124394,20,35,180,0
124405,27,36,178,0
124416,31,40,180,0
124427,33,49,182,0
124438,21,55,189,0
124449,18,54,191,0
124460,15,50,192,0
124471,13,50,193,0
124482,10,46,191,0
124493,5,43,186,0
124504,1,41,182,0
124515,-4,44,179,0
124526,-12,49,179,0
124537,-18,52,177,0
124548,-25,56,179,0
124559,-28,62,183,0
124570,-29,62,187,0
124581,-27,64,190,0
124592,-25,78,208,0
124603,-24,75,220,0
124614,-25,67,230,0
124625,-28,88,237,0
124636,-35,101,244,1
124647,-37,85,253,0
124658,-39,76,260,0
124669,-44,77,256,0
124680,-55,102,254,0
124691,-70,97,260,0
124702,-71,76,296,0
124713,-75,121,306,0
124724,-81,141,336,0
124735,-43,101,358,0
124746,91,131,435,0
124757,129,113,427,0
124768,146,82,367,0
124779,125,58,304,0
124790,86,15,254,0
124801,73,-27,224,0
124812,65,-45,207,0
124823,53,-39,174,0
124834,45,-36,142,0
124845,43,-24,131,0
124856,43,-13,135,0
124867,45,2,153,0
124878,56,176,84,0
124889,19,-108,226,0
124900,90,23,191,0
124911,87,-12,206,0
124922,97,10,205,0
124934,101,10,210,0
124945,108,20,217,0
124956,104,35,217,0
124967,93,46,212,0
124978,84,56,208,0
124989,73,54,205,0
125000,60,57,203,0
125011,48,57,205,0
125022,38,63,206,0
125033,23,76,205,0
125044,1,68,211,0
125055,-7,68,212,0
125066,-12,69,216,0
125077,-15,66,220,0
125088,-17,64,228,0
125099,-17,59,232,0
125110,-14,57,234,0
125121,-13,59,231,0
125132,-13,56,228,0
125143,-13,61,225,0
125154,-17,69,225,0
125165,-30,67,225,0
125176,-40,62,229,0
125187,-45,58,224,0
125198,-61,49,208,0
125209,-65,47,200,0
125220,-65,43,195,0
125231,-61,40,192,0
125242,-52,57,189,0
125253,-45,75,191,0
125264,-41,71,204,0
125275,-35,59,214,0
125286,-33,59,216,0
125297,-24,56,214,0
125308,-13,53,215,0
125319,-7,47,219,0
125330,-10,42,225,0
125341,-29,52,224,1
125352,-54,66,223,0
125363,-60,60,227,0
125374,-37,50,250,0
125385,-23,42,268,0
125396,5,30,281,0
125407,17,26,291,0
125418,3,22,324,0
125429,-5,21,350,0
125440,-3,45,338,0
125451,12,79,318,0
125462,33,73,314,0
125473,58,37,314,0
125484,85,23,283,0
125495,101,44,234,0
125506,109,56,193,0
125517,96,43,149,0
125528,81,39,136,0
125539,63,58,162,0
125550,41,76,200,0
125561,20,74,231,0
125572,-4,70,254,0
125583,-27,70,256,0
125594,-52,66,258,0
125605,-48,58,285,0
125616,-40,56,288,0
125627,-30,61,269,0
125638,-15,51,246,0
125649,3,39,225,0
125660,9,35,209,0
125671,8,43,197,0
125682,5,47,191,0
125693,4,54,186,0
125704,2,60,186,0
125715,0,54,187,0
125726,-3,54,182,0
125737,-8,58,182,0
125748,-19,54,185,0
125759,-31,49,187,0
125770,-40,47,185,0
125781,-45,48,183,0
125792,-47,53,185,0
125803,-44,54,184,0
125814,-39,53,183,0
125825,-35,59,187,0
125836,-34,62,187,0
125847,-35,60,192,0
125858,-36,59,196,0
125869,-39,59,201,0
125880,-43,57,204,0
125891,-47,57,209,0
125902,-56,61,217,0
125913,-61,61,225,0
125924,-60,72,234,1
125935,-69,103,240,0
125946,-70,81,253,0
125957,-51,48,267,0
125968,-25,43,278,0
125979,-1,65,286,0
125990,-20,66,278,0
126001,-45,65,266,0
126012,-64,58,275,0
126023,-73,56,293,0
126034,-73,49,314,0
126045,-62,41,319,0
126056,-45,49,318,0
126067,-22,63,333,0
126078,19,81,359,0
126089,66,87,373,0
126100,100,88,362,0
126111,109,75,326,0
126122,97,44,281,0
126133,86,30,196,0
126144,79,14,157,0
126155,61,13,137,0
126166,45,19,132,0
126177,33,-2,133,0
126188,26,-1,138,0
126199,22,-5,152,0
126210,30,7,174,0
126221,52,10,192,0
126232,74,16,208,0
126244,81,19,221,0
126255,74,27,235,0
126266,61,31,242,0
126277,34,38,225,0
126288,25,46,226,0
126299,18,51,224,0
126311,11,50,218,0
126323,11,46,212,0
126334,9,44,206,0
126345,7,50,204,0
126356,4,52,199,0
126367,1,55,195,0
126378,-1,53,199,0
126389,0,53,205,0
126400,-10,55,220,0
126411,-20,59,230,0
126422,-29,58,230,0
126433,-37,60,227,0
126444,-42,62,221,0
126455,-45,60,218,0
126467,-42,58,217,0
126478,-37,58,216,0
126489,-33,59,216,0
126500,-32,61,215,0
126511,-31,60,218,0
126522,-31,59,220,0
126533,-34,62,221,0
126544,-40,60,217,0
126555,-42,57,209,0
126566,-45,53,204,0
126577,-46,53,195,0
126588,-44,60,190,0
126599,-43,63,189,0
126610,-36,66,192,0
126622,-29,66,194,0
126633,-21,67,203,0
126644,-12,65,218,1
126655,-4,58,235,0
126666,-2,57,243,0
126677,-26,38,231,0
126688,-54,32,224,0
126699,-84,40,221,0
126710,-98,49,232,0
126721,-74,49,244,0
126732,-41,35,256,0
126743,5,16,266,0
126754,30,9,280,0
126765,37,13,299,0
126777,14,23,320,0
126788,22,60,329,0
126799,46,103,313,0
126810,69,100,304,0
126821,119,35,266,0
126832,117,42,229,0
126843,94,52,194,0
126854,67,39,177,0
126865,43,37,171,0
126876,24,60,191,0
126887,16,75,216,0
126898,7,88,247,0
126909,1,95,260,0
126920,0,94,259,0
126931,1,82,249,0
126942,0,84,250,0
126953,6,83,257,0
126964,16,79,262,0
126975,19,63,247,0
126986,13,58,232,0
126997,13,56,213,0
127008,12,52,200,0
127019,10,48,192,0
127030,14,44,188,0
127041,19,42,186,0
127052,27,45,184,0
127063,30,57,189,0
127074,34,59,192,0
127085,32,62,191,0
127096,28,56,189,0
127107,22,49,184,0
127118,15,43,186,0
127129,1,51,188,0
127140,1,57,184,0
127151,-6,62,177,0
127162,-4,59,176,0
127173,-11,67,179,0
127184,-18,66,178,0
127195,-15,49,178,0
127206,-10,34,183,0
127217,-14,43,182,0
127228,-16,51,186,0
127239,-22,63,193,0
127250,-27,65,209,0
127261,-26,61,221,0
127272,-26,64,224,0
127283,-32,67,234,0
127294,-36,64,245,0
127305,-42,50,266,0
127316,-36,39,288,0
127327,-28,41,283,0
127338,-36,93,256,0
127349,-47,100,263,0
127360,-53,115,281,0
127371,-49,101,312,0
127382,-19,102,353,1
127393,19,126,393,0
127404,51,136,422,0
127415,86,119,441,0
127426,117,98,400,0
127437,87,28,312,0
127448,74,16,248,0
127459,52,118,114,0
127470,16,-112,194,0
127481,44,61,119,0
127492,43,-39,133,0
127503,36,-2,137,0
127514,37,-14,139,0
127525,38,3,153,0
127536,47,8,168,0
127547,56,11,183,0
127558,70,20,194,0
127569,84,10,202,0
127580,86,7,205,0
127591,71,7,200,0
127602,37,21,208,0
127613,27,37,225,0
127624,23,44,233,0
127635,19,49,237,0
127646,22,49,234,0
127657,24,48,224,0
127668,22,45,216,0
127679,18,46,208,0
127690,18,39,204,0
127701,16,38,206,0
127712,13,37,206,0
127723,12,40,214,0
127734,15,40,217,0
127745,18,38,221,0
127756,18,47,229,0
127767,16,50,231,0
127778,11,56,233,0
127789,8,58,232,0
127800,1,61,229,0
127811,-6,64,226,0
127822,-13,62,222,0
127833,-22,58,222,0
127844,-26,58,218,0
127855,-33,61,214,0
127866,-38,65,210,0
127877,-39,66,206,0
127888,-38,68,207,0
127899,-37,72,211,0
127910,-30,75,215,0
127921,-23,71,217,0
127932,-18,65,218,0
127943,-17,66,213,0
127954,-11,64,205,0
127965,-8,61,201,0
127976,-8,59,198,0
127987,-14,65,194,0
127998,-19,76,191,0
128009,-25,78,191,1
128020,-33,70,199,0
128031,-42,61,211,0
128042,-47,35,221,0
128053,-48,-1,238,0
128064,-43,-16,261,0
128075,-49,-13,275,0
128086,-45,-10,291,0
128097,-28,4,304,0
128108,-6,32,317,0
128119,9,59,335,0
128130,19,66,350,0
128141,41,61,356,0
128152,72,48,340,0
128163,100,43,312,0
128174,116,48,264,0
128185,129,27,212,0
128196,130,0,173,0
128207,114,-18,154,0
128218,66,-34,136,0
128229,43,-12,136,0
128240,22,8,163,0
128251,8,29,197,0
128262,0,37,231,0
128273,-29,41,258,0
128284,-51,49,292,0
128295,-63,31,310,0
128306,-63,27,317,0
128317,-58,33,306,0
128328,-37,30,281,0
128339,-11,25,250,0
128350,6,20,222,0
128361,19,17,204,0
128372,40,24,178,0
128383,48,22,176,0
128394,48,19,174,0
128405,45,21,179,0
128416,41,29,185,0
128427,31,30,188,0
128438,14,31,186,0
128449,1,33,192,0
128460,-7,39,197,0
128471,-13,39,196,0
128482,-21,44,201,0
128493,-27,45,204,0
128504,-28,51,207,0
128515,-25,54,213,0
128526,-22,55,219,0
128537,-18,54,222,0
128548,-17,57,221,0
128559,-14,63,227,0
128570,-9,63,228,0
128581,-8,66,227,0
128592,-11,63,228,0
128604,-19,57,231,0
128615,-26,51,222,0
128626,-39,63,224,0
128637,-53,77,229,0
128648,-60,83,237,1
128659,-61,79,241,0
128670,-43,66,222,0
128681,-25,62,202,0
128692,-25,49,201,0
128703,-19,13,222,0
128714,48,-34,312,0
128725,114,-5,431,0
128736,148,36,447,0
128747,163,49,369,0
128758,146,73,318,0
128769,147,88,274,0
128780,119,73,235,0
128791,76,75,213,0
128802,48,71,196,0
128813,30,53,181,0
128824,22,12,153,0
128835,38,19,180,0
128846,59,27,198,0
128857,76,36,211,0
128868,92,45,224,0
128879,118,37,213,0
128890,123,136,219,0
128901,127,7,228,0
128912,153,56,213,0
128923,134,101,201,0
128934,112,102,218,0
128945,90,104,220,0
128956,54,115,215,0
128967,20,118,214,0
128978,-24,115,209,0
128989,-38,108,204,0
129000,-32,94,200,0
129011,-7,90,205,0
129022,18,98,207,0
129033,46,99,219,0
129044,66,96,228,0
129055,76,106,229,0
129066,78,112,232,0
129077,66,116,232,0
129088,49,123,232,0
129099,22,128,226,0
129110,0,130,223,0
129121,-17,130,221,0
129132,-51,124,204,0
129143,-64,126,201,0
129154,-73,121,195,0
129165,-84,118,186,0
129176,-91,114,186,0
129187,-98,111,188,0
129198,-98,110,193,0
129209,-102,112,200,0
129220,-100,106,204,0
129231,-95,93,207,0
129242,-88,82,205,0
129253,-85,73,204,0
129264,-89,64,199,0
129275,-90,59,198,0
129286,-87,51,201,0
129298,-87,54,206,0
129309,-90,61,221,1
129320,-100,63,227,0
129331,-110,63,235,0
129342,-112,60,245,0
129353,-112,61,257,0
129364,-104,53,267,0
129375,-74,58,263,0
129386,-51,54,268,0
129397,11,69,261,0
129408,57,94,269,0
129419,39,63,335,0
129430,55,64,314,0
129441,50,67,300,0
129452,66,47,294,0
129463,95,35,279,0
129474,136,58,251,0
129485,170,93,221,0
129496,181,118,211,0
129507,176,139,206,0
129518,154,130,196,0
129529,121,108,183,0
129540,96,85,180,0
129551,72,78,182,0
129562,37,86,166,0
129573,11,73,184,0
129584,-19,58,223,0
129595,-26,63,223,0
129606,-31,72,228,0
129617,-19,66,220,0
129628,-5,65,213,0
129639,1,66,199,0
129650,4,64,194,0
129661,4,62,188,0
129672,4,56,177,0
129683,5,49,169,0
129694,3,42,172,0
129705,5,40,179,0
129716,4,40,185,0
129727,2,47,190,0
129738,-2,49,201,0
129749,-6,50,200,0
129760,-10,51,202,0
129771,-16,53,201,0
129782,-21,53,201,0
129793,-28,55,203,0
129804,-32,56,211,0
129815,-34,56,213,0
129826,-40,62,215,0
129837,-44,68,216,0
129848,-55,74,217,0
129859,-62,72,215,0
129870,-69,68,217,0
129881,-74,65,220,0
129892,-74,64,223,0
129903,-70,80,223,0
129914,-66,82,226,0
129925,-57,66,234,0
129936,-47,62,243,0
129947,-41,64,255,0
129958,-40,61,263,0
129969,-42,63,269,0
129980,-46,65,268,1
129991,-50,62,276,0
130002,-58,61,285,0
130013,-62,64,281,0
130024,-66,65,276,0
130035,-62,84,286,0
130046,-46,94,312,0
130057,13,85,336,0
130068,45,74,320,0
130079,70,37,299,0
130091,77,13,269,0
130102,63,28,239,0
130113,56,18,208,0
130124,61,0,173,0
130135,40,3,159,0
130146,36,10,159,0
130157,24,16,157,0
130168,12,15,162,0
130179,10,11,178,0
130190,9,22,194,0
130201,21,33,201,0
130212,31,37,213,0
130223,37,43,223,0
130234,37,48,223,0
130245,30,46,219,0
130256,21,48,218,0
130267,16,54,219,0
130278,15,61,223,0
130289,16,61,219,0
130300,10,57,214,0
130311,2,56,213,0
130322,0,60,215,0
130333,-1,52,211,0
130344,-12,56,212,0
130355,-18,60,210,0
130366,-24,61,206,0
130377,-27,64,206,0
130388,-28,49,203,0
130399,-32,46,199,0
130410,-35,51,199,0
130421,-42,55,203,0
130432,-42,60,213,0
130443,-41,64,222,0
130454,-38,64,230,0
130465,-30,62,231,0
130476,-24,60,224,0
130487,-21,61,216,0
130498,-17,59,212,0
130509,-16,58,214,0
130520,-16,56,213,0
130531,-17,53,211,0
130542,-17,44,208,0
130553,-17,37,205,0
130564,-18,36,198,0
130575,-14,39,196,0
130586,-9,44,194,0
130597,-8,48,203,0
130608,-10,59,213,0
130619,-17,71,221,1
130630,-28,67,225,0
130641,-40,63,223,0
130652,-53,67,220,0
130663,-82,72,231,0
130674,-83,67,246,0
130685,-87,66,269,0
130696,-69,66,294,0
130707,-50,67,317,0
130718,-38,68,334,0
130729,-29,76,342,0
130740,-24,86,335,0
130751,-5,102,319,0
130762,13,100,306,0
130773,38,86,310,0
130784,62,78,296,0
130795,81,79,265,0
130806,90,84,231,0
130817,99,63,168,0
130828,90,52,147,0
130840,75,53,155,0
130851,56,55,172,0
130862,42,59,192,0
130873,41,59,208,0
130884,41,65,228,0
130895,43,78,242,0
130906,44,89,248,0
130917,53,89,252,0
130928,57,83,249,0
130939,52,75,244,0
130950,34,57,227,0
130961,22,54,221,0
130972,16,55,214,0
130983,14,53,206,0
130994,14,52,199,0
131005,19,54,191,0
131016,20,55,183,0
131027,17,57,180,0
131038,20,57,180,0
131049,22,56,184,0
131060,15,49,187,0
131071,5,46,190,0
131082,13,40,197,0
131093,4,51,197,0
131104,-5,41,185,0
131115,-12,44,181,0
131126,-18,53,180,0
131137,-18,57,176,0
131148,-19,54,175,0
131159,-22,53,173,0
131170,-27,53,170,0
131181,-32,54,172,0
131192,-37,59,177,0
131203,-41,59,183,0
131214,-44,56,191,0
131225,-50,55,203,0
131236,-50,62,220,0
131247,-46,74,239,1
131258,-45,86,263,0
131269,-33,86,288,0
131280,-39,98,311,0
131291,-41,96,321,0
131302,-50,102,311,0
131313,-57,97,306,0
131324,-55,84,302,0
131335,-58,97,288,0
131346,-53,116,289,0
131357,-43,128,287,0
131368,-31,108,274,0
131379,-6,85,282,0
131390,13,87,292,1
131401,20,104,284,0
131412,34,69,266,0
131423,53,38,285,0
131434,59,40,288,0
131445,59,44,243,0
131456,56,45,198,0
131467,45,28,174,0
131478,34,24,162,0
131489,24,29,151,0
131500,22,32,148,0
131511,21,38,150,0
131522,27,39,165,0
131533,29,42,179,0
131544,37,43,198,0
131555,46,52,206,0
131566,54,63,209,0
131577,40,75,204,0
131588,27,70,196,0
131599,13,68,194,0
131610,3,69,201,0
131621,-3,74,215,0
131632,-9,78,227,0
131643,-14,78,231,0
131654,-17,68,220,0
131665,-23,65,207,0
131676,-23,60,198,0
131687,-23,58,189,0
131698,-28,58,187,0
131709,-28,64,187,0
131720,-25,68,195,0
131731,-11,77,207,0
131742,-3,83,214,0
131753,-1,86,217,0
131764,-5,87,217,0
131775,-11,90,217,0
131786,-16,94,215,0
131797,-21,95,211,0
131808,-26,97,206,0
131819,-31,95,204,0
131830,-34,93,203,0
131841,-34,91,200,0
131852,-30,86,200,0
131863,-20,82,200,0
131874,-8,83,199,0
131885,13,82,211,0
131896,24,83,229,0
131907,34,77,253,0
131919,42,68,273,0
131930,35,65,265,0
131941,11,68,241,1
131952,-27,66,220,0
131963,-58,66,211,0
131974,-64,73,214,0
131985,-47,67,234,0
131996,-14,61,263,0
132007,9,55,302,0
132018,20,101,355,0
132029,26,126,337,0
132040,22,110,325,0
132051,42,79,314,0
132062,61,59,290,0
132073,75,41,262,0
132084,83,27,236,0
132095,81,25,209,0
132106,73,24,184,0
132117,62,31,161,0
132128,43,43,149,0
132139,21,54,157,0
132150,8,70,192,0
132161,3,87,233,0
132172,0,96,252,0
132183,-3,95,255,0
132194,1,85,258,0
132205,3,68,258,0
132216,4,62,258,0
132227,6,59,250,0
132238,3,58,235,0
132249,5,58,221,0
132260,10,57,204,0
132271,15,56,189,0
132282,16,56,180,0
132293,21,56,180,0
132304,27,59,180,0
132315,30,60,182,0
132326,30,62,188,0
132338,15,55,192,0
132349,8,57,195,0
132360,1,55,192,0
132371,-6,54,190,0
132382,-8,54,191,0
132393,-6,57,191,0
132404,-6,61,191,0
132415,-7,61,188,0
132426,-7,56,182,0
132437,-7,56,183,0
132448,-9,61,184,0
132459,-13,61,190,0
132470,-13,68,213,0
132481,-12,67,224,0
132492,-5,57,234,0
132503,4,53,239,0
132514,11,61,241,0
132525,17,78,249,0
132536,11,69,268,0
132547,9,60,259,0
132558,-7,80,243,0
132569,-51,99,240,0
132580,-99,104,242,0
132591,-131,104,244,0
132602,-137,90,262,0
132613,-123,90,281,0
132624,-82,134,307,1
132635,-65,147,303,0
132646,-29,137,326,0
132657,28,114,348,0
132668,83,79,341,0
132679,98,48,300,0
132690,88,29,277,0
132701,100,27,280,0
132712,103,31,256,0
132723,68,29,201,0
132734,32,13,155,0
132745,-2,9,140,1
132756,-35,12,146,0
132767,-46,26,154,0
132778,-30,15,182,0
132789,-7,8,195,0
132800,16,9,205,0
132811,35,20,218,0
132822,54,37,228,0
132833,59,48,221,0
132844,56,52,200,0
132855,44,57,189,0
132866,33,63,192,0
132877,19,69,204,0
132888,2,67,216,0
132899,-14,67,224,0
132910,-22,60,216,0
132921,-21,49,200,0
132932,-14,27,188,0
132943,-18,22,175,0
132954,-17,30,184,0
132965,-16,46,199,0
132976,-14,57,213,0
132987,-11,63,223,0
132998,-8,66,223,0
133009,-8,68,219,0
133020,-13,68,213,0
133031,-19,69,208,0
133042,-28,74,206,0
133053,-35,80,206,0
133064,-38,87,204,0
133075,-36,88,202,0
133086,-33,80,204,0
133097,-22,61,204,0
133108,-14,51,202,0
133119,-1,51,198,0
133130,9,67,197,0
133141,22,85,197,0
133152,30,92,205,0
133163,27,99,214,0
133174,12,105,218,0
133185,-15,108,219,0
133196,-53,98,220,0
133207,-68,81,218,0
133218,-86,65,229,1
133229,-105,66,263,0
133240,-92,65,288,0
133251,-37,71,377,0
133262,-5,97,411,0
133273,7,121,427,0
133284,12,113,430,0
133295,46,96,389,0
133306,77,97,326,0
133317,104,77,272,0
133328,125,44,229,0
133339,136,33,190,0
133350,137,35,160,0
133361,121,26,129,0
133372,100,19,113,0
133383,83,20,116,0
133394,59,50,155,0
133405,8,75,225,0
133416,-15,78,242,0
133427,-26,72,254,0
133438,-25,70,259,0
133449,-32,71,251,0
133460,-25,68,236,0
133471,-16,62,224,0
133482,-5,55,215,0
133493,7,50,205,0
133504,18,45,202,0
133515,28,43,198,0
133526,36,44,194,0
133537,40,42,189,0
133548,38,40,185,0
133559,23,45,184,0
133570,12,46,189,0
133581,2,45,193,0
133593,-5,44,195,0
133604,-7,43,196,0
133615,-10,43,194,0
133626,-12,45,189,0
133637,-14,42,186,0
133648,-18,42,183,0
133659,-25,42,180,0
133670,-31,45,179,0
133681,-37,45,179,0
133692,-42,48,183,0
133703,-54,46,189,0
133714,-58,49,197,0
133725,-59,53,207,0
133736,-63,79,218,0
133747,-73,94,234,0
133758,-77,86,249,0
133769,-71,67,256,0
133780,-53,56,258,0
133791,-34,71,262,0
133802,-29,77,275,0
133813,-31,75,277,0
133824,-46,80,273,0
133835,-63,85,271,0
133846,-87,67,295,1
133857,-73,56,317,0
133868,-46,86,327,0
133879,-7,121,348,0
133890,39,112,369,0
133901,87,116,373,0
133912,143,100,367,0
133923,176,61,331,0
133934,133,71,273,0
133945,104,58,231,0
133956,120,35,205,0
133967,93,23,183,0
133978,48,27,177,0
133989,22,13,174,0
134000,4,2,164,0
134011,-7,-2,143,0
134022,15,5,155,0
134033,41,18,178,0
134044,61,26,192,0
134056,71,42,207,0
134067,77,58,223,0
134078,76,71,230,0
134089,75,78,229,0
134100,64,79,221,0
134111,49,74,215,0
134122,31,70,214,0
134133,17,67,213,0
134144,5,57,200,0
134155,1,48,190,0
134166,-1,44,181,0
134177,-6,48,176,0
134188,-11,52,185,0
134199,-16,56,193,0
134210,-14,64,212,0
134221,-15,71,224,0
134232,-22,75,232,0
134243,-29,80,236,0
134254,-39,81,233,0
134265,-49,79,228,0
134276,-55,78,220,0
134287,-59,72,214,0
134298,-58,70,212,0
134309,-55,65,203,0
134320,-51,60,208,0
134331,-44,57,212,0
134342,-39,57,216,0
134353,-34,59,219,0
134364,-34,63,220,0
134375,-32,64,215,0
134386,-26,64,207,0
134397,-18,65,204,0
134408,-11,66,202,0
134419,-2,67,203,0
134430,4,65,206,0
134441,7,63,211,0
134452,12,58,212,0
134463,2,46,216,0
134474,-15,43,221,0
134485,-41,44,221,1
134496,-60,56,225,0
134507,-60,74,229,0
134518,-51,79,243,0
134529,-31,80,257,0
134540,-22,64,272,0
134551,-2,38,288,0
134562,5,10,300,0
134573,9,10,309,0
134584,20,33,289,0
134595,32,44,276,0
134606,30,23,292,0
134617,74,5,274,0
134628,98,44,247,0
134639,105,77,231,0
134650,103,97,217,0
134661,84,104,205,0
134672,74,111,212,0
134683,66,113,240,0
134694,36,125,283,0
134705,7,113,307,0
134716,-20,97,307,0
134727,-50,90,281,0
134738,-63,81,282,0
134749,-48,62,260,0
134761,-26,65,234,0
134772,-2,66,203,0
134783,13,60,183,0
134794,22,48,164,0
134805,27,38,142,0
134816,29,35,139,0
134827,30,38,136,0
134838,31,40,142,0
134849,31,40,149,0
134860,33,45,160,0
134871,33,49,172,0
134883,32,52,182,0
134894,16,48,186,0
134905,6,51,189,0
134916,-1,55,195,0
134927,-11,57,200,0
134938,-24,55,202,0
134949,-35,52,197,0
134960,-51,51,195,0
134971,-58,45,191,0
134982,-61,43,192,0
134993,-67,44,192,0
135004,-67,45,194,0
135015,-70,50,193,0
135027,-71,61,197,0
135038,-82,66,211,0
135049,-84,55,221,0
135060,-83,46,230,0
135071,-74,39,244,0
135082,-58,62,257,0
135093,-52,84,276,0
135104,-57,92,283,0
135115,-55,92,299,0
135126,-38,100,317,0
135137,-21,106,352,0
135148,7,113,400,0
135159,34,152,411,1
135170,67,147,446,0
135181,114,138,427,0
135192,128,23,293,0
135203,115,7,268,0
135214,94,31,242,0
135225,66,28,191,0
135236,52,-3,161,0
135247,39,7,153,0
135258,24,-1,159,0
135269,15,-4,162,0
135281,0,0,160,0
135292,-10,-2,151,0
135303,1,3,155,0
135314,22,10,171,0
135325,45,18,187,0
135336,65,28,200,0
135347,67,40,204,0
135358,65,56,212,0
135369,61,64,215,0
135380,54,65,213,0
135391,45,66,212,0
135402,30,65,211,0
135413,17,62,206,0
135424,4,58,201,0
135435,-6,53,199,0
135446,-18,57,196,0
135457,-18,52,190,0
135468,-12,49,191,0
135479,-10,43,200,0
135490,-13,55,220,0
135501,-12,62,224,0
135512,-12,62,221,0
135523,-16,65,215,0
135534,-22,67,214,0
135545,-32,66,218,0
135556,-36,68,220,0
135567,-41,68,220,0
135578,-46,64,218,0
135589,-53,65,214,0
135600,-55,62,211,0
135611,-47,52,209,0
135622,-37,49,205,0
135633,-30,49,204,0
135644,-8,50,196,0
135655,1,55,191,0
135666,9,60,191,0
135677,13,63,195,0
135688,13,66,206,0
135699,11,66,220,0
135710,3,64,226,0
135721,-28,57,223,0
135732,-65,54,205,0
135743,-103,61,183,0
135754,-126,66,187,0
135765,-106,65,217,0
135776,-71,68,258,0
135787,-25,60,299,0
135798,18,49,357,0
135809,19,51,376,0
135820,41,80,366,0
135831,59,110,331,0
135842,66,77,330,0
135853,97,25,329,0
135864,124,24,295,0
135875,140,49,253,0
135886,149,57,211,0
135897,140,61,191,0
135908,125,58,176,0
135919,101,59,172,0
135930,72,73,186,1
135941,52,92,217,0
135952,-19,85,254,0
135963,-49,86,254,0
135974,-58,65,257,0
135985,-62,60,258,0
135996,-57,63,250,0
136007,-42,65,234,0
136018,-25,62,218,0
136029,-9,63,207,0
136040,4,56,194,0
136051,16,53,180,0
136062,25,56,175,0
136073,33,52,168,0
136084,37,49,163,0
136095,33,48,167,0
136106,19,46,177,0
136117,13,45,180,0
136128,8,43,186,0
136139,0,39,185,0
136150,-6,42,187,0
136161,-11,42,190,0
136172,-15,43,190,0
136183,-18,41,193,0
136194,-24,44,195,0
136205,-27,45,198,0
136216,-33,45,198,0
136227,-41,43,200,0
136238,-45,42,203,0
136249,-49,44,210,0
136260,-53,53,218,0
136271,-64,63,228,0
136282,-71,68,225,0
136293,-77,71,222,0
136304,-77,71,220,0
136315,-68,66,227,0
136326,-55,58,247,0
136337,-32,56,271,0
136348,-15,58,299,0
136359,-10,68,295,0
136370,-20,94,275,0
136381,-47,106,269,0
136392,-71,86,276,0
136403,-78,71,301,0
136414,-67,57,328,0
136425,-34,82,319,0
136436,-9,83,328,1
136447,33,79,319,0
136458,67,87,308,0
136469,71,69,294,0
136480,70,57,263,0
136491,89,37,242,0
136502,108,23,231,0
136513,102,36,217,0
136524,93,34,193,0
136535,75,21,169,0
136546,61,8,174,0
136557,47,17,178,0
136568,26,9,181,0
136579,37,1,198,0
136590,51,1,202,0
136601,52,12,206,0
136612,50,21,208,0
136623,43,37,210,0
136634,35,50,211,0
136645,35,58,214,0
136656,34,65,214,0
136667,29,71,213,0
136678,22,72,213,0
136689,19,69,210,0
136700,12,66,208,0
136711,4,63,204,0
136722,0,54,199,0
136733,-7,55,196,0
136744,-5,56,202,0
136755,-3,50,210,0
136766,-5,52,212,0
136777,-13,60,217,0
136788,-25,65,220,0
136799,-37,75,227,0
136810,-43,74,229,0
136821,-46,74,229,0
136832,-50,69,224,0
136843,-49,69,220,0
136854,-46,64,216,0
136865,-44,61,214,0
136876,-41,57,212,0
136887,-42,63,214,0
136898,-47,64,211,0
136909,-45,59,207,0
136920,-39,51,196,0
136931,-34,55,192,0
136942,-31,59,194,0
136953,-30,61,193,0
136964,-26,59,195,0
136975,-20,57,196,0
136986,-12,60,201,0
136997,-4,62,206,0
137008,-1,62,210,0
137019,-14,61,213,0
137030,-37,60,215,0
137041,-88,67,230,0
137052,-85,73,235,0
137063,-65,77,244,0
137074,-40,80,258,0
137085,-31,80,281,1
137096,-22,62,289,0
137107,-22,47,291,0
137118,-37,28,302,0
137129,-41,12,316,0
137140,-35,23,328,0
137151,-6,54,322,0
137162,29,69,310,0
137173,67,62,303,0
137184,108,48,275,0
137195,149,74,201,0
137206,152,83,175,0
137217,140,81,161,0
137228,125,61,151,0
137239,108,52,164,0
137250,86,56,194,0
137261,64,64,233,0
137272,38,67,255,0
137283,9,67,259,0
137294,-14,79,258,0
137305,-30,81,256,0
137316,-46,84,258,0
137327,-44,85,262,0
137338,-34,77,254,0
137349,-17,63,225,0
137360,-11,62,216,0
137371,-5,55,200,0
137382,-1,51,188,0
137393,2,50,186,0
137404,4,47,181,0
137415,4,44,176,0
137426,5,49,179,0
137437,3,55,182,0
137448,2,58,188,0
137459,0,55,192,0
137470,-5,52,196,0
137481,-9,48,196,0
137492,-14,45,196,0
137503,-20,54,192,0
137514,-21,57,192,0
137525,-27,57,187,0
137536,-29,59,184,0
137547,-33,54,184,0
137558,-36,53,187,0
137569,-42,57,189,0
137580,-48,58,194,0
137591,-55,60,195,0
137602,-59,65,197,0
137613,-60,73,202,0
137624,-63,94,212,0
137635,-70,106,224,0
137646,-71,92,233,0
137657,-65,74,247,0
137668,-46,80,265,0
137679,-57,87,266,0
137690,-65,92,264,0
137701,-64,89,274,0
137712,-58,70,301,0
137723,-53,80,326,1
137734,-47,87,352,0
137745,-29,102,357,0
137756,-12,108,362,0
137767,4,104,368,0
137778,43,78,347,0
137789,65,66,304,0
137800,46,51,270,0
137811,37,13,243,0
137822,82,31,210,0
137833,81,21,183,0
137845,78,22,168,0
137856,64,32,163,0
137867,52,20,170,0
137878,37,13,179,0
137889,24,7,190,0
137900,23,6,197,0
137911,36,8,203,0
137922,46,10,205,0
137933,43,9,205,0
137944,35,12,205,0
137955,31,23,202,0
137966,29,44,212,0
137977,34,56,215,0
137988,39,60,219,0
137999,39,59,216,0
138010,34,59,214,0
138021,31,58,211,0
138032,25,57,209,0
138043,16,56,206,0
138054,10,54,202,0
138065,2,53,197,0
138076,-3,55,202,0
138087,-11,53,205,0
138098,-22,53,209,0
138109,-36,57,211,0
138120,-55,65,218,0
138131,-58,64,222,0
138142,-59,64,225,0
138153,-55,63,220,0
138164,-56,65,217,0
138175,-52,66,214,0
138187,-49,66,215,0
138198,-47,66,213,0
138209,-42,67,215,0
138220,-43,70,215,0
138231,-45,69,212,0
138242,-45,69,208,0
138253,-40,64,201,0
138264,-26,48,192,0
138275,-21,48,193,0
138286,-16,51,193,0
138297,-10,49,197,0
138308,-1,51,202,0
138319,11,59,213,0
138330,18,62,220,0
138341,7,65,224,0
138352,-12,67,221,0
138363,-38,72,208,0
138374,-58,81,201,0
138385,-69,74,216,0
138396,-61,67,248,1
138407,-46,64,281,0
138418,-3,42,303,0
138429,-1,33,320,0
138440,0,39,335,0
138451,15,55,333,0
138462,32,79,329,0
138473,41,76,336,0
138484,65,58,338,0
138495,98,47,309,0
138506,117,42,260,0
138517,123,39,216,0
138528,120,33,187,0
138539,110,38,159,0
138550,94,43,139,0
138561,81,44,141,0
138572,50,37,179,0
138583,30,57,222,0
138594,5,77,252,0
138605,-12,85,266,0
138616,-21,91,274,0
138627,-20,91,273,0
138638,-9,94,270,0
138649,-1,91,257,0
138660,2,82,249,0
138671,3,74,233,0
138682,2,69,218,0
138693,0,62,200,0
138704,-1,56,191,0
138715,-1,52,188,0
138726,2,52,191,0
138737,3,59,192,0
138748,8,56,194,0
138759,8,55,195,0
138770,8,54,197,0
138781,6,54,203,0
138792,1,63,202,0
138803,-8,64,202,0
138814,-16,63,204,0
138825,-22,62,201,0
138836,-25,61,200,0
138847,-29,60,196,0
138858,-34,57,191,0
138869,-41,53,186,0
138880,-39,60,187,0
138891,-41,67,188,0
138902,-43,70,191,0
138913,-41,67,194,0
138924,-38,70,194,0
138935,-38,74,200,0
138946,-40,72,210,0
138957,-32,56,220,0
138968,-23,57,222,0
138979,-9,66,233,0
138990,-3,68,257,0
139001,-14,72,264,0
139012,-28,98,253,0
139023,-55,120,248,0
139034,-105,109,261,0
139045,-101,97,282,1
139056,-83,113,313,0
139067,-74,137,318,0
139078,-74,149,304,0
139089,-46,127,300,0
139100,14,101,317,0
139111,53,87,322,0
139122,50,78,290,0
139133,52,56,279,0
139144,101,9,303,0
139155,127,42,325,0
139166,120,59,288,0
139177,100,30,213,0
139188,55,7,159,0
139199,32,8,146,0
139210,13,-2,135,0
139221,13,-1,149,0
139232,14,1,164,0
139243,21,9,181,0
139254,32,15,195,0
139265,36,23,206,0
139276,34,32,210,0
139287,34,39,216,0
139298,33,44,220,0
139309,28,55,219,0
139320,24,57,218,0
139331,16,62,222,0
139342,12,63,222,0
139353,3,55,221,0
139364,4,47,215,0
139375,1,41,210,0
139386,-4,38,209,0
139397,-9,36,206,0
139408,-11,38,208,0
139419,-19,39,206,0
139430,-20,42,207,0
139441,-21,46,210,0
139452,-22,55,217,0
139463,-22,61,224,0
139474,-26,67,229,0
139485,-29,69,231,0
139496,-38,68,227,0
139507,-53,64,218,0
139518,-58,63,211,0
139529,-58,64,206,0
139540,-55,65,202,0
139551,-47,64,199,0
139562,-40,64,199,0
139573,-29,63,203,0
139584,-19,62,203,0
139595,-4,59,203,0
139606,2,55,204,0
139617,7,52,208,0
139628,10,48,212,0
139639,14,51,219,0
139650,16,52,226,1
139661,12,49,225,0
139672,2,50,219,0
139683,-19,66,203,0
139694,-43,87,193,0
139705,-64,84,199,0
139716,-62,75,211,0
139727,-49,73,243,0
139738,-31,60,283,0
139749,-3,44,310,0
139760,5,47,327,0
139771,-6,73,356,0
139782,-25,102,365,0
139793,-18,110,357,0
139804,17,107,325,0
139815,92,85,271,0
139826,127,69,235,0
139837,144,53,196,0
139848,146,32,164,0
139859,133,9,132,0
139870,102,9,125,0
139881,67,23,143,0
139892,40,38,172,0
139903,21,49,196,0
139914,4,54,215,0
139925,-3,61,236,0
139936,-5,66,246,0
139947,-2,71,256,0
139958,3,76,267,0
139969,19,72,274,0
139980,20,64,266,0
139991,17,61,259,0
140002,15,66,249,0
140013,14,71,232,0
140024,9,73,217,0
140035,5,74,210,0
140046,2,69,204,0
140057,0,68,198,0
140068,0,68,199,0
140079,-4,70,203,0
140090,-9,78,212,0
140101,-15,83,214,0
140112,-24,88,215,0
140123,-23,85,204,0
140134,-19,83,203,0
140145,-12,82,201,0
140156,1,82,199,0
140167,9,81,194,0
140178,21,78,194,0
140189,32,71,190,0
140200,40,66,187,0
140211,50,60,188,0
140222,56,60,194,0
140233,53,62,202,0
140244,50,56,204,0
140255,57,54,218,0
140266,32,82,206,0
140277,-7,44,210,0
140288,-33,81,194,0
140299,-51,62,190,0
140310,-47,50,187,0
140321,-44,46,197,0
140332,-53,80,191,0
140343,-73,118,206,1
140354,-96,140,226,0
140365,-112,156,248,0
140376,-123,157,272,0
140387,-123,168,309,0
140398,-103,164,339,0
140409,-81,164,336,0
140420,-39,137,337,0
140431,16,116,347,0
140442,104,112,351,0
140453,133,46,323,0
140464,143,24,321,0
140475,130,18,297,0
140486,99,2,231,0
140497,62,-10,170,0
140508,40,-44,132,0
140519,20,-55,113,0
140530,11,-49,114,0
140541,7,-32,131,0
140552,12,-4,160,0
140563,22,9,189,0
140574,34,25,221,0
140585,42,31,231,0
140596,37,39,235,0
140607,32,47,230,0
140618,26,50,223,0
140629,20,52,219,0
140640,14,51,216,0
140651,10,51,217,0
140662,5,45,214,0
140673,1,46,213,0
140684,0,43,213,0
140695,-2,44,212,0
140706,-1,40,209,0
140717,-7,40,206,0
140728,-14,41,209,0
140739,-22,44,206,0
140750,-23,53,211,0
140761,-20,58,212,0
140772,-17,63,216,0
140783,-16,69,220,0
140794,-19,75,223,0
140805,-22,77,229,0
140816,-26,77,231,0
140827,-27,73,226,0
140838,-28,72,221,0
140849,-25,68,219,0
140860,-24,71,216,0
140871,-20,71,214,0
140882,-15,70,213,0
140893,-10,69,213,0
140904,-2,61,215,0
140915,1,59,214,0
140926,6,57,212,0
140937,11,56,211,0
140948,11,59,216,0
140959,15,64,221,0
140970,20,62,224,0
140981,24,56,227,0
140992,24,48,225,0
141003,24,45,215,0
141014,18,44,203,0
141025,6,44,196,1
141036,-10,47,198,0
141047,-27,51,200,0
141058,-42,63,236,0
141069,-21,70,252,0
141080,25,82,261,0
141091,41,75,291,0
141102,39,61,331,0
141113,36,62,338,0
141124,26,72,309,0
141135,4,60,313,0
141146,20,61,302,0
141157,40,55,284,0
141168,65,40,262,0
141179,87,20,238,0
141190,98,6,216,0
141201,95,11,199,0
141212,66,42,159,0
141223,53,48,142,0
141234,40,59,162,0
141245,28,75,201,0
141256,8,91,246,0
141267,-5,87,282,0
141278,-10,76,293,0
141289,-11,85,291,0
141300,-19,101,286,0
141311,-17,108,283,0
141323,-3,104,276,0
141334,14,98,271,0
141345,23,94,258,0
141356,36,76,223,0
141367,40,65,212,0
141378,41,61,196,0
141389,41,62,194,0
141400,41,61,193,0
141411,38,64,190,0
141422,33,60,187,0
141433,27,61,187,0
141444,20,62,192,0
141455,12,62,194,0
141466,9,63,198,0
141477,5,65,196,0
141488,1,64,195,0
141499,0,65,191,0
141510,-28,45,182,0
141522,-12,35,201,0
141533,-9,47,205,0
141544,5,45,195,0
141555,25,68,184,0
141566,-16,163,158,0
141577,-37,88,199,0
141588,-31,72,189,0
141599,-43,85,178,0
141610,-57,69,183,0
141621,-64,59,196,0
141632,-68,56,207,0
141643,-67,71,209,0
141654,-46,91,230,0
141665,-25,61,242,0
141676,-24,109,239,1
141687,-47,120,232,0
141698,-59,151,237,0
141709,-77,154,249,0
141720,-73,135,273,0
141731,-51,151,297,0
141742,-9,131,324,0
141753,36,133,348,0
141765,84,131,363,0
141776,125,114,381,0
141787,153,70,348,0
141798,128,24,268,0
141809,99,-17,194,0
141820,72,-31,160,0
141831,53,-25,148,0
141842,35,-20,146,0
141853,17,-3,146,0
141864,11,14,152,0
141875,19,33,161,0
141886,25,49,171,0
141897,38,52,188,0
141908,52,62,196,0
141919,58,68,206,0
141931,66,74,213,0
141942,64,73,210,0
141953,53,72,208,0
141964,43,69,208,0
141975,30,72,216,0
141986,20,76,227,0
141997,10,71,229,0
142008,2,71,228,0
142019,0,72,224,0
142030,0,73,217,0
142041,0,72,208,0
142052,2,77,203,0
142063,6,79,204,0
142074,8,85,208,0
142085,10,91,215,0
142096,9,95,219,0
142107,8,91,216,0
142118,4,91,213,0
142129,3,88,211,0
142140,2,86,214,0
142151,-1,90,214,0
142162,-6,95,215,0
142173,-3,100,215,0
142184,0,99,217,0
142195,6,104,220,0
142206,10,107,221,0
142217,9,111,220,0
142228,11,108,213,0
142239,16,105,201,0
142250,28,103,204,0
142261,31,104,209,0
142272,28,106,215,0
142283,21,98,216,0
142294,14,93,215,0
142305,11,82,209,0
142316,8,72,206,0
142327,4,69,203,1
142339,1,73,203,0
142350,-10,87,207,0
142361,-26,92,221,0
142372,-30,103,236,0
142383,-3,143,252,0
142394,11,149,276,0
142405,21,136,317,0
142416,28,120,325,0
142427,24,96,330,0
142438,24,78,334,0
142449,41,69,316,0
142460,57,59,284,0
142471,70,47,258,0
142482,90,48,235,0
142493,99,63,206,0
142504,101,68,180,0
142515,106,61,168,0
142526,108,54,172,0
142537,88,55,173,0
142548,79,40,173,0
142559,70,31,183,0
142570,54,29,195,0
142581,41,40,223,0
142592,33,56,248,0
142603,37,65,264,0
142614,42,72,267,0
142625,48,80,262,0
142636,52,83,249,0
142647,53,83,236,0
142658,46,77,226,0
142669,38,68,207,0
142680,31,53,193,0
142691,17,43,181,0
142702,1,51,186,0
142713,-1,62,198,0
142724,-6,65,208,0
142735,-6,75,220,0
142746,-6,81,227,0
142757,-6,87,234,0
142768,-6,91,241,0
142779,-4,89,241,0
142790,0,82,233,0
142801,3,75,221,0
142812,4,70,209,0
142823,7,64,198,0
142834,13,60,194,0
142845,19,54,185,0
142856,27,46,177,0
142867,27,46,176,0
142878,24,47,179,0
142889,14,52,183,0
142900,8,59,191,0
142911,2,70,196,0
142922,-7,75,203,0
142933,-2,42,225,0
142944,8,46,211,0
142955,0,88,197,0
142966,-20,93,207,0
142977,-36,80,229,0
142988,-30,76,238,0
142999,-22,91,240,0
143010,-63,131,259,0
143021,-85,124,270,1
143032,-94,115,290,0
143043,-102,121,273,0
143054,-97,110,272,0
143065,-75,85,285,0
143076,-34,61,308,0
143087,28,62,345,0
143098,82,82,373,0
143109,101,95,361,0
143120,90,111,274,0
143131,59,-152,430,0
143142,135,-12,283,0
143153,115,35,248,0
143164,64,-13,155,0
143175,51,6,153,0
143186,46,-6,172,0
143197,38,2,178,0
143208,38,-10,184,0
143219,51,-19,197,0
143230,55,-19,201,0
143241,57,-11,202,0
143252,58,1,212,0
143263,61,17,217,0
143274,52,34,218,0
143285,38,43,209,0
143296,31,43,209,0
143307,26,48,204,0
143318,5,48,207,0
143329,-2,54,213,0
143340,-5,53,211,0
143351,-6,53,207,0
143362,-1,48,207,0
143373,4,38,206,0
143384,8,37,211,0
143395,8,40,215,0
143406,6,45,216,0
143417,7,47,217,0
143428,0,50,217,0
143439,-5,51,222,0
143450,-10,51,225,0
143461,-13,54,228,0
143472,-18,52,227,0
143483,-20,53,226,0
143494,-26,54,229,0
143505,-24,49,230,0
143516,-27,48,229,0
143527,-28,51,225,0
143538,-34,49,222,0
143549,-35,47,214,0
143560,-32,42,207,0
143571,-24,41,200,0
143582,-21,43,197,0
143593,-18,49,200,0
143604,-12,51,201,0
143615,-9,52,204,0
143626,-4,53,205,0
143637,8,54,213,0
143648,5,57,223,0
143659,0,47,230,0
143670,-14,48,232,0
143681,-30,53,235,0
143692,-36,62,235,1
143703,-40,56,244,0
143714,-30,46,254,0
143725,-26,45,255,0
143736,-19,28,255,0
143747,-1,20,260,0
143758,6,18,262,0
143769,3,13,269,0
143780,9,18,277,0
143791,20,68,262,0
143802,19,51,275,0
143813,41,30,270,0
143824,77,34,251,0
143835,110,59,226,0
143846,128,79,205,0
143857,131,81,190,0
143868,123,73,191,0
143879,107,66,194,0
143890,92,55,203,0
143901,74,68,237,0
143912,54,90,282,0
143923,31,90,303,0
143934,3,84,295,0
143945,-43,94,295,0
143956,-48,86,298,0
143967,-45,86,290,0
143978,-39,79,266,0
143989,-31,83,255,0
144000,-26,83,237,0
144011,-25,77,212,0
144022,-23,64,194,0
144033,-8,55,179,0
144044,6,46,162,0
144055,18,44,156,0
144066,31,43,153,0
144077,37,39,153,0
144088,38,42,162,0
144099,32,47,174,0
144110,23,46,181,0
144121,14,43,188,0
144132,2,48,189,0
144143,-7,51,192,0
144154,-17,52,199,0
144165,-24,52,203,0
144176,-31,53,205,0
144187,-37,49,204,0
144198,-41,47,206,0
144209,-44,46,208,0
144220,-45,45,210,0
144231,-50,48,213,0
144242,-52,55,219,0
144253,-62,56,218,0
144264,-67,62,223,0
144275,-74,71,220,0
144286,-84,70,221,0
144297,-86,63,221,0
144308,-80,61,228,0
144319,-63,63,240,0
144330,-40,65,258,0
144341,-18,64,269,0
144352,-5,62,272,1
144363,-4,87,265,0
144374,-6,104,275,0
144385,17,71,322,0
144396,64,61,379,0
144407,131,86,430,0
144418,133,91,371,0
144429,89,81,298,0
144440,52,56,259,0
144451,56,36,240,0
144462,49,32,212,0
144473,30,38,194,0
144484,22,73,113,0
144495,42,-98,347,0
144506,37,59,163,0
144517,31,67,166,0
144528,44,-32,159,0
144539,44,40,148,0
144550,59,16,154,0
144561,85,19,173,0
144572,117,31,200,0
144583,115,37,205,0
144594,110,46,219,0
144605,97,52,227,0
144616,85,62,228,0
144627,78,64,222,0
144638,69,67,212,0
144649,60,69,212,0
144660,50,72,216,0
144671,45,69,215,0
144682,38,67,217,0
144693,30,66,213,0
144704,23,67,214,0
144715,17,66,208,0
144726,10,66,207,0
144737,8,69,211,0
144748,8,73,214,0
144759,7,80,216,0
144770,3,84,218,0
144781,2,86,220,0
144792,1,90,220,0
144803,0,96,223,0
144814,-4,94,223,0
144825,-10,92,224,0
144836,-18,87,219,0
144847,-32,86,219,0
144858,-41,80,220,0
144869,-50,90,217,0
144880,-71,80,216,0
144891,-70,81,217,0
144902,-69,76,210,0
144913,-74,78,211,0
144924,-71,77,208,0
144935,-69,87,205,0
144946,-64,93,204,0
144957,-61,95,203,0
144968,-44,96,198,0
144979,-30,116,200,0
144990,-14,94,211,0
145001,-6,76,221,0
145012,-7,66,223,0
145023,-6,55,218,0
145034,-12,50,221,0
145045,-29,52,224,0
145056,-50,51,227,0
145067,-61,56,222,0
145078,-68,61,219,0
145089,-55,40,227,1
145100,-29,33,230,0
145111,-20,28,253,0
145122,-4,1,283,0
145133,-11,0,303,0
145144,-33,20,323,0
145155,-14,44,328,0
145166,6,76,320,0
145177,33,80,319,0
145188,131,71,279,0
145199,173,87,239,0
145210,191,95,204,0
145221,189,88,186,0
145232,165,80,176,0
145243,137,72,169,0
145254,99,60,161,0
145265,62,52,169,0
145276,29,54,193,0
145287,9,56,234,0
145298,-13,59,237,0
145309,-27,74,258,0
145320,-29,74,267,0
145331,-26,82,267,0
145342,-26,103,255,0
145353,-24,96,245,0
145364,-19,89,230,0
145375,-16,85,217,0
145386,-9,78,208,0
145397,-7,71,195,0
145408,0,65,184,0
145419,5,62,178,0
145430,9,54,169,0
145441,13,49,168,0
145452,14,50,173,0
145463,9,51,178,0
145474,3,54,188,0
145485,-8,54,193,0
145496,-26,60,194,0
145507,-28,57,197,0
145518,-29,55,196,0
145529,-29,57,192,0
145540,-29,56,190,0
145551,-30,59,186,0
145562,-33,59,182,0
145573,-35,56,183,0
145584,-35,52,188,0
145595,-39,55,192,0
145606,-44,55,194,0
145617,-53,56,197,0
145628,-58,61,201,0
145639,-62,63,205,0
145650,-71,95,222,0
145661,-74,92,240,0
145672,-65,77,246,0
145683,-49,75,249,0
145694,-40,81,254,1
145705,-41,86,253,0
145716,-49,88,247,0
145727,-56,83,256,0
145738,-49,70,281,0
145749,-43,61,306,0
145760,-20,29,326,0
145771,9,23,349,0
145782,37,39,363,0
145793,47,76,351,0
145804,61,68,328,0
145815,78,47,301,0
145826,87,57,299,0
145837,71,73,285,0
145849,61,82,249,0
145860,65,69,202,0
145871,66,53,171,0
145882,52,31,130,0
145893,77,111,158,0
145904,19,-82,120,0
145915,66,48,118,0
145926,64,-25,134,0
145937,66,-40,144,0
145948,96,4,197,0
145959,110,23,222,0
145970,114,56,237,0
145981,116,58,247,0
145992,120,64,239,0
146003,98,68,230,0
146014,82,68,216,0
146025,65,69,213,0
146036,44,69,215,0
146047,23,69,219,0
146058,5,68,219,0
146069,-4,63,214,0
146080,-11,64,208,0
146091,-13,61,203,0
146102,-13,64,206,0
146113,-9,66,207,0
146124,-10,66,213,0
146135,-6,72,218,0
146146,-9,74,215,0
146157,-11,72,219,0
146168,-16,79,221,0
146179,-24,87,222,0
146190,-31,87,223,0
146201,-37,86,230,0
146212,-46,86,225,0
146223,-54,83,223,0
146234,-61,77,221,0
146245,-67,78,220,0
146256,-73,67,210,0
146267,-74,65,210,0
146278,-69,61,207,0
146289,-63,58,201,0
146300,-56,56,190,0
146311,-48,60,183,0
146323,-37,61,194,0
146334,-20,58,202,0
146345,-5,56,206,0
146356,2,58,208,0
146367,9,61,216,0
146378,18,57,223,0
146389,18,55,230,0
146400,-11,57,234,0
146411,-38,58,233,1
146422,-58,63,224,0
146433,-68,60,226,0
146444,-55,54,231,0
146455,-45,50,244,0
146466,-24,32,267,0
146477,-8,23,283,0
146488,-17,24,310,0
146499,-36,33,341,0
146510,-30,53,355,0
146521,-12,80,353,0
146532,13,99,356,0
146543,55,98,347,0
146554,124,93,258,0
146565,145,90,216,0
146576,155,81,190,0
146587,147,65,165,0
146598,130,58,141,0
146609,97,53,132,0
146620,69,53,149,0
146631,50,53,172,0
146642,36,46,188,0
146653,30,48,203,0
146664,31,62,220,0
146675,37,71,239,0
146686,36,86,242,0
146697,33,91,240,0
146708,14,82,235,0
146719,7,70,226,0
146730,-1,69,221,0
146741,-12,66,221,0
146752,-16,67,215,0
146763,-19,67,208,0
146774,-15,65,199,0
146785,-11,66,193,0
146796,-5,65,190,0
146807,-2,63,189,0
146818,-2,61,190,0
146829,-3,56,192,0
146840,-6,57,195,0
146851,-14,54,194,0
146862,-23,54,194,0
146873,-38,48,189,0
146884,-40,47,187,0
146895,-41,44,182,0
146906,-39,45,177,0
146917,-39,42,173,0
146928,-40,41,171,0
146939,-44,39,173,0
146950,-46,42,178,0
146961,-48,50,189,0
146972,-51,59,197,0
146983,-55,66,204,0
146994,-58,66,204,0
147005,-64,74,216,0
147016,-61,82,225,0
147027,-54,103,263,0
147038,-59,105,272,1
147049,-61,106,271,0
147060,-63,103,264,0
147071,-66,94,264,0
147082,-62,70,290,0
147093,-53,61,318,0
147104,-49,60,335,0
147115,-33,58,331,0
147126,2,65,335,0
147137,51,80,356,0
147148,91,103,348,0
147159,94,85,315,0
147170,69,45,291,0
147181,106,59,238,0
147192,127,175,233,0
147203,83,-55,229,0
147214,104,89,159,0
147225,78,52,165,0
147236,59,9,162,0
147247,42,43,159,0
147258,50,6,169,0
147269,49,0,167,0
147280,58,8,170,0
147291,65,-1,182,0
147302,74,4,190,0
147313,80,11,208,0
147324,79,33,223,0
147335,58,63,235,0
147346,42,75,231,0
147357,32,74,225,0
147368,28,71,225,0
147379,22,71,223,0
147390,18,70,221,0
147401,13,69,216,0
147412,11,62,208,0
147423,8,55,200,0
147434,8,49,193,0
147445,9,53,200,0
147456,10,56,211,0
147467,7,61,218,0
147478,2,66,225,0
147489,-18,71,228,0
147500,-31,69,231,0
147511,-41,69,227,0
147522,-47,70,227,0
147533,-52,70,224,0
147544,-57,70,222,0
147555,-59,70,224,0
147566,-58,70,222,0
147577,-58,69,218,0
147588,-57,71,216,0
147599,-56,71,217,0
147610,-58,71,218,0
147621,-59,66,214,0
147632,-54,58,206,0
147643,-45,54,193,0
147654,-39,61,192,0
147665,-35,60,195,0
147676,-28,55,199,0
147687,-17,53,206,0
147698,-7,55,209,0
147709,-1,52,208,1
147720,-2,50,207,0
147731,-12,48,203,0
147742,-32,50,203,0
147753,-49,54,206,0
147764,-53,62,213,0
147775,-49,67,231,0
147786,-27,64,248,0
147797,-3,40,264,0
147808,17,25,254,0
147819,22,22,259,0
147830,7,20,285,0
147841,0,14,314,0
147852,-6,24,332,0
147863,-2,50,345,0
147874,12,75,347,0
147885,27,75,337,0
147896,45,64,320,0
147907,55,59,272,0
147918,67,59,228,0
147929,90,49,203,0
147940,111,33,185,0
147951,122,31,156,0
147962,111,17,108,0
147973,93,16,125,0
147984,76,26,158,0
147995,67,29,192,0
148006,60,39,221,0
148017,44,58,246,0
148028,23,82,260,0
148039,9,113,273,0
148050,8,124,288,0
148061,10,123,299,0
148072,9,110,281,0
148083,4,86,259,0
148094,-3,80,247,0
148105,-15,77,233,0
148116,-27,63,210,0
148127,-30,60,207,0
148138,-28,59,205,0
148149,-25,58,198,0
148160,-21,61,195,0
148171,-19,58,192,0
148182,-16,60,196,0
148193,-15,61,197,0
148204,-19,63,197,0
148215,-23,60,196,0
148226,-26,57,193,0
148237,-29,52,190,0
148248,-30,50,184,0
148259,-28,49,180,0
148270,-25,56,175,0
148281,-27,56,171,0
148292,-33,54,173,0
148303,-37,51,175,0
148314,-41,52,183,0
148325,-48,58,186,0
148336,-55,61,194,0
148347,-60,61,197,0
148358,-66,64,202,0
148369,-71,69,215,0
148380,-77,79,225,0
148391,-75,79,234,0
148402,-66,89,242,0
148413,-64,102,248,1
148424,-52,64,268,0
148435,-49,70,266,0
148446,-50,80,268,0
148457,-41,66,294,0
148468,-21,53,324,0
148479,-15,53,329,0
148490,-15,58,321,0
148501,-2,60,319,0
148512,19,74,327,0
148523,38,86,333,0
148534,48,77,328,0
148545,56,47,310,0
148556,60,32,298,0
148567,62,48,300,0
148578,55,47,225,0
148589,62,24,193,0
148600,55,22,171,0
148611,36,24,159,0
148622,28,5,152,0
148633,27,-4,144,0
148644,22,-2,146,0
148655,35,0,158,0
148666,64,15,181,0
148677,88,16,193,0
148688,97,20,205,0
148699,97,30,216,0
148710,87,42,227,0
148721,79,51,232,0
148732,64,69,233,0
148743,63,63,232,0
148754,54,61,222,0
148765,41,58,220,0
148776,27,60,218,0
148787,16,63,214,0
148798,3,62,209,0
148809,-6,61,205,0
148820,-15,62,203,0
148831,-23,63,208,0
148842,-31,66,210,0
148853,-35,68,215,0
148864,-37,67,220,0
148875,-38,69,220,0
148886,-40,72,223,0
148897,-46,73,225,0
148908,-44,72,227,0
148919,-44,71,228,0
148930,-46,71,227,0
148941,-44,71,224,0
148952,-49,72,220,0
148963,-52,67,221,0
148974,-52,64,218,0
148985,-56,59,216,0
148996,-59,54,212,0
149007,-61,52,207,0
149018,-59,47,204,0
149029,-55,48,198,0
149040,-49,52,194,0
149051,-36,69,196,0
149062,-31,64,203,0
149073,-26,57,204,0
149084,-16,52,207,0
149095,-2,53,205,0
149106,9,51,207,0
149117,12,50,209,0
149128,2,54,215,0
149139,-21,56,225,0
149150,-37,60,235,0
149161,-46,68,246,0
149172,-31,62,259,1
149183,-13,56,265,0
149194,8,29,273,0
149205,53,9,279,0
149216,55,11,294,0
149227,68,19,292,0
149238,65,35,292,0
149249,48,34,313,0
149260,49,24,337,0
149271,72,31,313,0
149282,96,59,280,0
149293,121,70,251,0
149304,137,76,217,0
149315,139,73,191,0
149326,131,67,166,0
149337,123,54,144,0
149348,99,48,135,0
149359,63,69,204,0
149370,43,61,230,0
149381,17,79,240,0
149392,3,84,261,0
149403,-3,79,282,0
149414,-10,92,295,0
149425,-10,91,291,0
149436,-2,94,269,0
149447,0,80,242,0
149458,-2,76,226,0
149469,-1,71,212,0
149480,3,70,203,0
149491,7,68,191,0
149502,9,67,189,0
149513,13,64,185,0
149524,9,65,186,0
149535,7,65,190,0
149546,4,65,191,0
149557,1,64,194,0
149568,-4,63,194,0
149579,-13,62,192,0
149590,-21,61,191,0
149601,-28,59,194,0
149612,-33,59,194,0
149623,-36,57,193,0
149634,-36,55,192,0
149645,-39,54,190,0
149656,-39,53,186,0
149667,-41,48,190,0
149678,-38,50,194,0
149689,-37,47,200,0
149700,-40,47,205,0
149711,-45,52,208,0
149722,-50,55,206,0
149733,-62,83,220,0
149744,-73,94,236,0
149755,-79,80,241,0
149766,-74,66,246,0
149777,-59,57,249,1
149788,-42,61,257,0
149799,-38,63,265,0
149810,-44,59,260,0
149821,-44,61,281,0
149832,-47,55,293,0
149843,-29,47,301,0
149854,-5,64,318,0
149865,17,40,351,0
149876,48,58,360,0
149887,58,81,353,0
149898,45,79,324,0
149909,39,64,294,0
149920,48,50,263,0
149931,54,142,187,0
149942,28,-126,244,0
149953,63,74,172,0
149964,53,13,173,0
149975,51,10,152,0
149986,46,12,164,0
149997,37,27,161,0
150008,37,28,165,0
150019,47,25,180,0
150030,67,30,192,0
150041,89,30,206,0
150052,96,36,214,0
150063,94,35,216,0
150074,85,43,220,0
150085,75,49,222,0
150096,68,54,226,0
150107,66,61,226,0
150119,51,63,226,0
150130,43,61,225,0
150141,34,60,222,0
150152,24,64,218,0
150163,18,67,213,0
150174,9,68,211,0
150185,1,69,207,0
150196,-3,75,207,0
150207,-9,78,210,0
150218,-11,78,212,0
150229,-19,87,215,0
150240,-27,89,218,0
150251,-41,91,218,0
150262,-49,91,220,0
150273,-56,85,220,0
150284,-56,72,222,0
150295,-51,70,218,0
150306,-39,70,215,0
150317,-26,75,219,0
150328,-20,76,219,0
150339,-19,73,220,0
150350,-25,75,223,0
150361,-34,73,223,0
150372,-44,67,220,0
150383,-53,66,216,0
150394,-59,61,212,0
150405,-65,64,206,0
150416,-68,62,200,0
150427,-67,61,191,0
150438,-35,65,190,0
150449,-19,71,195,0
150460,-7,71,203,0
150471,4,64,212,0
150482,11,62,216,0
150493,14,62,220,1
150504,11,59,227,0
150515,-7,59,235,0
150526,-31,56,235,0
150537,-47,58,229,0
150548,-53,51,228,0
150559,-46,51,221,0
150570,-27,53,213,0
150581,-11,45,223,0
150592,24,14,275,0
150603,41,29,286,0
150614,42,54,302,0
150625,29,53,346,0
150636,21,40,391,0
150647,43,53,394,0
150658,60,69,343,0
150669,78,70,293,0
150680,101,56,247,0
150691,117,50,211,0
150702,119,55,179,0
150713,110,60,152,0
150724,99,55,132,0
150735,78,44,118,0
150746,29,70,170,0
150757,16,78,215,0
150768,5,78,251,0
150779,-11,89,260,0
150790,-17,100,270,0
150801,-14,100,282,0
150812,-13,107,292,0
150823,-7,92,283,0
150834,4,71,251,0
150845,6,63,233,0
150856,10,63,218,0
150867,13,60,205,0
150878,14,56,196,0
150889,16,55,192,0
150900,14,54,183,0
150911,8,56,183,0
150922,2,58,184,0
150933,-4,60,191,0
150944,-14,62,195,0
150955,-26,63,197,0
150966,-36,58,199,0
150977,-44,54,196,0
150988,-51,50,193,0
150999,-51,52,186,0
151010,-51,52,182,0
151021,-52,51,178,0
151032,-57,52,175,0
151043,-60,49,172,0
151054,-63,46,173,0
151065,-65,43,179,0
151076,-67,45,185,0
151087,-71,49,191,0
151098,-78,54,193,0
151109,-82,63,198,0
151120,-94,98,225,0
151131,-109,101,248,0
151142,-103,70,261,0
151153,-81,55,263,0
151164,-61,79,260,0
151175,-61,97,250,0
151186,-49,79,258,1
151197,-30,60,286,0
151208,-19,60,312,0
151219,40,88,418,0
151230,66,94,463,0
151241,91,80,432,0
151252,74,81,373,0
151263,55,77,295,0
151274,106,55,408,0
151285,42,-7,241,0
151296,57,60,194,0
151307,42,-37,159,0
151318,38,19,131,0
151329,52,-23,139,0
151340,53,-13,140,0
151351,37,-17,130,0
151362,36,-5,131,0
151373,66,5,160,0
151384,88,16,186,0
151395,105,30,204,0
151406,111,48,223,0
151417,99,58,233,0
151428,81,64,234,0
151439,64,66,229,0
151450,53,67,225,0
151461,49,67,227,0
151472,44,66,222,0
151483,37,59,216,0
151494,28,53,209,0
151505,25,54,208,0
151516,24,47,208,0
151527,20,54,210,0
151538,18,54,217,0
151549,15,58,219,0
151560,9,61,219,0
151571,4,60,221,0
151582,-2,60,218,0
151593,-12,57,218,0
151604,-18,60,217,0
151615,-21,62,221,0
151626,-20,63,224,0
151637,-21,65,223,0
151648,-22,65,224,0
151659,-23,59,226,0
151670,-23,59,226,0
151681,-30,58,222,0
151692,-36,55,226,0
151703,-38,52,221,0
151714,-48,54,223,0
151725,-51,55,228,0
151736,-54,55,225,0
151747,-56,58,218,0
151758,-49,53,207,0
151769,-42,57,197,0
151780,-37,68,198,0
151791,-35,79,206,0
151802,-35,76,211,0
151813,-35,79,210,0
151824,-34,82,211,1
151835,-24,75,200,0
151846,-31,66,197,0
151857,-43,63,197,0
151868,-61,64,205,0
151879,-78,59,218,0
151890,-74,52,235,0
151901,-49,39,265,0
151912,-11,52,285,0
151923,16,59,296,0
151934,17,42,315,0
151945,18,45,320,0
151956,7,50,316,0
151967,4,52,318,0
151978,31,71,312,0
151989,57,88,295,0
152000,126,59,260,0
152011,137,49,235,0
152022,128,41,199,0
152033,110,17,161,0
152044,88,7,129,0
152055,64,1,124,0
152066,47,16,151,0
152077,28,46,191,0
152088,7,67,224,0
152099,2,80,249,0
152110,0,95,252,0
152121,-3,118,256,0
152132,0,118,264,0
152143,6,111,264,0
152154,13,94,264,0
152165,18,76,249,0
152176,23,65,233,0
152187,13,55,212,0
152199,9,43,198,0
152210,11,47,192,0
152221,13,51,186,0
152232,15,54,182,0
152243,16,54,185,0
152254,15,53,194,0
152265,11,48,199,0
152276,3,51,211,0
152287,-8,53,220,0
152298,-33,70,226,0
152309,-39,79,224,0
152320,-38,84,224,0
152331,-36,84,216,0
152342,-35,81,205,0
152353,-34,65,197,0
152364,-35,60,191,0
152375,-41,73,190,0
152386,-52,89,185,0
152397,-60,92,183,0
152408,-68,90,184,0
152420,-76,80,186,0
152431,-84,67,190,0
152442,-82,64,212,0
152453,-67,57,236,0
152464,-49,66,257,0
152475,-37,73,274,0
152486,-28,76,271,0
152497,-28,94,263,1
152508,-41,109,245,0
152519,-33,99,247,0
152530,-16,78,240,0
152541,-1,68,258,0
152552,18,87,291,0
152563,61,84,324,0
152574,102,81,350,0
152585,103,100,340,0
152596,80,42,280,0
152607,71,24,251,0
152618,54,12,238,0
152629,42,9,228,0
152640,34,10,211,0
152651,22,8,194,0
152662,4,16,183,0
152673,-7,18,192,0
152684,-12,18,192,0
152695,-8,28,180,0
152706,6,37,179,0
152717,23,39,180,0
152729,46,60,182,0
152740,46,63,191,0
152751,39,70,199,0
152762,31,73,207,0
152773,19,74,214,0
152784,6,72,217,0
152795,-5,69,214,0
152806,-12,63,210,0
152817,-15,55,211,0
152828,-17,51,210,0
152839,-13,48,209,0
152850,-8,48,205,0
152861,-3,47,204,0
152872,-1,55,206,0
152883,-2,67,207,0
152894,-1,76,205,0
152905,0,77,206,0
152916,-2,79,209,0
152927,-4,83,213,0
152938,-8,85,216,0
152949,-15,89,211,0
152960,-25,90,206,0
152971,-33,93,203,0
152982,-37,96,200,0
152993,-37,93,203,0
153004,-34,90,209,0
153015,-29,89,206,0
153026,-24,83,200,0
153037,-16,76,195,0
153048,7,73,192,0
153059,11,73,194,0
153070,14,75,199,0
153081,18,90,204,0
153092,18,103,214,0
153103,26,105,229,0
153114,32,106,240,0
153125,24,102,241,0
153136,10,101,229,1
153147,-6,108,217,0
153158,-14,124,204,0
153169,-30,118,207,0
153180,-40,107,239,0
153191,-36,97,273,0
153202,-22,90,319,0
153213,-37,111,348,0
153224,-54,130,358,0
153235,-62,129,349,0
153246,-49,115,331,0
153257,-7,104,301,0
153268,36,91,270,1
153279,68,68,249,0
153290,95,43,221,0
153301,119,20,192,0
153312,127,17,169,0
153323,126,17,158,0
153334,122,26,155,0
153345,106,27,162,0
153356,68,26,192,0
153367,46,32,208,0
153378,24,44,226,0
153389,2,64,252,0
153400,-10,76,271,0
153411,-12,91,292,0
153422,-8,94,299,0
153433,1,98,280,0
153444,9,90,253,0
153455,10,80,235,0
153466,10,68,221,0
153477,10,65,213,0
153488,11,69,215,0
153499,13,62,207,0
153510,24,51,202,0
153521,32,45,197,0
153532,38,47,198,0
153543,44,48,198,0
153554,47,49,193,0
153565,47,50,187,0
153576,44,55,186,0
153587,39,58,187,0
153598,28,62,189,0
153609,18,59,187,0
153620,8,62,188,0
153631,-1,63,183,0
153642,-13,62,176,0
153653,-21,64,176,0
153664,-35,60,179,0
153675,-42,64,181,0
153686,-45,65,187,0
153697,-48,57,195,0
153708,-39,43,195,0
153719,-43,81,188,0
153730,-47,97,195,0
153741,-42,74,213,0
153752,-38,61,227,0
153763,-29,55,232,0
153774,-17,65,235,1
153785,-19,89,261,0
153796,-21,83,277,0
153807,-22,98,267,0
153818,-41,110,278,0
153829,-59,110,320,0
153840,-57,100,348,0
153851,-57,123,345,0
153862,-53,130,344,0
153873,-23,113,357,0
153884,11,101,345,0
153895,45,86,328,0
153906,61,54,305,0
153917,57,26,293,0
153928,57,-1,277,0
153939,70,14,232,0
153950,70,4,183,0
153961,51,-11,155,0
153972,44,2,140,0
153983,30,0,145,0
153994,29,-5,158,0
154005,31,12,178,0
154016,31,20,192,0
154027,32,31,200,0
154038,36,35,211,0
154049,30,34,219,0
154060,18,30,212,0
154071,11,34,211,0
154082,10,41,219,0
154093,13,50,222,0
154104,22,52,215,0
154115,21,56,211,0
154126,18,52,207,0
154137,13,53,201,0
154148,14,53,203,0
154159,10,54,205,0
154170,8,54,209,0
154181,2,54,209,0
154192,-3,53,208,0
154203,-12,50,207,0
154214,-22,44,201,0
154225,-29,46,201,0
154236,-37,49,208,0
154247,-46,56,216,0
154258,-51,59,221,0
154269,-57,69,228,0
154280,-60,71,228,0
154291,-60,71,222,0
154302,-60,69,214,0
154313,-57,67,208,0
154324,-55,69,203,0
154335,-50,66,200,0
154346,-42,64,200,0
154357,-37,65,196,0
154368,-28,58,194,0
154379,-16,46,194,0
154390,-2,49,195,0
154401,6,55,194,0
154412,15,57,204,0
154423,21,59,215,0
154434,29,62,231,0
154445,8,59,232,0
154456,-22,62,214,1
154467,-52,78,187,0
154478,-82,84,174,0
154489,-83,72,188,0
154500,-72,62,226,0
154511,-48,62,273,0
154522,-19,60,312,0
154533,0,59,352,0
154544,4,67,378,0
154555,-3,87,377,0
154566,3,104,358,0
154577,16,109,335,0
154588,30,86,326,0
154599,59,48,305,0
154610,114,30,226,0
154621,123,35,200,0
154632,128,33,167,0
154643,119,35,140,0
154654,103,43,130,0
154665,83,49,137,0
154676,61,51,159,0
154687,44,59,195,0
154698,30,65,236,0
154709,22,69,258,0
154720,14,74,265,0
154731,8,81,265,0
154742,8,84,259,0
154753,14,78,257,0
154764,24,62,248,0
154775,26,55,237,0
154786,25,54,224,0
154797,25,56,211,0
154808,23,57,199,0
154819,22,54,191,0
154830,18,48,191,0
154841,18,47,191,0
154852,18,50,192,0
154863,13,55,198,0
154874,8,57,193,0
154885,-1,59,191,0
154896,-9,57,189,0
154907,-17,54,188,0
154918,-28,52,187,0
154929,-29,49,192,0
154940,-30,52,195,0
154951,-29,49,194,0
154962,-20,39,192,0
154973,-19,67,186,0
154984,-34,100,176,0
154995,-44,99,184,0
155006,-48,81,198,0
155017,-48,61,202,0
155028,-48,56,199,0
155039,-46,63,202,0
155050,-45,66,211,0
155061,-45,65,221,1
155072,-14,56,264,0
155083,-12,50,256,0
155094,-35,106,232,0
155105,-64,131,250,0
155116,-83,126,282,0
155127,-81,95,321,0
155138,-67,121,351,0
155149,-67,163,349,0
155160,-38,150,365,0
155171,-2,120,372,0
155182,4,95,357,0
155193,18,65,335,0
155204,42,48,316,0
155215,69,38,288,0
155226,78,32,235,0
155237,55,4,159,0
155248,38,-5,148,0
155259,11,-4,139,0
155270,-1,-9,140,0
155281,0,-2,151,0
155292,14,10,175,0
155303,35,21,195,0
155314,52,18,206,0
155325,63,23,213,0
155336,73,18,211,0
155347,86,23,208,0
155358,95,37,216,0
155369,84,49,220,0
155380,69,55,224,0
155391,24,58,221,0
155402,5,62,219,0
155413,-9,62,215,0
155424,-19,62,212,0
155435,-26,59,206,0
155446,-37,59,199,0
155457,-48,60,202,0
155468,-55,59,204,0
155479,-59,63,213,0
155490,-59,65,215,0
155501,-56,66,213,0
155512,-50,66,209,0
155523,-42,65,208,0
155534,-32,67,213,0
155545,-26,68,223,0
155557,-26,69,225,0
155568,-21,65,219,0
155579,-19,62,212,0
155590,-20,63,212,0
155601,-17,63,208,0
155612,-16,61,209,0
155623,-13,60,207,0
155634,-9,57,209,0
155645,-3,55,211,0
155656,0,52,209,0
155667,3,53,210,0
155678,6,56,211,0
155689,11,61,217,0
155700,14,61,220,0
155711,10,52,222,0
155722,5,40,216,1
155733,-4,46,201,0
155744,-20,62,184,0
155755,-35,76,180,0
155766,-41,82,190,0
155777,-29,87,221,0
155788,-4,93,257,0
155799,17,81,301,0
155810,25,72,333,0
155821,12,65,341,0
155832,-7,64,335,0
155843,-30,78,311,0
155854,-21,76,314,0
155865,7,79,304,0
155876,35,77,288,0
155887,62,70,265,0
155898,86,56,237,0
155909,107,37,206,0
155920,109,26,173,0
155931,97,25,143,0
155942,85,18,115,0
155953,67,11,113,0
155964,52,3,116,0
155975,43,20,157,0
155986,23,48,206,0
155997,5,82,286,0
156008,9,104,312,0
156019,1,119,315,0
156030,-4,127,305,0
156041,-4,120,293,0
156052,-1,100,275,0
156063,-5,79,260,0
156074,-13,71,254,0
156085,-14,64,236,0
156096,-21,61,219,0
156107,-24,61,209,0
156118,-23,54,201,0
156129,-13,50,188,0
156140,-3,54,180,0
156151,9,52,172,0
156162,14,59,177,0
156173,14,64,184,0
156184,10,67,186,0
156195,5,65,187,0
156206,-2,57,188,0
156217,-12,50,185,0
156228,-18,42,185,0
156239,-26,42,188,0
156250,-28,54,192,0
156261,-26,56,194,0
156272,-21,54,185,0
156283,-24,71,185,0
156294,-32,81,187,0
156305,-29,60,200,0
156316,-31,67,193,0
156327,-37,70,195,0
156338,-39,61,207,0
156349,-33,54,218,0
156360,-27,55,226,0
156371,-13,54,228,0
156382,-11,67,247,0
156393,-6,60,261,0
156404,-2,72,260,1
156415,-2,93,275,0
156426,-14,101,289,0
156437,-23,110,304,0
156448,-29,127,347,0
156459,-39,138,353,0
156470,-19,107,368,0
156481,0,86,343,0
156492,-1,93,305,0
156503,-15,68,269,0
156514,-14,32,250,0
156525,3,3,241,0
156536,28,16,225,0
156547,42,9,199,0
156558,38,7,172,0
156570,38,12,161,0
156581,38,12,160,0
156592,31,15,161,0
156603,29,21,182,0
156614,32,30,194,0
156625,34,29,195,0
156636,33,36,201,0
156647,32,29,206,0
156658,24,25,206,0
156669,15,22,203,0
156680,9,31,212,0
156691,10,46,226,0
156702,10,50,226,0
156713,10,49,221,0
156724,9,55,220,0
156735,8,59,220,0
156746,11,62,218,0
156757,8,65,208,0
156768,3,64,203,0
156779,-1,67,200,0
156790,-12,65,198,0
156801,-23,65,194,0
156812,-34,64,199,0
156823,-39,64,202,0
156834,-44,64,205,0
156845,-45,66,210,0
156856,-41,70,217,0
156867,-38,72,222,0
156878,-37,75,223,0
156889,-35,79,224,0
156900,-32,76,221,1
156911,-30,74,211,0
156922,-28,75,208,0
156933,-26,72,210,0
156944,-22,70,212,0
156955,-17,64,211,0
156966,-10,59,209,0
156977,-3,54,203,0
156988,0,49,200,0
156999,3,48,201,0
157010,10,51,206,0
157021,13,57,215,0
157032,13,62,222,0
157043,6,66,229,0
157054,1,65,232,0
157065,-32,76,204,0
157076,-44,87,187,0
157087,-54,82,188,0
157098,-48,72,206,0
157109,-42,74,244,0
157120,-28,82,286,0
157131,-22,80,318,0
157142,-21,74,345,0
157153,-24,82,368,0
157164,-24,89,353,0
157175,-19,102,328,0
157186,-4,101,310,0
157197,3,78,301,0
157208,20,44,287,0
157219,55,24,220,0
157230,63,23,184,0
157242,69,21,153,0
157253,68,28,133,0
157264,67,31,124,0
157275,66,33,126,0
157286,62,32,135,0
157297,59,43,167,0
157308,56,63,210,0
157319,49,79,258,0
157330,43,90,299,0
157341,34,103,316,0
157352,22,118,317,0
157363,2,110,292,0
157374,-3,93,270,0
157385,-8,80,254,0
157396,-16,69,243,0
157407,-26,66,232,0
157418,-29,64,215,0
157429,-31,64,207,0
157440,-32,62,204,0
157451,-28,53,204,0
157462,-15,51,202,0
157473,-3,51,198,0
157484,9,48,190,0
157495,19,52,184,0
157506,25,56,182,0
157517,27,56,175,0
157528,23,50,166,0
157539,14,49,167,0
157550,6,48,166,0
157561,1,46,166,0
157572,-5,47,167,0
157583,-10,50,166,0
157594,-12,51,166,0
157605,-8,48,171,0
157616,-2,51,180,0
157627,3,50,186,0
157638,5,53,189,0
157649,2,64,195,0
157660,0,73,209,0
157671,-9,76,227,0
157682,-18,71,235,0
157693,-19,66,241,0
157704,-17,65,247,0
157715,-19,68,251,0
157726,-26,79,255,0
157737,-41,92,257,0
157748,-65,106,257,0
157759,-93,113,253,0
157770,-116,113,261,0
157781,-122,109,271,1
157792,-114,108,286,0
157803,-80,101,305,0
157814,-27,105,320,0
157825,45,96,359,0
157836,123,86,380,0
157847,105,68,359,0
157858,139,42,356,0
157869,160,55,316,0
157880,118,39,224,0
157891,88,10,168,0
157902,59,-13,145,0
157913,32,-11,134,0
157924,19,-13,129,0
157935,9,-8,127,0
157946,12,0,135,0
157957,30,2,155,0
157968,54,1,182,0
157979,72,8,197,0
157990,79,38,228,0
158001,70,58,240,0
158012,55,63,234,0
158023,43,65,222,0
158034,29,65,216,0
158045,24,65,218,0
158056,16,63,219,0
158067,7,63,218,0
158078,0,63,212,0
158089,-4,57,203,0
158100,-2,50,194,0
158111,1,51,194,0
158122,2,50,198,0
158133,4,50,205,0
158144,-7,60,217,0
158155,-20,64,222,0
158166,-29,65,225,0
158177,-40,67,226,0
158188,-48,69,222,0
158199,-54,67,221,0
158210,-55,69,223,0
158221,-58,69,225,0
158232,-54,68,222,0
158243,-48,65,220,0
158254,-44,65,217,0
158265,-43,67,214,0
158276,-41,65,208,0
158287,-35,57,206,0
158298,-20,55,195,0
158309,-15,62,194,0
158320,-11,62,196,0
158331,-7,55,196,0
158342,-2,53,200,0
158353,2,56,203,0
158364,9,56,204,0
158375,6,52,211,0
158386,-9,51,213,0
158397,-31,53,216,0
158408,-54,57,222,0
158419,-55,67,226,0
158430,-46,77,240,1
158441,-26,81,267,0
158452,3,48,292,0
158463,6,33,300,0
158474,-1,23,324,0
158485,3,13,327,0
158496,19,37,317,0
158507,21,63,321,0
158518,41,49,342,0
158529,77,35,330,0
158540,111,46,290,0
158551,130,60,249,0
158562,138,69,217,0
158573,133,69,189,0
158584,117,66,165,0
158595,99,53,146,0
158606,78,52,145,0
158617,35,62,197,0
158628,12,67,221,0
158639,-18,71,234,0
158650,-40,77,248,0
158661,-49,78,266,0
158672,-54,74,271,0
158683,-55,78,278,0
158694,-40,68,262,0
158705,-27,60,248,0
158716,-14,60,233,0
158727,-3,60,222,0
158738,6,54,207,0
158749,13,50,192,0
158760,18,45,184,0
158771,22,41,168,0
158782,23,40,171,0
158793,23,42,178,0
158804,14,45,188,0
158815,4,47,189,0
158826,-4,46,192,0
158837,-10,44,194,0
158848,-14,46,195,0
158859,-14,47,196,0
158870,-17,47,200,0
158881,-20,50,200,0
158892,-25,52,199,0
158903,-28,51,193,0
158914,-35,53,194,0
158925,-46,56,197,0
158936,-51,57,200,0
158947,-55,59,205,0
158958,-59,62,208,0
158969,-62,66,208,0
158980,-64,66,209,0
158991,-63,70,223,0
159002,-63,88,229,0
159013,-61,72,234,0
159024,-53,71,242,0
159035,-42,67,249,0
159046,-35,75,252,0
159057,-35,79,265,0
159068,-31,62,288,0
159079,-26,66,336,1
159090,-16,88,349,0
159101,2,108,366,0
159112,34,89,398,0
159123,59,86,388,0
159134,63,69,361,0
159145,67,46,327,0
159156,80,36,284,0
159167,80,17,233,0
159178,76,15,184,0
159189,74,5,167,0
159200,64,6,157,0
159211,61,11,161,0
159222,50,5,149,0
159233,44,23,137,0
159244,50,35,151,0
159255,64,48,177,0
159266,74,60,193,0
159277,76,63,207,0
159288,65,63,214,0
159299,49,62,219,0
159310,34,63,220,0
159321,25,71,227,0
159332,18,75,227,0
159343,16,75,225,0
159354,16,69,217,0
159365,21,62,216,0
159377,26,51,209,0
159388,29,59,205,0
159399,26,60,209,0
159410,21,62,209,0
159421,16,63,212,0
159432,11,68,210,0
159443,2,66,209,0
159454,-13,67,209,0
159465,-26,63,214,0
159476,-37,61,218,0
159487,-40,66,220,0
159498,-43,67,217,0
159509,-43,69,219,0
159520,-41,68,221,0
159531,-30,67,221,0
159542,-32,71,219,0
159553,-32,67,222,0
159564,-37,65,218,0
159575,-37,56,217,0
159586,-40,56,219,0
159597,-40,51,217,0
159608,-41,52,212,0
159619,-41,55,208,0
159630,-37,63,199,0
159641,-36,68,198,0
159652,-30,64,209,0
159663,-28,62,213,0
159674,-23,58,215,0
159685,-1,56,223,0
159696,3,54,230,1
159707,0,48,236,0
159718,-24,47,236,0
159729,-54,48,232,0
159740,-62,52,228,0
159751,-59,47,231,0
159762,-41,49,239,0
159773,-33,52,252,0
159784,-17,40,266,0
159795,-5,43,282,0
159806,-1,45,308,0
159817,23,53,324,0
159828,50,92,312,0
159839,76,95,280,0
159850,97,53,274,0
159861,124,36,249,0
159872,144,57,212,0
159883,140,82,193,0
159894,122,86,188,0
159905,105,78,195,0
159916,87,80,206,0
159927,61,83,215,0
159938,32,78,233,0
159949,12,80,252,0
159960,-4,91,261,0
159971,-20,97,253,0
159982,-38,101,245,0
159993,-39,96,253,0
160004,-40,83,248,0
160015,-32,71,241,0
160026,-26,61,220,0
160037,-21,58,198,0
160048,-15,51,187,0
160059,-6,45,178,0
160070,0,44,169,0
160081,1,42,169,0
160093,2,43,173,0
160104,1,45,181,0
160115,2,45,185,0
160126,3,48,190,0
160137,1,52,194,0
160148,-2,46,193,0
160159,-3,39,195,0
160170,-4,38,198,0
160181,-3,40,198,0
160192,-4,45,195,0
160203,-9,48,193,0
160214,-13,52,193,0
160225,-14,50,193,0
160236,-18,49,193,0
160247,-21,49,194,0
160258,-27,54,200,0
160269,-35,58,205,0
160280,-41,62,212,0
160291,-45,69,215,0
160302,-52,82,220,0
160313,-54,73,219,0
160324,-51,62,220,0
160335,-43,50,231,0
160346,-35,42,245,0
160357,-24,44,257,0
160368,-18,49,260,0
160379,-21,52,260,1
160390,-34,55,248,0
160401,-54,70,242,0
160412,-70,80,248,0
160423,-68,66,273,0
160434,-57,75,298,0
160445,-31,92,318,0
160456,29,94,351,0
160467,81,77,358,0
160478,97,110,339,0
160489,88,74,327,0
160500,91,37,286,0
160511,92,22,263,0
160522,75,31,257,0
160533,59,41,233,0
160544,40,51,202,0
160555,27,36,197,0
160566,17,31,191,0
160577,7,25,188,0
160588,10,23,189,0
160599,20,22,188,0
160610,42,13,183,0
160621,63,10,188,0
160632,78,11,189,0
160643,89,11,193,0
160654,87,13,197,0
160665,78,26,210,0
160676,68,40,221,0
160687,62,51,227,0
160698,51,61,227,0
160710,41,65,234,0
160721,32,66,236,0
160732,22,66,228,0
160743,12,62,222,0
160754,-7,49,204,0
160765,-16,42,201,0
160776,-18,40,201,0
160787,-16,40,205,0
160798,-13,44,209,0
160809,-5,47,214,0
160820,0,52,220,0
160831,3,52,226,0
160842,2,55,230,0
160853,0,55,231,0
160864,-1,57,231,0
160875,-4,60,230,0
160886,-3,62,231,0
160897,-1,64,230,0
160908,1,65,228,0
160919,2,65,226,0
160930,7,69,225,0
160941,12,68,225,0
160952,16,63,231,0
160963,20,60,233,0
160974,19,64,230,0
160985,16,72,220,0
160996,10,83,206,0
161007,5,86,198,0
161018,2,87,199,0
161029,1,94,201,0
161040,5,100,204,0
161051,5,104,209,1
161062,-5,98,228,0
161073,-10,101,224,0
161084,-13,97,222,0
161095,-14,86,221,0
161106,-13,53,214,0
161117,-4,12,209,0
161128,7,-14,210,0
161139,24,-23,214,0
161150,40,-21,213,0
161161,56,-9,217,0
161172,50,7,242,0
161183,25,29,286,0
161194,9,49,312,0
161205,16,74,324,0
161216,36,105,308,0
161227,42,95,277,0
161238,30,87,260,0
161249,20,72,228,0
161260,-2,61,201,0
161271,-26,45,190,0
161282,-49,31,191,0
161293,-65,21,188,0
161304,-75,15,191,0
161315,-78,16,197,0
161326,-75,19,202,0
161337,-72,27,211,0
161348,-68,31,210,0
161359,-61,30,209,0
161370,-51,32,213,0
161381,-24,32,231,0
161392,-6,34,238,0
161403,8,41,246,0
161414,14,47,245,0
161425,26,43,239,0
161436,28,48,232,0
161447,31,43,226,0
161458,30,37,224,0
161469,28,34,222,0
161480,24,32,223,0
161491,19,33,225,0
161502,11,33,226,0
161513,4,34,227,0
161524,-3,35,226,0
161535,-19,35,226,0
161546,-24,35,227,0
161557,-26,35,228,0
161568,-26,38,229,0
161579,-25,39,231,0
161590,-22,36,227,0
161601,-17,41,233,0
161612,-16,43,233,0
161623,-15,39,232,0
161634,-15,40,226,0
161645,-15,38,226,0
161656,-16,38,227,0
161667,-12,36,228,0
161678,-11,40,230,0
161689,-7,38,229,0
161700,-5,36,232,0
161711,-3,37,235,0
161722,-3,34,231,0
161733,0,33,228,0
161744,0,34,230,0
161755,4,33,227,0
161766,4,35,229,0
161777,6,34,228,0
161788,7,36,229,0
161799,6,39,231,0
161810,3,38,230,0
161821,0,39,231,0
161832,-2,38,231,0
161843,-7,40,230,0
161854,-9,39,231,0
161865,-10,38,230,0
161876,-8,38,231,0
161887,-9,39,232,0
161898,-8,39,232,0
161909,-8,37,232,0
161920,-7,37,230,0
161931,-8,38,230,0
161942,-8,38,230,0
161953,-9,38,230,0
161964,-8,39,231,0
161975,-8,38,230,0
161986,-6,38,229,0
161997,-6,36,230,0
162008,-7,38,229,0
162019,-6,39,227,0
162030,-6,37,225,0
162041,-6,35,225,0
162053,-7,33,226,0
162064,-6,34,225,0
162075,-7,36,226,0
162086,-7,38,228,0
162097,-7,39,229,0
162108,-6,40,230,0
162119,-4,41,229,0
162130,-4,43,229,0
162141,-4,41,229,0
162152,-3,43,229,0
162163,-2,42,227,0
162174,-2,42,229,0
162185,-3,41,229,0
162196,-8,42,232,0
162207,-9,41,230,0
162218,-11,38,227,0
162229,-11,40,230,0
162241,-9,40,232,0
162252,-7,41,232,0
162263,-9,43,232,0
162274,-10,44,232,0
162285,-11,40,229,0
162296,-10,43,230,0
162307,-11,42,231,0
162318,-11,39,227,0
162329,-12,44,231,0
