timestamp,accX,accY,accZ,step
1198682,16,1,229,0
1198693,12,4,235,0
1198704,13,3,233,0
1198715,14,5,237,0
1198725,16,7,235,0
1198736,18,0,228,0
1198747,21,0,227,0
1198758,19,3,229,0
1198769,20,4,232,0
1198779,18,-2,230,0
1198791,17,4,229,0
1198801,14,5,232,0
1198812,16,6,234,0
1198822,13,5,230,0
1198833,15,3,229,0
1198844,14,3,225,0
1198854,16,7,238,0
1198865,13,5,234,0
1198875,13,3,229,0
1198885,14,4,228,0
1198896,16,6,230,0
1198907,18,4,231,0
1198919,19,2,228,0
1198929,20,2,231,0
1198940,21,0,230,0
1198951,22,0,229,0
1198962,21,1,228,0
1198973,21,1,228,0
1198984,20,1,230,0
1198995,17,1,231,0
1199006,16,2,231,0
1199017,16,1,232,0
1199028,16,1,231,0
1199039,16,1,231,0
1199051,18,1,231,0
1199061,16,0,228,0
1199072,17,1,229,0
1199083,18,2,228,0
1199094,19,2,230,0
1199105,20,1,230,0
1199116,19,1,230,0
1199128,18,2,230,0
1199138,20,1,230,0
1199149,20,1,232,0
1199160,17,2,230,0
1199171,17,0,231,0
1199183,18,1,231,0
1199193,18,1,232,0
1199204,19,2,233,0
1199215,20,2,232,0
1199226,20,1,232,0
1199237,21,1,230,0
1199248,22,1,229,0
1199259,24,1,228,0
1199270,25,0,226,0
1199281,24,0,227,0
1199293,24,0,228,0
1199304,25,1,227,0
1199315,24,0,228,0
1199326,24,1,231,0
1199337,23,1,232,0
1199348,22,2,233,0
1199359,22,3,233,0
1199370,22,2,231,0
1199381,23,1,234,0
1199393,23,2,230,0
1199403,24,2,231,0
1199414,24,1,229,0
1199425,23,2,229,0
1199436,24,1,227,0
1199447,24,0,227,0
1199458,24,0,227,0
1199469,25,0,228,0
1199480,26,1,229,0
1199492,27,1,228,0
1199503,27,1,231,0
1199513,28,1,230,0
1199524,27,1,231,0
1199535,26,1,231,0
1199546,27,2,230,0
1199557,24,2,231,0
1199568,24,2,231,0
1199579,25,1,232,0
1199591,23,2,231,0
1199601,22,3,232,0
1199612,21,3,231,0
1199623,20,3,230,0
1199634,19,3,230,0
1199645,18,2,229,0
1199656,17,2,230,0
1199667,17,1,232,0
1199678,18,1,231,0
1199689,18,3,231,0
1199700,20,3,230,0
1199711,21,2,232,0
1199722,24,2,232,0
1199733,25,2,230,0
1199744,28,1,229,0
1199755,29,2,229,0
1199766,30,1,228,0
1199778,32,1,230,0
1199788,33,1,228,0
1199799,31,0,228,0
1199810,32,0,228,0
1199821,32,0,227,0
1199832,31,1,227,0
1199843,30,1,229,0
1199854,30,1,229,0
1199865,29,1,229,0
1199876,27,1,230,0
1199887,26,1,229,0
1199898,24,2,229,0
1199909,23,2,229,0
1199920,22,1,230,0
1199931,21,2,230,0
1199942,20,2,231,0
1199953,20,2,230,0
1199964,20,0,229,0
1199976,20,1,230,0
1199986,20,3,231,0
1199997,21,0,230,0
1200008,22,1,229,0
1200019,22,2,230,0
1200030,23,2,230,0
1200041,22,2,229,0
1200052,22,2,230,0
1200063,24,2,232,0
1200075,22,3,231,0
1200085,22,2,232,0
1200096,22,2,231,0
1200107,21,2,231,0
1200119,21,2,231,0
1200129,22,2,230,0
1200140,21,2,229,0
1200151,21,2,228,0
1200162,22,2,229,0
1200173,23,2,229,0
1200185,24,2,231,0
1200195,25,2,230,0
1200207,24,2,231,0
1200217,24,2,229,0
1200228,24,1,230,0
1200239,22,1,229,0
1200250,19,2,228,0
1200261,21,2,230,0
1200272,20,2,231,0
1200283,19,2,233,0
1200294,20,2,233,0
1200305,21,2,232,0
1200316,20,3,231,0
1200327,20,1,229,0
1200338,18,1,229,0
1200350,19,1,229,0
1200361,17,2,229,0
1200372,17,2,228,0
1200383,16,2,230,0
1200394,19,4,234,0
1200405,19,2,233,0
1200416,20,3,233,0
1200427,20,2,230,0
1200438,19,2,231,0
1200449,20,2,229,0
1200460,19,1,228,0
1200471,19,1,227,0
1200482,19,1,226,0
1200493,18,1,229,0
1200504,18,2,229,0
1200516,18,1,232,0
1200527,20,2,235,0
1200538,21,3,237,0
1200549,22,2,234,0
1200560,23,1,233,0
1200571,23,1,231,0
1200582,22,1,228,0
1200594,22,1,227,0
1200604,21,1,227,0
1200615,23,0,226,0
1200626,22,0,226,0
1200637,22,0,227,0
1200648,21,0,227,0
1200659,21,0,228,0
1200670,19,0,230,0
1200682,21,-1,231,0
1200693,21,-1,233,0
1200704,19,0,228,0
1200715,17,-3,227,0
1200726,15,-4,224,0
1200737,14,-7,224,0
1200748,12,-5,222,0
1200759,12,-4,223,0
1200770,12,-1,228,0
1200781,12,1,233,0
1200793,14,3,239,0
1200803,16,6,242,0
1200814,15,7,245,0
1200825,16,6,245,0
1200836,16,3,242,0
1200847,17,1,239,0
1200858,17,0,236,0
1200869,16,-2,227,0
1200880,17,-3,225,0
1200892,15,-3,220,0
1200903,14,-2,219,0
1200913,11,-2,218,0
1200924,11,0,218,0
1200936,10,1,220,0
1200946,9,1,225,0
1200957,13,1,231,0
1200968,16,0,235,0
1200979,19,0,237,0
1200991,22,-1,237,0
1201001,24,-3,236,0
1201012,26,-3,237,0
1201023,27,-3,239,0
1201034,27,-9,239,0
1201045,25,-11,237,0
1201056,25,-11,234,0
1201067,23,-10,233,0
1201078,24,-11,232,0
1201089,22,-12,230,0
1201100,21,-12,230,0
1201111,19,-14,229,0
1201122,18,-14,230,0
1201133,17,-12,230,0
1201144,18,-15,230,0
1201155,18,-15,226,0
1201166,19,-13,228,0
1201177,17,-14,225,0
1201188,15,-14,226,0
1201199,15,-18,225,0
1201210,15,-19,228,0
1201221,13,-16,229,0
1201232,11,-17,229,0
1201243,10,-16,228,0
1201254,10,-16,229,0
1201265,11,-16,232,0
1201276,11,-19,233,0
1201287,12,-23,232,0
1201298,12,-25,234,0
1201309,11,-25,235,0
1201320,10,-26,234,0
1201331,9,-23,235,0
1201342,9,-23,238,0
1201353,11,-22,239,0
1201364,15,-28,237,0
1201375,16,-25,237,0
1201386,16,-27,233,0
1201397,17,-29,227,0
1201408,21,-26,226,0
1201419,20,-25,225,0
1201430,22,-25,229,0
1201441,21,-27,229,0
1201452,23,-26,227,0
1201463,23,-24,228,0
1201474,23,-22,231,0
1201485,23,-19,232,0
1201498,21,-19,232,0
1201508,19,-18,230,0
1201519,24,-23,233,0
1201530,30,-20,232,0
1201541,35,-21,232,0
1201552,39,-25,230,0
1201564,42,-30,230,0
1201575,42,-27,222,0
1201586,41,-23,218,0
1201597,42,-21,215,0
1201608,40,-21,212,0
1201619,40,-22,214,0
1201630,40,-16,214,0
1201641,41,-12,212,0
1201653,40,-4,213,0
1201664,43,-2,220,0
1201674,40,0,224,0
1201685,44,0,226,0
1201696,44,6,222,0
1201707,40,11,226,0
1201719,36,15,224,0
1201729,33,19,221,0
1201740,29,18,217,0
1201751,30,18,221,0
1201763,32,19,217,0
1201774,31,16,221,0
1201785,34,12,228,0
1201796,35,12,231,0
1201807,31,9,235,0
1201819,15,12,233,0
1201829,7,13,233,0
1201840,3,12,228,0
1201851,-3,12,228,0
1201862,-7,11,230,0
1201873,-15,14,229,0
1201884,-23,12,229,0
1201895,-26,10,232,0
1201906,-28,5,228,0
1201917,-28,2,225,0
1201928,-29,2,224,0
1201940,-27,2,223,0
1201950,-23,1,223,0
1201961,-20,4,224,0
1201972,-17,3,227,0
1201983,-5,1,227,0
1201994,0,2,228,0
1202005,2,4,229,0
1202016,4,4,229,0
1202028,6,3,228,0
1202038,3,2,226,0
1202049,2,2,224,0
1202060,2,1,222,0
1202071,1,2,223,0
1202082,1,1,227,0
1202093,2,-4,230,0
1202104,3,-5,220,0
1202115,6,-8,215,0
1202128,7,-10,218,0
1202138,13,-10,222,0
1202149,18,-3,228,0
1202160,19,7,233,0
1202171,17,14,240,0
1202182,11,23,251,0
1202193,6,30,255,0
1202204,-4,32,256,0
1202215,-14,30,251,0
1202227,-10,35,240,1
1202237,-11,36,251,0
1202248,-29,1,277,0
1202259,-36,3,283,0
1202270,-60,4,280,0
1202281,-72,-2,289,0
1202293,-52,41,308,0
1202303,-26,39,323,0
1202314,5,39,333,0
1202325,34,42,330,0
1202336,62,44,321,0
1202347,89,44,296,0
1202359,113,33,261,0
1202370,136,23,230,0
1202381,154,11,200,0
1202393,156,2,179,0
1202403,148,-16,157,0
1202414,134,-27,139,0
1202425,122,-19,130,0
1202436,105,-5,134,0
1202447,69,4,168,0
1202458,61,8,189,0
1202469,50,14,208,0
1202480,37,15,223,0
1202492,32,14,240,0
1202503,27,12,252,0
1202513,22,11,262,0
1202524,25,7,272,0
1202535,22,4,263,0
1202546,23,0,247,0
1202557,22,-1,235,0
1202568,26,-4,230,0
1202579,29,-3,222,0
1202591,34,-1,216,0
1202601,35,-3,204,0
1202612,44,-1,197,0
1202623,40,0,196,0
1202635,39,-1,200,0
1202645,34,-1,201,0
1202656,29,-3,202,0
1202667,28,-6,206,0
1202678,27,-6,205,0
1202690,20,-7,198,0
1202700,12,-9,193,0
1202711,5,-8,189,0
1202722,1,-9,189,0
1202733,-5,-9,189,0
1202744,-12,-9,191,0
1202755,-19,-9,191,0
1202766,-25,-9,196,0
1202777,-36,-7,208,0
1202788,-39,-9,220,0
1202799,-37,-11,225,0
1202810,-33,-11,227,0
1202821,-23,-5,238,0
1202832,-27,14,243,0
1202843,-36,11,254,0
1202854,-37,-4,265,0
1202865,-31,-18,271,0
1202876,-24,-22,276,0
1202888,-17,-22,272,1
1202898,-5,-28,282,0
1202909,40,-59,338,0
1202920,87,-25,404,0
1202931,73,17,396,0
1202942,86,-45,376,0
1202953,101,-15,393,0
1202964,69,-2,368,0
1202975,47,2,295,0
1202986,42,-9,225,0
1202997,18,-29,177,0
1203008,10,-35,158,0
1203019,25,-44,138,0
1203030,34,-40,134,0
1203041,42,-23,138,0
1203053,50,-16,151,0
1203063,55,-15,167,0
1203074,61,-20,172,0
1203085,61,-15,168,0
1203096,64,-14,178,0
1203107,106,-16,190,0
1203119,123,-18,196,0
1203130,130,-18,206,0
1203140,127,-15,215,0
1203151,111,-13,217,0
1203162,92,-9,214,0
1203173,69,-9,209,0
1203184,55,-7,205,0
1203195,36,-6,208,0
1203206,22,-5,208,0
1203217,14,-5,210,0
1203228,2,-7,207,0
1203239,0,-8,211,0
1203250,-6,-3,211,0
1203261,-9,-3,212,0
1203272,-12,-6,208,0
1203283,-8,-7,212,0
1203294,-5,-3,214,0
1203305,-1,-2,216,0
1203316,0,-1,220,0
1203328,1,0,227,0
1203338,2,4,230,0
1203349,3,4,233,0
1203360,5,5,233,0
1203371,8,7,232,0
1203382,8,5,229,0
1203393,5,7,228,0
1203404,10,8,229,0
1203416,12,7,227,0
1203426,12,4,223,0
1203437,11,-8,217,0
1203448,10,-15,212,0
1203459,11,-20,208,0
1203470,11,-12,206,0
1203481,7,-2,206,0
1203493,5,1,211,0
1203503,2,9,220,0
1203514,-7,13,227,0
1203525,-16,10,235,0
1203537,-29,11,240,1
1203547,-38,13,236,0
1203558,-22,14,217,0
1203569,-6,11,244,0
1203580,-9,-41,287,0
1203592,-1,-20,286,0
1203603,-7,-15,313,0
1203613,1,14,337,0
1203624,14,-6,351,0
1203635,38,-18,355,0
1203646,72,2,354,0
1203657,99,7,332,0
1203668,124,16,303,0
1203679,140,19,264,0
1203691,144,7,224,0
1203701,142,-2,186,0
1203712,135,-8,161,0
1203723,128,-7,149,0
1203734,112,-1,146,0
1203745,86,2,152,0
1203756,66,3,165,0
1203767,44,5,181,0
1203778,2,8,210,0
1203789,-13,15,229,0
1203800,-28,20,249,0
1203811,-19,12,263,0
1203822,-8,8,264,0
1203833,0,2,250,0
1203844,7,-3,232,0
1203855,12,-8,222,0
1203866,14,-7,212,0
1203878,19,-9,202,0
1203888,27,-9,199,0
1203899,31,-12,196,0
1203910,32,-17,200,0
1203921,37,-11,201,0
1203932,39,-9,206,0
1203943,34,-4,214,0
1203954,26,-7,218,0
1203965,20,-9,222,0
1203976,9,-13,229,0
1203987,2,-16,234,0
1203998,-2,-15,224,0
1204009,-10,-7,213,0
1204020,-13,-3,208,0
1204031,-22,-14,197,0
1204042,-25,-4,191,0
1204053,-23,-9,185,0
1204064,-22,-9,183,0
1204075,-21,-10,184,0
1204086,-22,-6,189,0
1204097,-22,-6,196,0
1204108,-24,17,225,0
1204119,-37,37,240,0
1204130,-48,35,252,0
1204141,-50,25,271,0
1204153,-43,17,278,1
1204163,-42,14,289,0
1204174,-38,3,286,0
1204185,-31,2,284,0
1204196,-17,-7,285,0
1204207,43,-44,347,0
1204219,85,-1,393,0
1204229,83,29,387,0
1204240,89,2,352,0
1204251,95,-15,323,0
1204262,107,-14,338,0
1204273,75,-6,264,0
1204284,52,-25,210,0
1204295,43,-40,172,0
1204306,49,-44,156,0
1204317,52,-38,142,0
1204329,50,-33,135,0
1204341,46,-24,150,0
1204351,42,-29,168,0
1204362,34,-24,184,0
1204373,24,-26,189,0
1204384,27,-23,195,0
1204396,40,-17,205,0
1204407,71,-23,218,0
1204418,80,-26,219,0
1204429,86,-23,217,0
1204440,77,-16,209,0
1204451,64,-17,198,0
1204462,45,-15,194,0
1204473,38,-2,203,0
1204484,32,2,208,0
1204495,27,3,213,0
1204506,16,7,215,0
1204517,12,4,214,0
1204528,8,0,215,0
1204539,0,-5,212,0
1204550,0,-2,210,0
1204561,0,-2,211,0
1204572,1,-3,211,0
1204583,-3,1,216,0
1204594,-3,2,216,0
1204605,-2,2,214,0
1204616,-3,1,215,0
1204628,-10,0,217,0
1204638,-17,1,221,0
1204649,-21,3,227,0
1204660,-23,6,229,0
1204671,-22,8,230,0
1204683,-18,8,224,0
1204694,-13,7,222,0
1204704,-6,9,218,0
1204715,0,9,215,0
1204726,6,8,212,0
1204737,17,1,216,0
1204748,21,-1,214,0
1204759,23,3,211,0
1204770,21,7,210,0
1204781,16,8,216,0
1204793,13,9,224,0
1204803,12,14,232,0
1204814,2,14,242,0
1204825,-7,9,248,0
1204836,-16,6,247,0
1204847,-30,12,249,0
1204858,-42,18,250,0
1204869,-55,24,246,0
1204882,-25,20,237,1
1204893,-55,-20,280,0
1204903,-49,-35,274,0
1204914,-44,-31,260,0
1204925,-44,-6,280,0
1204936,-44,-17,320,0
1204947,-29,-47,345,0
1204958,5,-47,346,0
1204969,55,-12,347,0
1204981,111,30,344,0
1204991,146,44,323,0
1205003,165,43,292,0
1205013,172,29,254,0
1205024,179,13,210,0
1205035,173,6,179,0
1205046,153,-6,163,0
1205057,101,-27,135,0
1205068,78,-19,146,0
1205079,56,-13,165,0
1205091,38,-7,186,0
1205101,11,-1,210,0
1205112,-11,-5,236,0
1205123,-20,-3,259,0
1205134,-20,-1,265,0
1205145,-14,1,268,0
1205156,-3,-2,257,0
1205167,2,-10,236,0
1205178,5,-14,217,0
1205191,8,-15,210,0
1205201,25,-11,197,0
1205212,30,-5,194,0
1205223,30,-6,194,0
1205234,32,-5,192,0
1205245,31,-1,195,0
1205256,26,1,199,0
1205267,22,0,209,0
1205278,12,0,211,0
1205289,6,-4,213,0
1205300,3,-1,223,0
1205311,-2,-3,221,0
1205322,-2,-7,224,0
1205333,-4,-4,225,0
1205344,-8,-3,223,0
1205355,-10,-6,216,0
1205366,-16,-10,207,0
1205378,-20,-5,204,0
1205388,-26,-9,209,0
1205400,-30,-9,219,0
1205410,-29,-1,225,0
1205421,-28,2,227,0
1205432,-23,-1,225,0
1205443,-14,1,222,0
1205454,-7,7,216,0
1205465,0,4,224,0
1205476,7,7,237,0
1205487,7,2,247,0
1205499,6,0,257,1
1205509,7,-1,264,0
1205520,35,9,279,0
1205531,63,76,331,0
1205542,78,66,339,0
1205553,106,69,336,0
1205564,118,113,387,0
1205575,86,101,405,0
1205586,60,73,319,0
1205597,41,27,195,0
1205608,49,9,152,0
1205619,59,-10,174,0
1205630,58,28,142,0
1205641,49,51,127,0
1205653,42,52,143,0
1205663,45,77,154,0
1205674,46,91,168,0
1205685,46,93,175,0
1205697,46,90,194,0
1205707,53,93,215,0
1205718,59,95,222,0
1205729,64,97,215,0
1205740,71,96,206,0
1205751,80,91,198,0
1205762,90,87,191,0
1205773,101,84,179,0
1205784,111,78,171,0
1205795,116,73,179,0
1205806,120,69,191,0
1205817,114,79,209,0
1205828,106,77,224,0
1205839,100,74,239,0
1205850,99,73,243,0
1205861,78,68,243,0
1205872,70,66,238,0
1205883,62,62,241,0
1205894,57,56,241,0
1205905,56,52,243,0
1205917,56,51,238,0
1205928,55,48,234,0
1205938,52,49,230,0
1205949,48,45,221,0
1205960,48,47,217,0
1205971,52,50,214,0
1205982,54,53,212,0
1205993,55,52,210,0
1206004,55,56,212,0
1206015,52,57,216,0
1206026,46,60,221,0
1206037,36,59,221,0
1206048,36,62,222,0
1206059,39,61,225,0
1206070,39,63,228,0
1206081,38,67,232,0
1206093,39,69,234,0
1206103,40,67,234,0
1206114,41,65,233,0
1206125,40,65,234,0
1206136,40,63,233,0
1206147,39,62,234,0
1206158,35,61,231,0
1206169,32,58,227,0
1206181,29,57,224,0
1206192,27,55,222,0
1206203,25,59,223,0
1206213,25,58,226,0
1206224,24,60,227,0
1206235,24,61,229,0
1206246,22,64,229,0
1206257,21,67,229,0
1206268,16,71,228,0
1206279,13,74,227,0
1206291,12,75,226,0
1206301,10,75,228,0
1206312,9,74,228,0
1206323,7,71,227,0
1206334,6,70,226,0
1206345,5,71,224,0
1206356,5,72,223,0
1206368,17,78,221,1
1206378,29,81,225,0
1206389,38,77,236,0
1206400,46,60,244,0
1206411,47,51,240,0
1206422,45,52,233,0
1206433,34,59,233,0
1206444,22,60,240,0
1206455,20,61,253,0
1206466,20,70,253,0
1206478,26,73,243,0
1206488,33,70,232,0
1206499,39,64,225,0
1206510,47,60,216,0
1206521,57,53,208,0
1206532,77,31,203,0
1206543,87,16,203,0
1206554,94,3,201,0
1206565,97,-7,202,0
1206576,94,-11,202,0
1206587,94,-16,206,0
1206598,91,-11,215,0
1206609,82,-16,217,0
1206620,67,-23,225,0
1206631,51,-22,241,0
1206642,41,-29,254,0
1206653,35,-26,263,0
1206664,30,-19,275,0
1206675,28,-11,283,0
1206686,30,-7,289,0
1206698,26,-6,278,0
1206709,36,-5,267,0
1206719,39,-9,248,0
1206731,43,-14,226,0
1206741,48,-12,213,0
1206753,48,-11,206,0
1206763,46,-14,197,0
1206774,44,-12,194,0
1206785,40,-10,197,0
1206796,36,-6,203,0
1206807,37,-2,210,0
1206818,40,3,218,0
1206829,40,4,218,0
1206840,36,5,219,0
1206851,35,4,226,0
1206862,22,-7,237,0
1206873,16,-1,245,0
1206884,7,0,251,0
1206895,3,10,254,0
1206906,-4,16,251,0
1206917,-14,11,235,0
1206928,-16,15,238,0
1206939,-15,16,233,0
1206950,-6,36,217,0
1206961,-12,36,194,0
1206972,-19,31,191,0
1206983,-18,29,197,0
1206994,-18,34,203,0
1207005,-26,35,207,0
1207016,-35,38,213,0
1207028,-33,33,224,0
1207038,-31,31,226,0
1207049,-29,26,223,0
1207060,-25,18,220,0
1207071,-23,14,216,0
1207082,-20,9,215,0
1207093,-16,4,217,0
1207104,-5,1,222,0
1207116,1,1,223,1
1207126,20,-5,236,0
1207137,67,-17,283,0
1207149,98,6,345,0
1207159,91,31,340,0
1207170,82,41,319,0
1207181,75,40,321,0
1207193,29,3,262,0
1207203,0,-18,216,0
1207214,-7,-29,196,0
1207225,-1,-32,196,0
1207236,3,-34,200,0
1207247,13,-45,196,0
1207258,21,-47,197,0
1207269,26,-37,202,0
1207281,23,-29,207,0
1207292,24,-22,216,0
1207303,26,-4,224,0
1207313,27,2,223,0
1207324,30,12,218,0
1207335,32,18,215,0
1207346,34,23,213,0
1207357,38,13,199,0
1207368,49,4,196,0
1207379,54,-3,194,0
1207391,48,-13,196,0
1207401,44,-21,200,0
1207412,40,-23,210,0
1207423,37,-16,219,0
1207434,28,-3,228,0
1207445,25,0,233,0
1207456,19,3,227,0
1207467,13,1,218,0
1207478,3,3,210,0
1207489,0,3,206,0
1207500,-2,3,205,0
1207511,-6,4,206,0
1207522,0,12,221,0
1207533,5,11,227,0
1207544,11,12,234,0
1207555,17,11,236,0
1207566,23,12,241,0
1207578,25,17,242,0
1207588,27,19,241,0
1207599,26,16,241,0
1207610,23,13,242,0
1207621,19,14,235,0
1207632,16,11,231,0
1207643,9,9,224,0
1207654,5,4,222,0
1207665,6,2,219,0
1207676,5,1,218,0
1207687,3,-2,219,0
1207698,5,0,217,0
1207709,5,0,223,0
1207720,7,0,227,0
1207731,10,5,232,0
1207742,11,14,236,0
1207753,11,19,241,0
1207764,11,18,242,0
1207775,10,14,242,0
1207786,7,11,241,0
1207797,3,6,239,0
1207808,1,1,239,0
1207819,0,-2,237,0
1207830,-6,-4,238,0
1207841,-6,-2,240,0
1207853,19,33,240,0
1207863,12,23,271,0
1207875,5,2,289,1
1207885,0,1,277,0
1207896,-14,2,266,0
1207907,-17,11,266,0
1207918,-13,31,266,0
1207929,-9,34,272,0
1207940,0,22,277,0
1207952,9,16,268,0
1207962,21,9,267,0
1207973,35,12,263,0
1207984,47,15,254,0
1207995,62,18,245,0
1208006,72,15,234,0
1208017,85,8,200,0
1208028,91,3,183,0
1208039,96,-1,166,0
1208050,98,-4,148,0
1208061,102,-12,135,0
1208072,102,-12,132,0
1208083,96,-11,141,0
1208094,87,-6,167,0
1208105,83,-4,191,0
1208116,79,2,209,0
1208128,70,15,226,0
1208138,53,17,251,0
1208149,45,21,275,0
1208160,31,25,299,0
1208171,17,29,312,0
1208182,3,14,298,0
1208193,0,13,286,0
1208204,-1,8,265,0
1208215,0,4,249,0
1208226,0,3,242,0
1208237,2,-1,238,0
1208248,7,-4,224,0
1208259,13,0,221,0
1208270,18,0,222,0
1208281,20,1,222,0
1208293,18,3,221,0
1208303,18,6,215,0
1208314,22,4,208,0
1208325,21,3,202,0
1208336,24,3,196,0
1208347,17,-1,199,0
1208358,8,0,197,0
1208369,2,-1,195,0
1208381,0,-6,195,0
1208392,0,-9,195,0
1208403,1,-7,195,0
1208413,0,-2,197,0
1208424,2,0,196,0
1208435,2,6,199,0
1208446,4,4,201,0
1208457,9,6,205,0
1208468,14,13,218,0
1208479,16,17,237,0
1208491,18,14,254,0
1208501,24,14,259,0
1208512,24,26,251,0
1208523,6,23,250,0
1208534,3,19,245,0
1208545,0,17,241,0
1208556,-6,14,234,0
1208567,-22,13,235,0
1208578,-34,12,233,0
1208589,-18,-3,245,0
1208600,40,-12,337,0
1208611,44,48,364,0
1208622,25,38,344,0
1208633,39,15,321,0
1208645,48,-9,303,0
1208655,84,-11,330,0
1208666,87,8,329,0
1208678,45,26,243,0
1208688,48,-110,231,0
1208699,38,-12,194,0
1208710,25,-50,176,0
1208722,19,-60,158,1
1208732,31,-40,162,0
1208743,41,-31,170,0
1208754,49,-17,182,0
1208765,52,-5,191,0
1208776,57,-5,194,0
1208787,63,-1,206,0
1208798,71,-1,221,0
1208809,74,-3,232,0
1208820,78,-16,229,0
1208831,78,-18,222,0
1208842,79,-24,218,0
1208853,58,-18,215,0
1208864,38,-24,214,0
1208875,27,-17,213,0
1208886,17,-9,214,0
1208897,11,-6,216,0
1208908,10,-1,219,0
1208919,5,1,224,0
1208930,4,2,231,0
1208941,5,0,230,0
1208953,7,0,228,0
1208963,11,1,227,0
1208974,15,0,224,0
1208985,17,3,221,0
1208996,20,2,219,0
1209007,23,-1,214,0
1209018,24,3,214,0
1209029,21,1,216,0
1209040,11,1,219,0
1209051,4,0,223,0
1209062,0,1,225,0
1209073,-1,1,226,0
1209084,2,1,226,0
1209095,3,2,225,0
1209106,8,0,227,0
1209117,13,-1,224,0
1209128,17,-4,219,0
1209139,22,-8,217,0
1209150,24,-8,214,0
1209162,25,-7,215,0
1209172,27,-4,215,0
1209183,30,1,221,0
1209194,28,2,223,0
1209205,26,0,226,0
1209216,21,3,227,0
1209228,18,5,227,0
1209238,13,9,226,0
1209249,8,10,226,0
1209260,2,14,224,0
1209271,0,15,221,0
1209282,-4,12,222,0
1209293,-4,14,223,0
1209304,-4,17,222,0
1209315,-6,17,226,0
1209326,-5,20,226,0
1209337,-7,21,227,0
1209348,-8,23,228,0
1209359,-8,23,230,0
1209370,-9,26,231,0
1209381,-7,27,231,0
1209393,-2,26,219,0
1209403,25,17,209,0
1209414,12,-8,255,0
1209425,14,-23,257,0
1209436,13,7,243,0
1209447,0,-2,239,0
1209458,0,4,264,0
1209469,-7,-2,285,0
1209481,-9,-22,282,0
1209492,-19,-6,286,0
1209503,0,38,316,0
1209513,40,53,318,0
1209525,74,60,307,1
1209535,99,59,290,0
1209546,105,51,269,0
1209557,95,37,240,0
1209568,82,21,210,0
1209579,72,6,190,0
1209591,66,-1,180,0
1209601,60,-12,177,0
1209612,53,-24,175,0
1209623,47,-33,172,0
1209634,40,-37,171,0
1209645,30,-34,172,0
1209656,24,-36,180,0
1209667,27,-29,199,0
1209678,29,-15,232,0
1209689,25,-6,245,0
1209700,20,1,258,0
1209711,9,14,274,0
1209722,-1,28,287,0
1209733,-16,21,288,0
1209744,-26,9,280,0
1209755,-27,5,266,0
1209766,-25,3,250,0
1209778,-19,1,229,0
1209788,-6,0,218,0
1209799,4,2,210,0
1209810,13,4,210,0
1209821,23,7,210,0
1209832,27,7,207,0
1209843,39,6,212,0
1209854,40,5,213,0
1209865,40,6,212,0
1209876,38,4,208,0
1209887,36,6,207,0
1209898,29,3,203,0
1209909,25,4,203,0
1209920,21,7,204,0
1209932,16,4,203,0
1209942,13,4,205,0
1209953,8,2,208,0
1209964,7,-6,208,0
1209975,8,-10,212,0
1209986,5,-7,212,0
1209997,1,-2,209,0
1210008,-6,1,224,0
1210019,-12,9,228,0
1210030,-18,11,232,0
1210041,-24,9,235,0
1210053,-22,8,241,0
1210063,-34,35,245,0
1210074,-47,29,252,0
1210085,-48,13,252,0
1210096,-45,10,246,0
1210107,-36,5,243,0
1210118,-24,1,242,0
1210129,-13,1,235,0
1210140,-11,0,234,0
1210151,-6,0,231,0
1210162,-8,0,232,0
1210173,8,-11,252,0
1210184,51,-14,328,0
1210195,74,21,369,0
1210206,63,39,344,0
1210217,64,-7,318,0
1210228,69,-29,285,0
1210239,78,-29,278,0
1210250,97,-17,304,0
1210261,88,0,317,0
1210272,56,-5,285,0
1210283,24,-13,237,0
1210294,1,-23,209,0
1210305,-19,-20,190,0
1210317,-27,-28,178,1
1210328,-16,-37,163,0
1210338,0,-33,175,0
1210350,19,-26,188,0
1210361,39,-13,203,0
1210372,62,-9,216,0
1210383,76,-1,221,0
1210394,82,4,221,0
1210405,86,7,218,0
1210417,85,8,218,0
1210428,78,5,213,0
1210438,66,4,210,0
1210449,56,1,212,0
1210460,50,0,219,0
1210471,45,-9,217,0
1210483,54,-15,213,0
1210493,63,-21,211,0
1210504,68,-23,212,0
1210515,72,-21,213,0
1210526,72,-21,216,0
1210537,69,-18,217,0
1210548,67,-12,222,0
1210559,63,-13,222,0
1210570,55,-9,225,0
1210581,46,-3,226,0
1210593,41,0,229,0
1210603,37,2,228,0
1210614,31,7,226,0
1210625,24,8,224,0
1210636,24,9,226,0
1210647,17,9,218,0
1210658,14,6,217,0
1210669,13,4,221,0
1210681,10,5,221,0
1210692,8,8,225,0
1210703,10,4,229,0
1210713,10,4,232,0
1210724,11,2,236,0
1210735,14,3,237,0
1210746,16,2,234,0
1210757,17,1,233,0
1210768,19,0,232,0
1210779,18,0,231,0
1210791,20,1,230,0
1210801,21,1,231,0
1210812,23,0,230,0
1210823,20,1,232,0
1210834,21,2,232,0
1210845,20,1,228,0
1210856,20,2,230,0
1210867,19,1,228,0
1210878,18,2,229,0
1210889,18,2,225,0
1210900,17,5,223,0
1210912,19,11,227,0
1210922,17,15,231,0
1210933,14,20,238,0
1210944,9,23,239,0
1210955,3,19,238,0
1210966,-2,15,238,0
1210978,-8,14,236,0
1210988,-11,11,238,0
1210999,-9,10,239,0
1211010,-11,11,238,0
1211022,-12,8,233,1
1211032,-14,8,229,0
1211043,-13,8,225,0
1211054,-14,13,225,0
1211065,-10,18,231,0
1211076,-12,22,225,0
1211087,-16,17,220,0
1211098,-12,13,210,0
1211109,12,-9,204,0
1211120,4,-49,249,0
1211131,22,-52,237,0
1211142,1,-41,210,0
1211154,2,-52,223,0
1211164,-4,-51,234,0
1211175,-5,-38,230,0
1211186,1,-23,233,0
1211197,6,-1,249,0
1211208,12,23,270,0
1211219,29,34,286,0
1211230,49,37,293,0
1211241,71,39,292,0
1211253,76,37,283,0
1211263,77,29,270,0
1211274,77,16,251,0
1211285,80,2,229,0
1211296,77,-10,215,0
1211307,60,-28,202,0
1211318,52,-31,199,0
1211329,46,-31,201,0
1211340,45,-30,205,0
1211351,51,-28,211,0
1211362,59,-26,215,0
1211373,61,-25,218,0
1211384,62,-24,218,0
1211395,65,-25,219,0
1211406,65,-24,222,0
1211417,68,-21,225,0
1211428,63,-13,223,0
1211439,54,-5,222,0
1211450,43,-8,223,0
1211461,35,-13,233,0
1211472,17,-12,240,0
1211483,5,-7,240,0
1211494,-2,-8,244,0
1211505,-9,-13,246,0
1211516,-14,-12,240,0
1211528,-13,-8,238,0
1211538,-8,-3,233,0
1211549,0,3,223,0
1211560,10,7,215,0
1211571,23,6,207,0
1211582,35,4,207,0
1211593,44,2,208,0
1211604,51,2,209,0
1211615,55,-1,210,0
1211626,56,-8,209,0
1211637,59,-22,223,0
1211648,65,-26,233,0
1211659,71,-28,241,0
1211670,77,-28,243,0
1211681,78,-25,241,0
1211693,78,-22,238,0
1211703,76,-16,234,0
1211714,74,-10,231,0
1211725,68,-7,226,0
1211736,62,-1,222,0
1211747,54,2,218,0
1211758,42,6,218,0
1211769,34,11,218,0
1211781,29,12,222,0
1211792,25,9,223,0
1211803,19,2,227,0
1211813,19,0,232,0
1211824,23,-3,236,0
1211835,32,-6,238,0
1211846,40,-8,237,0
1211857,47,-9,236,0
1211868,52,-9,233,0
1211879,56,-6,230,0
1211891,59,-3,228,0
1211901,56,-1,227,0
1211912,53,-1,225,0
1211923,49,1,224,0
1211934,44,1,224,0
1211945,38,2,224,0
1211956,32,3,225,0
1211967,27,2,228,0
1211978,28,2,229,0
1211989,29,2,229,0
1212000,30,1,230,0
1212011,34,0,230,0
1212022,36,-1,230,0
1212034,39,-1,230,0
1212044,40,-2,232,0
1212056,41,-1,233,0
1212066,42,0,233,0
1212078,43,0,233,0
1212088,45,0,229,0
1212099,44,1,228,0
1212110,43,1,225,0
1212121,43,3,223,0
1212132,45,3,225,0
1212143,48,1,224,0
1212154,49,1,222,0
1212165,51,0,223,0
1212176,53,0,224,0
1212187,53,1,225,0
1212198,54,1,227,0
1212209,54,2,229,0
1212220,53,3,230,0
1212231,51,4,232,0
1212243,49,5,233,0
1212254,45,6,235,0
1212265,41,8,236,0
1212276,39,8,238,0
1212287,37,8,235,0
1212298,38,9,233,0
1212309,37,9,232,0
1212320,36,8,230,0
1212331,36,7,231,0
1212342,36,7,229,0
1212353,37,8,228,0
1212364,36,8,229,0
1212375,35,7,228,0
1212386,35,8,228,0
1212397,34,9,227,0
1212408,34,8,227,0
1212419,35,8,228,0
1212430,34,9,229,0
1212441,36,9,228,0
1212453,36,11,228,0
1212463,37,12,229,0
1212474,38,11,230,0
1212485,38,12,230,0
1212496,38,12,230,0
1212507,38,13,231,0
1212518,38,13,230,0
1212529,37,13,228,0
1212540,38,12,228,0
1212551,41,12,228,0
1212562,43,12,228,0
1212573,44,13,229,0
1212584,46,13,230,0
1212595,47,11,230,0
1212606,48,11,228,0
1212617,47,8,226,0
1212628,47,9,228,0
1212639,46,10,228,0
1212650,46,10,229,0
1212661,47,12,230,0
1212672,46,13,230,0
1212683,49,11,229,0
1212694,48,12,229,0
1212705,49,11,230,0
1212716,49,10,230,0
1212728,49,10,231,0
1212738,49,11,230,0
1212749,49,9,229,0
1212760,48,10,229,0
1212771,49,9,230,0
1212782,47,8,231,0
1212793,47,9,229,0
1212804,47,9,228,0
1212815,46,9,230,0
1212826,47,7,228,0
1212837,47,7,227,0
1212848,47,6,226,0
1212859,48,8,226,0
1212870,47,8,224,0
1212881,47,8,225,0
1212893,47,7,226,0
1212903,46,10,227,0
1212914,44,10,226,0
1212925,42,10,229,0
1212936,40,12,229,0
1212947,39,11,227,0
1212958,40,11,228,0
1212969,41,12,230,0
1212981,41,11,231,0
1212992,45,12,231,0
1213003,45,11,231,0
1213013,45,11,231,0
1213024,47,10,231,0
1213035,47,10,230,0
1213046,47,9,231,0
1213058,45,11,231,0
1213069,45,10,230,0
1213081,45,11,230,0
1213092,42,11,229,0
1213103,40,12,228,0
1213113,40,12,229,0
1213124,41,12,229,0
1213135,44,12,228,0
1213146,46,12,227,0
1213157,49,10,227,0
1213168,51,10,227,0
1213179,54,10,227,0
1213191,56,12,228,0
1213201,57,11,229,0
1213212,58,9,230,0
1213223,60,9,230,0
1213234,59,8,229,0
1213245,57,10,227,0
1213256,53,9,222,0
1213267,49,9,223,0
1213278,49,9,222,0
1213290,45,10,222,0
1213300,42,11,224,0
1213311,38,12,227,0
1213322,36,13,229,0
1213333,35,14,231,0
1213344,34,14,234,0
1213355,38,13,233,0
1213366,39,13,234,0
1213378,41,13,232,0
1213388,44,13,234,0
1213399,47,11,231,0
1213410,48,11,230,0
1213421,54,7,226,0
1213432,54,8,226,0
1213443,55,8,223,0
1213454,55,10,226,0
1213465,56,9,224,0
1213476,55,11,224,0
1213487,53,10,225,0
1213498,52,9,226,0
1213509,51,11,226,0
1213520,48,12,226,0
1213531,49,14,228,0
1213542,47,14,227,0
1213553,46,14,227,0
1213565,46,14,228,0
1213576,42,13,228,0
1213587,42,13,228,0
1213598,40,13,228,0
1213609,39,13,229,0
1213620,38,13,230,0
1213631,38,13,234,0
1213642,37,14,233,0
1213653,36,14,234,0
1213664,35,15,234,0
1213676,37,12,233,0
1213687,37,13,232,0
1213698,39,11,231,0
1213709,39,12,229,0
1213720,39,14,229,0
1213731,43,12,225,0
1213742,45,11,226,0
1213753,46,11,226,0
1213764,46,11,225,0
1213775,47,12,225,0
1213786,49,12,224,0
1213797,48,13,225,0
1213808,49,13,227,0
1213819,48,13,228,0
1213830,48,14,228,0
1213841,48,14,229,0
1213853,46,14,230,0
1213863,46,15,230,0
1213874,46,14,232,0
1213885,43,15,231,0
1213896,42,16,232,0
1213907,43,15,231,0
1213918,42,15,231,0
1213929,43,14,231,0
1213940,43,14,228,0
1213951,44,13,229,0
1213962,44,12,228,0
1213973,43,12,229,0
1213984,44,11,227,0
1213995,44,12,226,0
1214006,44,11,228,0
1214017,45,12,226,0
1214028,44,12,226,0
1214039,44,12,227,0
1214050,42,13,227,0
1214062,43,12,226,0
1214072,42,11,228,0
1214083,41,12,227,0
1214094,41,13,228,0
1214105,42,13,228,0
1214116,42,13,228,0
1214128,42,14,228,0
1214138,42,14,229,0
1214149,40,13,228,0
1214161,40,13,228,0
1214172,40,14,228,0
1214183,41,14,231,0
1214194,43,15,231,0
1214205,44,14,232,0
1214216,43,15,230,0
1214228,43,14,230,0
1214238,42,13,227,0
1214249,42,11,227,0
1214260,43,12,227,0
1214271,43,11,227,0
1214284,44,10,226,0
1214294,44,11,229,0
1214305,45,12,227,0
1214316,44,11,228,0
1214328,45,10,228,0
1214338,44,12,229,0
1214349,44,11,231,0
1214360,45,11,230,0
1214371,45,11,231,0
1214382,45,12,230,0
1214393,43,12,227,0
1214404,39,10,223,0
1214416,36,10,220,0
1214426,35,9,221,0
1214437,36,9,219,0
1214448,33,10,220,0
1214459,34,10,222,0
1214470,34,11,226,0
1214481,35,11,227,0
1214493,36,12,232,0
1214503,38,14,235,0
1214514,39,14,241,0
1214525,41,15,241,0
1214537,43,13,240,0
1214548,45,14,237,0
1214559,46,13,235,0
1214570,48,14,233,0
1214581,48,13,229,0
1214593,48,14,225,0
1214603,50,13,223,0
1214614,52,14,222,0
1214625,53,15,222,0
1214636,52,14,223,0
1214647,49,14,223,0
1214658,48,15,225,0
1214669,48,11,229,0
1214681,45,12,232,0
1214691,43,11,233,0
1214703,41,11,232,0
1214713,40,11,233,0
1214724,38,11,229,0
1214735,41,12,227,0
1214746,42,12,227,0
1214758,44,12,225,0
1214769,49,9,224,0
1214781,50,10,225,0
1214792,52,9,225,0
1214803,52,10,224,0
1214813,52,9,223,0
1214824,52,9,224,0
1214835,53,11,225,0
1214846,53,13,225,0
1214857,53,15,225,0
1214868,56,14,227,0
1214879,56,16,226,0
1214891,55,16,230,0
1214901,53,15,232,0
1214912,51,16,235,0
1214923,48,16,235,0
1214934,47,15,234,0
1214945,44,15,235,0
1214956,44,14,233,0
1214967,43,12,233,0
1214978,44,11,231,0
1214989,45,10,227,0
1215000,43,7,226,0
1215011,40,6,224,0
1215022,37,8,225,0
1215033,36,9,226,0
1215044,34,9,227,0
1215055,31,9,228,0
1215066,30,12,229,0
1215078,32,14,227,0
1215088,32,15,229,0
1215099,34,14,228,0
1215110,35,14,228,0
1215121,37,13,227,0
1215132,38,10,227,0
1215143,39,7,228,0
1215154,37,4,227,0
1215165,32,4,227,0
1215176,27,5,227,0
1215187,23,6,228,0
1215198,21,8,229,0
1215209,19,9,234,0
1215220,20,11,238,0
1215231,20,16,241,0
1215242,20,17,244,0
1215253,20,16,243,0
1215264,20,13,240,0
1215275,19,13,238,0
1215286,23,11,232,0
1215297,27,9,228,0
1215308,32,8,219,0
1215319,40,6,216,0
1215331,49,9,215,0
1215341,59,6,213,0
1215353,63,5,213,0
1215363,67,4,214,0
1215374,71,3,215,0
1215385,73,2,220,0
1215396,71,3,223,0
1215407,67,5,225,0
1215418,62,6,227,0
1215429,56,8,231,0
1215440,49,10,233,0
1215451,40,11,236,0
1215462,35,13,239,0
1215473,28,14,240,0
1215484,22,10,236,0
1215495,23,8,233,0
1215506,21,9,228,0
1215517,22,9,225,0
1215528,22,10,224,0
1215539,22,11,224,0
1215550,23,12,226,0
1215561,25,12,230,0
1215572,27,9,232,0
1215583,26,10,233,0
1215594,27,10,232,0
1215605,29,10,230,0
1215616,31,7,228,0
1215628,33,7,225,0
1215638,35,6,225,0
1215649,40,9,223,0
1215660,41,8,224,0
1215671,42,8,224,0
1215682,42,9,225,0
1215693,42,9,226,0
1215706,42,10,228,0
1215716,42,11,229,0
1215728,41,13,230,0
1215738,42,14,231,0
1215749,45,15,230,0
1215760,49,15,230,0
1215771,54,13,230,0
1215782,58,12,228,0
1215793,62,11,225,0
1215804,62,12,225,0
1215815,61,13,228,0
1215828,60,14,229,0
1215838,57,15,231,0
1215849,56,14,233,0
1215860,54,14,235,0
1215871,54,13,238,0
1215882,53,11,237,0
1215893,53,11,236,0
1215904,54,10,233,0
1215916,53,9,230,0
1215926,54,8,228,0
1215937,56,5,225,0
1215948,57,5,221,0
1215959,59,6,222,0
1215970,60,5,222,0
1215981,62,8,224,0
1215993,62,9,222,0
1216003,62,8,223,0
1216014,61,10,224,0
1216025,59,11,224,0
1216036,56,11,224,0
1216047,56,11,224,0
1216058,54,12,226,0
1216069,53,14,228,0
1216081,52,16,230,0
1216092,52,17,232,0
1216103,49,18,234,0
1216113,47,19,233,0
1216124,44,20,234,0
1216135,45,19,232,0
1216146,44,19,232,0
1216157,43,18,229,0
1216168,43,17,228,0
1216179,43,16,228,0
1216191,41,15,225,0
1216201,41,14,226,0
1216212,40,14,225,0
1216224,39,15,227,0
1216234,39,14,229,0
1216245,40,15,228,0
1216256,36,18,226,0
1216267,36,16,226,0
1216278,34,16,228,0
1216289,32,17,228,0
1216300,31,15,228,0
1216311,31,14,230,0
1216322,28,15,231,0
1216333,30,14,230,0
1216344,30,15,232,0
1216355,31,14,231,0
1216366,33,15,229,0
1216378,34,14,228,0
1216388,36,15,228,0
1216399,35,14,226,0
1216410,35,15,226,0
1216421,36,14,226,0
1216432,35,14,227,0
1216443,31,14,228,0
1216455,28,16,230,0
1216466,27,15,232,0
1216478,28,15,230,0
1216488,27,15,231,0
1216499,27,16,230,0
1216510,26,17,229,0
1216521,28,16,230,0
1216532,29,14,228,0
1216543,30,14,228,0
1216554,30,15,228,0
1216565,32,14,228,0
1216576,33,14,228,0
1216587,33,15,228,0
1216598,34,14,229,0
1216609,34,13,229,0
1216620,34,14,229,0
1216631,34,11,226,0
1216642,36,10,225,0
1216653,37,9,224,0
1216664,39,9,223,0
1216675,41,11,224,0
1216686,42,12,226,0
1216697,42,14,226,0
1216708,43,14,227,0
1216719,43,14,229,0
1216730,42,13,230,0
1216741,42,13,229,0
1216753,42,12,231,0
1216763,42,10,229,0
1216774,44,12,229,0
1216785,43,15,231,0
1216796,44,16,233,0
1216807,44,17,236,0
1216818,45,17,238,0
1216829,45,15,239,0
1216841,48,15,239,0
1216853,47,14,237,0
1216863,49,14,237,0
1216874,50,12,235,0
1216885,50,11,233,0
1216896,51,10,232,0
1216907,48,9,233,0
1216918,46,9,232,0
1216929,45,9,231,0
1216940,45,9,229,0
1216951,44,9,229,0
1216962,45,8,227,0
1216973,46,9,228,0
1216984,46,7,226,0
1216995,45,6,225,0
1217006,44,7,225,0
1217017,43,5,224,0
1217028,42,5,223,0
1217039,40,4,226,0
1217050,40,2,227,0
1217061,39,1,226,0
1217072,38,7,223,0
1217083,37,6,224,0
1217094,37,5,223,0
1217105,38,5,225,0
1217116,40,4,225,0
1217128,41,4,225,0
1217138,45,2,224,0
1217149,47,1,221,0
1217160,49,1,221,0
1217171,51,2,223,0
1217182,51,5,227,0
1217193,48,9,230,0
1217204,47,11,237,0
1217216,46,12,244,1
1217226,47,10,247,0
1217237,55,13,256,0
1217248,60,16,266,0
1217259,64,25,282,0
1217270,66,31,295,0
1217281,67,24,294,0
1217293,70,9,279,0
1217303,69,0,256,0
1217314,69,-7,230,0
1217325,66,-8,207,0
1217336,66,-17,197,0
1217347,70,-23,191,0
1217358,75,-23,187,0
1217369,76,-24,187,0
1217381,74,-15,190,0
1217392,74,-14,198,0
1217403,69,5,202,0
1217413,60,17,206,0
1217424,53,19,217,0
1217435,46,21,221,0
1217446,39,27,219,0
1217457,34,32,221,0
1217468,33,30,221,0
1217479,33,34,228,0
1217491,31,33,234,0
1217501,28,29,236,0
1217512,25,26,230,0
1217523,24,22,221,0
1217534,26,17,219,0
1217545,30,15,216,0
1217556,34,12,217,0
1217567,41,19,224,0
1217578,43,16,221,0
1217589,48,17,217,0
1217600,51,16,212,0
1217611,50,25,216,0
1217622,47,28,220,0
1217633,37,25,225,0
1217644,24,26,224,0
1217655,10,27,225,0
1217666,3,27,229,0
1217678,4,24,232,0
1217688,7,23,233,0
1217699,11,23,230,0
1217710,12,23,230,0
1217721,15,23,234,0
1217732,25,25,238,0
1217743,32,23,236,0
1217754,37,22,234,0
1217765,42,22,232,0
1217776,43,21,231,0
1217787,43,21,229,0
1217798,39,23,227,0
1217809,37,23,226,0
1217820,34,22,226,0
1217831,31,20,228,0
1217842,25,19,228,0
1217853,21,20,229,0
1217864,15,19,231,0
1217875,12,18,233,0
1217886,11,15,236,0
1217897,13,11,235,0
1217908,20,7,233,0
1217919,20,9,234,0
1217930,21,9,234,0
1217941,22,10,237,0
1217953,22,12,236,0
1217963,20,13,236,0
1217974,17,11,235,0
1217985,14,9,234,0
1217996,10,8,232,0
1218007,4,5,231,0
1218018,0,2,228,0
1218029,-1,3,224,0
1218040,-7,3,222,0
1218051,-8,4,220,0
1218062,-11,4,219,0
1218073,-12,4,222,0
1218084,-13,6,225,0
1218095,-11,12,227,0
1218106,-11,13,226,0
1218117,-13,16,223,0
1218128,-14,21,221,0
1218139,-17,22,220,0
1218150,-18,21,223,0
1218161,-20,22,223,0
1218172,-22,23,223,0
1218183,-24,26,223,0
1218194,-26,26,225,0
1218205,-26,23,226,0
1218216,-30,20,226,0
1218228,-29,19,226,0
1218239,-33,11,230,1
1218249,-34,4,226,0
1218260,-32,0,221,0
1218271,-32,1,221,0
1218282,-33,0,217,0
1218293,-32,0,215,0
1218304,-31,3,213,0
1218315,-30,6,217,0
1218326,-29,7,220,0
1218337,-26,8,222,0
1218348,-10,14,219,0
1218359,7,16,224,0
1218370,-4,-11,257,0
1218381,0,-20,249,0
1218393,-11,-14,237,0
1218403,-17,28,264,0
1218414,-13,28,287,0
1218425,3,15,296,0
1218436,13,9,297,0
1218447,24,7,300,0
1218458,34,11,296,0
1218469,47,15,288,0
1218481,55,20,277,0
1218492,60,24,266,0
1218503,60,30,255,0
1218513,49,31,245,0
1218524,35,27,233,0
1218535,20,17,218,0
1218546,12,2,208,0
1218557,9,-10,199,0
1218568,18,-1,205,0
1218579,30,6,218,0
1218591,40,18,221,0
1218601,48,22,219,0
1218612,59,22,215,0
1218623,66,25,203,0
1218634,71,31,197,0
1218645,71,37,193,0
1218656,70,36,197,0
1218667,68,27,209,0
1218678,74,20,223,0
1218689,81,15,233,0
1218700,91,12,242,0
1218712,89,13,245,0
1218722,84,21,253,0
1218733,67,0,255,0
1218744,69,2,254,0
1218755,66,1,243,0
1218766,63,0,240,0
1218778,60,-1,238,0
1218788,54,-1,235,0
1218799,52,-2,230,0
1218810,44,-2,226,0
1218821,42,-4,221,0
1218832,38,-1,210,0
1218843,39,0,208,0
1218854,31,1,203,0
1218865,22,-2,199,0
1218876,20,0,204,0
1218888,17,0,203,0
1218898,10,-5,203,0
1218909,8,-7,202,0
1218920,5,-9,202,0
1218931,1,-13,199,0
1218942,1,-17,200,0
1218953,0,-17,204,0
1218964,-1,-19,201,0
1218975,-8,-20,204,0
1218986,-14,-29,210,0
1218997,-8,-26,217,0
1219008,-10,-16,216,0
1219019,-16,-12,216,0
1219030,-18,-16,222,0
1219042,-16,-18,233,1
1219053,-12,-19,240,0
1219063,-11,10,249,0
1219074,-37,16,266,0
1219085,-38,-7,280,0
1219096,-23,-20,270,0
1219107,8,-33,270,0
1219118,63,-36,314,0
1219129,89,9,349,0
1219140,86,9,357,0
1219151,83,-8,361,0
1219162,81,-11,356,0
1219173,70,4,335,0
1219184,44,6,311,0
1219195,9,-34,237,0
1219206,-18,-38,197,0
1219217,-8,-31,187,0
1219228,6,-39,162,0
1219239,18,-40,155,0
1219250,34,-29,157,0
1219261,46,-18,170,0
1219272,59,-8,181,0
1219283,71,0,194,0
1219294,82,2,199,0
1219305,92,9,201,0
1219316,97,14,204,0
1219328,104,10,200,0
1219338,109,7,203,0
1219349,106,9,213,0
1219360,98,11,220,0
1219371,83,10,223,0
1219382,73,11,224,0
1219393,61,19,223,0
1219404,53,20,217,0
1219416,42,16,214,0
1219426,34,17,214,0
1219437,28,17,216,0
1219448,25,15,224,0
1219459,16,14,229,0
1219470,7,11,232,0
1219481,1,9,230,0
1219493,-2,7,229,0
1219503,-8,6,222,0
1219514,-10,3,222,0
1219525,-8,5,220,0
1219536,-7,5,219,0
1219547,-5,4,218,0
1219558,0,7,221,0
1219569,0,8,221,0
1219581,0,9,222,0
1219592,0,10,227,0
1219603,-1,12,224,0
1219613,0,9,223,0
1219624,0,9,223,0
1219635,1,11,223,0
1219646,1,8,223,0
1219657,2,4,219,0
1219668,2,6,220,0
1219679,4,3,219,0
1219691,5,2,221,0
1219701,2,0,223,0
1219712,0,-3,218,0
1219724,0,-3,215,1
1219734,0,3,220,0
1219745,2,8,223,0
1219756,2,15,229,0
1219767,2,13,230,0
1219778,-1,15,234,0
1219789,-6,13,231,0
1219800,-9,14,232,0
1219811,-15,16,237,0
1219822,-20,20,241,0
1219833,-14,27,234,0
1219844,-4,32,254,0
1219855,-15,-15,298,0
1219866,-27,-15,291,0
1219878,-36,3,265,0
1219888,-12,3,306,0
1219899,15,3,309,0
1219910,23,3,307,0
1219921,39,-2,307,0
1219932,64,5,302,0
1219943,88,18,287,0
1219954,107,16,262,0
1219965,120,4,235,0
1219976,128,1,202,0
1219987,128,-3,171,0
1219998,123,-8,155,0
1220009,115,-7,145,0
1220020,104,3,148,0
1220031,87,8,161,0
1220042,67,2,182,0
1220053,38,-3,221,0
1220064,20,-3,243,0
1220075,8,7,277,0
1220086,2,17,291,0
1220097,6,20,288,0
1220108,13,20,290,0
1220119,22,19,278,0
1220130,30,19,262,0
1220141,43,14,243,0
1220153,47,5,224,0
1220163,44,3,213,0
1220174,39,4,202,0
1220185,37,13,206,0
1220196,36,17,209,0
1220207,33,23,215,0
1220218,30,23,211,0
1220229,27,19,213,0
1220240,18,12,201,0
1220251,7,11,201,0
1220262,0,9,204,0
1220273,-14,8,211,0
1220284,-20,8,212,0
1220295,-26,8,205,0
1220306,-28,7,193,0
1220317,-28,6,184,0
1220328,-25,2,184,0
1220340,-18,-1,182,0
1220351,-13,0,184,0
1220362,-9,0,186,0
1220373,-8,5,204,0
1220384,-12,10,219,0
1220395,-16,15,228,0
1220406,-19,15,235,0
1220417,-21,15,241,0
1220428,-23,15,248,0
1220439,-30,22,256,0
1220450,-41,13,262,0
1220461,-43,4,266,0
1220472,-42,3,265,0
1220483,-35,1,263,0
1220494,-31,1,265,0
1220505,-28,2,273,0
1220516,-20,-4,285,0
1220528,-10,-5,299,0
1220538,-13,5,294,0
1220549,-20,2,285,0
1220561,-25,-4,266,1
1220571,-14,-25,256,0
1220582,90,-25,343,0
1220593,100,59,413,0
1220604,84,54,354,0
1220615,95,-13,325,0
1220626,109,-10,315,0
1220637,108,22,305,0
1220648,60,36,238,0
1220659,58,-52,239,0
1220670,69,-78,155,0
1220681,39,3,146,0
1220693,45,-52,130,0
1220703,54,-30,131,0
1220714,53,-13,144,0
1220726,48,-8,169,0
1220737,45,1,192,0
1220748,54,3,201,0
1220760,67,3,206,0
1220770,86,4,222,0
1220781,99,3,226,0
1220793,109,0,225,0
1220803,110,-3,218,0
1220814,107,-6,206,0
1220825,102,-7,196,0
1220836,91,1,197,0
1220847,77,0,196,0
1220858,57,-2,208,0
1220869,50,-3,213,0
1220881,45,6,219,0
1220892,38,11,220,0
1220903,33,10,216,0
1220913,29,5,212,0
1220924,27,8,215,0
1220935,20,3,214,0
1220946,16,2,213,0
1220957,13,2,216,0
1220968,9,2,214,0
1220979,9,1,216,0
1220991,8,3,215,0
1221001,11,4,221,0
1221012,10,7,224,0
1221023,12,1,227,0
1221034,16,0,228,0
1221045,10,0,221,0
1221056,13,-1,227,0
1221067,18,-2,226,0
1221078,17,-3,225,0
1221089,13,-1,219,0
1221100,12,0,216,0
1221111,10,5,214,0
1221122,7,8,214,0
1221133,4,11,210,0
1221144,0,13,209,0
1221155,1,13,213,0
1221167,-2,18,220,0
1221178,-13,16,227,0
1221188,-14,20,230,0
1221199,-15,14,233,0
1221210,-13,8,238,0
1221221,-15,4,247,0
1221232,-18,1,248,0
1221244,-20,1,247,1
1221254,-21,2,247,0
1221265,-7,11,239,0
1221276,8,24,244,0
1221287,-6,-17,269,0
1221298,-9,-32,254,0
1221309,-7,4,230,0
1221320,-15,24,241,0
1221331,-10,4,268,0
1221342,12,-13,271,0
1221354,38,10,278,0
1221365,66,14,299,0
1221377,89,27,311,1
1221387,113,36,308,0
1221398,127,39,301,0
1221409,128,30,277,0
1221420,123,21,245,0
1221432,112,11,212,0
1221443,94,3,178,0
1221454,78,-7,155,0
1221465,63,-7,147,0
1221476,50,-6,151,0
1221487,20,12,178,0
1221498,8,14,192,0
1221509,2,16,209,0
1221520,2,18,231,0
1221531,0,24,253,0
1221542,4,23,273,0
1221553,13,18,279,0
1221564,23,15,279,0
1221575,29,12,270,0
1221586,34,3,260,0
1221597,38,4,249,0
1221608,39,7,241,0
1221619,40,7,232,0
1221632,33,13,216,0
1221642,28,11,209,0
1221653,18,14,206,0
1221664,10,16,206,0
1221675,9,19,210,0
1221686,8,11,211,0
1221697,9,7,212,0
1221708,11,7,209,0
1221719,11,11,210,0
1221731,6,11,204,0
1221742,2,12,200,0
1221753,0,8,202,0
1221764,-1,10,207,0
1221775,-4,8,207,0
1221786,-6,15,206,0
1221797,-8,14,205,0
1221808,-11,23,209,0
1221819,-11,30,219,0
1221830,-10,35,230,0
1221841,-4,32,225,0
1221853,3,39,214,0
1221863,2,46,219,0
1221874,10,38,241,0
1221885,16,30,259,0
1221896,18,21,271,0
1221907,23,19,270,0
1221918,28,18,262,0
1221929,39,17,248,0
1221940,45,14,233,0
1221951,102,50,256,0
1221962,78,124,299,0
1221973,46,110,286,0
1221984,61,46,272,0
1221995,66,28,256,0
1222006,69,34,240,0
1222017,96,50,255,0
1222028,91,86,278,0
1222039,72,87,279,0
1222051,67,53,265,1
1222061,64,24,246,0
1222072,55,19,228,0
1222083,47,32,219,0
1222094,38,40,209,0
1222105,37,41,196,0
1222116,52,60,178,0
1222128,64,74,174,0
1222138,77,82,169,0
1222149,91,89,174,0
1222160,98,93,174,0
1222171,102,90,171,0
1222182,111,90,176,0
1222193,116,90,188,0
1222204,120,88,192,0
1222215,124,87,199,0
1222226,120,83,204,0
1222237,106,86,220,0
1222248,89,83,226,0
1222259,74,83,228,0
1222270,66,82,229,0
1222281,58,77,228,0
1222293,60,69,225,0
1222303,64,65,221,0
1222314,66,70,218,0
1222325,69,69,216,0
1222336,71,71,209,0
1222347,70,86,205,0
1222358,70,84,201,0
1222369,78,81,198,0
1222381,82,85,198,0
1222392,90,76,199,0
1222403,98,71,205,0
1222413,105,78,208,0
1222424,104,70,212,0
1222435,103,68,213,0
1222446,89,74,213,0
1222457,81,71,216,0
1222468,72,71,214,0
1222479,67,76,210,0
1222491,63,77,209,0
1222501,60,75,212,0
1222512,58,74,214,0
1222523,54,84,215,0
1222534,53,79,216,0
1222545,57,77,220,0
1222557,57,82,218,0
1222567,60,82,218,0
1222578,63,81,218,0
1222589,64,81,215,0
1222600,64,76,216,0
1222611,67,76,216,0
1222622,73,82,216,0
1222633,74,87,217,0
1222644,72,80,217,0
1222655,75,77,219,0
1222666,74,83,216,0
1222678,68,84,213,0
1222688,67,79,213,0
1222699,65,82,218,0
1222711,66,84,218,0
1222723,62,83,220,1
1222733,62,72,221,0
1222744,63,67,221,0
1222755,61,69,220,0
1222766,70,56,209,0
1222778,75,55,201,0
1222788,77,58,206,0
1222799,81,40,206,0
1222810,73,15,209,0
1222821,59,-8,218,0
1222832,49,4,234,0
1222843,39,26,238,0
1222854,38,36,236,0
1222866,45,30,230,0
1222876,51,16,221,0
1222887,52,10,216,0
1222898,52,5,217,0
1222909,49,4,218,0
1222920,39,2,217,0
1222931,30,-1,208,0
1222942,24,1,208,0
1222953,13,-2,220,0
1222964,4,-3,243,0
1222975,-1,-2,260,0
1222986,-1,-9,276,0
1222997,3,-12,292,0
1223008,10,-14,305,0
1223019,20,-19,309,0
1223030,31,-20,298,0
1223041,38,-26,281,0
1223053,42,-32,260,0
1223063,44,-32,243,0
1223074,48,-26,226,0
1223085,48,-20,214,0
1223096,38,-8,194,0
1223107,37,-5,192,0
1223118,38,-9,190,0
1223129,38,-9,185,0
1223140,38,-10,185,0
1223151,33,-7,190,0
1223162,27,-10,193,0
1223173,22,-13,197,0
1223184,17,-9,202,0
1223195,18,1,214,0
1223206,18,6,223,0
1223217,20,11,228,0
1223228,20,15,237,0
1223239,18,13,240,0
1223250,17,10,243,0
1223261,13,7,246,0
1223272,10,8,245,0
1223283,9,8,242,0
1223294,6,10,238,0
1223305,6,10,237,0
1223316,5,14,233,0
1223328,5,13,231,0
1223338,3,15,229,0
1223349,2,13,229,0
1223360,0,11,225,0
1223371,-1,9,224,0
1223382,-3,8,226,0
1223393,-4,4,224,0
1223404,-4,1,221,0
1223416,-8,1,221,0
1223426,-11,-1,223,0
1223437,-13,-1,225,0
1223448,-16,-7,232,0
1223459,-12,-12,238,0
1223470,-12,-6,241,0
1223481,-15,0,240,0
1223493,-22,0,245,0
1223503,-26,-5,253,0
1223515,-26,-9,263,1
1223525,-31,-3,260,0
1223536,-36,1,255,0
1223547,-43,3,252,0
1223558,-44,-1,248,0
1223569,-36,-9,250,0
1223581,8,-5,294,0
1223592,-11,9,284,0
1223603,-10,-9,263,0
1223613,14,-23,276,0
1223624,44,-5,293,0
1223635,63,0,287,0
1223646,55,54,261,0
1223657,28,-129,271,0
1223668,60,28,251,0
1223679,17,-6,211,0
1223691,21,1,203,0
1223701,38,-5,194,0
1223712,47,-6,182,0
1223723,55,-5,170,0
1223734,58,-8,158,0
1223745,61,-11,156,0
1223756,73,-16,177,0
1223767,75,-14,193,0
1223778,82,-15,209,0
1223789,83,-20,215,0
1223800,86,-22,213,0
1223811,81,-26,215,0
1223822,75,-29,217,0
1223833,69,-25,224,0
1223844,66,-22,225,0
1223855,53,-23,224,0
1223866,42,-26,226,0
1223878,31,-28,225,0
1223889,27,-23,222,0
1223900,22,-15,226,0
1223911,22,-10,227,0
1223922,18,-4,229,0
1223933,15,-7,224,0
1223944,12,-7,219,0
1223955,7,-3,212,0
1223966,4,-3,211,0
1223978,4,-2,212,0
1223988,3,0,215,0
1223999,9,-1,216,0
1224010,10,-2,219,0
1224021,11,-4,224,0
1224032,3,-7,229,0
1224043,-1,-5,232,0
1224054,-6,-1,237,0
1224065,-3,-3,236,0
1224076,-2,-5,231,0
1224087,-1,-7,227,0
1224098,-1,-9,225,0
1224109,1,-15,223,0
1224120,4,-12,221,0
1224131,9,-12,221,0
1224142,13,-10,221,0
1224153,16,-9,220,0
1224164,20,-5,221,0
1224175,23,1,224,0
1224186,25,3,226,0
1224197,23,11,224,0
1224208,19,17,223,0
1224219,14,15,220,0
1224230,3,13,218,0
1224241,-1,13,221,0
1224253,-8,9,225,0
1224263,-11,7,230,0
1224274,-14,4,235,0
1224285,-19,3,238,0
1224296,-24,2,239,0
1224308,-27,4,234,1
1224318,-31,10,230,0
1224329,-10,21,221,0
1224341,-1,25,252,0
1224351,-10,-22,279,0
1224362,-3,-14,266,0
1224373,-21,-11,257,0
1224384,-25,-1,271,0
1224395,-5,7,305,0
1224406,-1,6,312,0
1224417,5,11,319,0
1224428,19,28,324,0
1224439,36,35,319,0
1224450,53,38,302,0
1224461,72,36,277,0
1224472,89,33,249,0
1224483,100,21,213,0
1224494,106,4,177,0
1224505,112,-6,149,0
1224516,109,-12,128,0
1224528,107,-16,120,0
1224538,97,-14,121,0
1224549,94,-4,142,0
1224560,73,21,195,0
1224571,60,32,227,0
1224582,39,34,258,0
1224593,28,35,285,0
1224605,20,33,291,0
1224616,15,29,281,0
1224628,5,16,261,0
1224638,1,10,259,0
1224649,-1,13,261,0
1224660,0,6,253,0
1224671,1,2,242,0
1224682,4,-1,229,0
1224693,13,0,220,0
1224705,23,0,219,0
1224716,26,1,214,0
1224728,25,6,211,0
1224738,26,6,212,0
1224749,26,5,209,0
1224760,24,3,207,0
1224771,21,4,209,0
1224782,19,5,212,0
1224793,17,6,213,0
1224804,15,6,215,0
1224815,14,6,213,0
1224826,9,4,205,0
1224837,7,2,196,0
1224848,5,1,193,0
1224859,0,-4,194,0
1224870,-3,-3,204,0
1224881,-3,1,213,0
1224893,2,-6,208,0
1224903,5,4,201,0
1224914,0,7,202,0
1224925,2,-2,219,0
1224936,1,0,227,0
1224947,-1,0,232,0
1224958,-8,1,238,0
1224969,-17,8,244,0
1224981,-23,5,246,0
1224991,-21,6,245,0
1225003,-19,2,247,0
1225014,-18,-2,250,1
1225024,-23,-3,252,0
1225035,34,-12,339,0
1225046,51,49,383,0
1225057,30,59,386,0
1225068,46,-15,365,0
1225081,58,-18,327,0
1225092,66,-1,364,0
1225103,48,16,350,0
1225113,31,4,297,0
1225124,16,-25,239,0
1225135,1,-20,208,0
1225146,-1,-32,175,0
1225157,7,-30,158,0
1225168,23,-33,146,0
1225181,46,-14,155,0
1225192,49,-8,167,0
1225203,52,-2,182,0
1225213,60,-2,190,0
1225224,71,-1,204,0
1225235,84,-12,210,0
1225246,93,-18,209,0
1225257,100,-24,210,0
1225268,97,-27,209,0
1225279,88,-23,213,0
1225291,78,-19,211,0
1225301,63,-13,204,0
1225312,46,-14,206,0
1225323,33,-8,209,0
1225334,22,0,217,0
1225345,25,1,221,0
1225356,26,4,224,0
1225368,22,3,226,0
1225378,17,4,222,0
1225389,15,1,223,0
1225400,9,3,218,0
1225411,8,1,216,0
1225422,9,1,212,0
1225433,6,1,210,0
1225444,6,1,212,0
1225455,3,3,216,0
1225466,2,4,222,0
1225478,0,7,228,0
1225488,-1,10,231,0
1225499,-4,12,238,0
1225510,-3,14,238,0
1225521,0,12,232,0
1225532,2,8,227,0
1225543,5,5,221,0
1225554,9,0,215,0
1225565,16,-3,215,0
1225576,20,-7,215,0
1225587,27,-14,213,0
1225598,31,-22,215,0
1225609,32,-24,213,0
1225620,32,-17,216,0
1225632,31,-9,216,1
1225642,27,0,218,0
1225653,22,10,221,0
1225664,9,15,226,0
1225675,6,18,227,0
1225686,1,15,226,0
1225697,0,17,224,0
1225708,2,22,218,0
1225719,13,17,228,0
1225730,2,-16,263,0
1225741,-1,-21,269,0
1225753,-18,-2,271,0
1225763,-39,1,291,0
1225774,-42,6,300,0
1225785,-32,21,297,0
1225796,-22,11,295,0
1225807,-4,6,293,0
1225818,19,17,292,0
1225829,64,25,281,0
1225840,87,34,280,0
1225851,100,35,266,0
1225862,107,26,245,0
1225873,110,9,214,0
1225884,110,-5,185,0
1225895,109,-20,161,0
1225906,100,-27,143,0
1225917,83,-31,135,0
1225928,66,-34,140,0
1225939,55,-31,160,0
1225950,47,-25,183,0
1225961,37,-14,201,0
1225972,24,-1,225,0
1225983,11,8,248,0
1225994,-9,20,285,0
1226005,-17,19,297,0
1226016,-17,14,293,0
1226028,-17,5,274,0
1226038,-19,0,263,0
1226049,-22,-2,252,0
1226060,-18,-5,242,0
1226071,-11,-7,232,0
1226082,-4,-7,221,0
1226093,0,-10,217,0
1226104,6,-12,216,0
1226115,15,-9,216,0
1226126,24,3,220,0
1226137,21,1,210,0
1226149,22,6,207,0
1226159,20,8,207,0
1226170,19,5,206,0
1226182,14,5,205,0
1226193,12,4,203,0
1226203,12,1,201,0
1226214,13,0,196,0
1226225,12,-2,189,0
1226236,13,0,191,0
1226248,16,2,195,0
1226259,15,4,195,0
1226270,10,11,197,0
1226282,2,17,207,0
1226293,0,24,215,0
1226303,-8,32,223,0
1226314,-8,33,232,0
1226325,-9,30,239,0
1226336,-11,24,242,0
1226347,-13,14,242,0
1226358,-15,8,243,0
1226369,-17,11,247,0
1226380,-20,12,245,0
1226392,-18,6,241,0
1226403,-15,7,236,0
1226413,-12,1,229,0
1226424,-8,1,230,0
1226435,-8,2,230,0
1226446,-9,0,230,0
1226457,-7,-1,232,0
1226469,-11,0,234,1
1226479,-15,1,237,0
1226491,-18,-1,237,0
1226501,-17,-1,242,0
1226512,20,5,264,0
1226523,46,35,335,0
1226534,60,31,362,0
1226545,107,23,369,0
1226556,136,50,364,0
1226567,179,36,366,0
1226578,195,39,389,0
1226589,144,24,325,0
1226600,73,6,235,0
1226611,35,-7,191,0
1226622,3,-20,168,0
1226633,-18,-31,174,0
1226644,-27,-26,189,0
1226655,-28,-20,201,0
1226666,-25,-14,212,0
1226678,-13,-1,218,0
1226688,3,12,222,0
1226699,29,19,213,0
1226710,59,21,203,0
1226721,78,27,194,0
1226732,93,31,189,0
1226743,101,29,189,0
1226754,107,31,197,0
1226765,107,30,206,0
1226776,106,28,210,0
1226787,105,25,212,0
1226798,93,21,208,0
1226809,87,20,209,0
1226820,84,18,209,0
1226831,80,20,208,0
1226842,78,28,208,0
1226853,80,30,204,0
1226864,81,37,206,0
1226875,82,41,207,0
1226886,83,40,211,0
1226897,83,44,218,0
1226908,78,46,224,0
1226919,69,42,220,0
1226930,65,37,213,0
1226941,63,39,213,0
1226953,57,42,214,0
1226963,51,43,217,0
1226974,42,44,229,0
1226985,41,44,232,0
1226996,40,42,230,0
1227007,42,41,224,0
1227018,46,40,222,0
1227029,50,44,221,0
1227040,51,44,221,0
1227051,56,45,224,0
1227062,60,43,226,0
1227073,63,42,225,0
1227084,63,39,224,0
1227095,65,40,224,0
1227107,66,38,221,0
1227117,65,40,220,0
1227128,65,39,219,0
1227139,65,42,222,0
1227150,64,42,223,0
1227161,64,42,223,0
1227172,64,44,226,0
1227183,63,41,222,0
1227194,62,39,222,0
1227205,63,39,223,0
1227216,61,38,222,0
1227228,59,38,222,0
1227238,60,38,223,0
1227249,60,39,224,0
1227260,58,40,226,0
1227271,58,42,228,0
1227282,59,45,225,0
1227293,57,46,224,0
1227304,57,44,221,0
1227315,58,44,221,0
1227326,61,47,222,0
1227337,61,46,223,0
1227348,61,41,224,0
1227359,61,41,224,0
1227370,61,43,225,0
1227382,58,47,223,0
1227393,56,46,223,0
1227403,55,42,226,0
1227414,57,40,224,0
1227425,60,38,223,0
1227436,60,40,224,0
1227447,59,40,222,0
1227458,57,37,228,0
1227469,55,35,228,0
1227480,56,38,225,0
1227492,53,41,223,0
1227503,52,38,222,0
1227513,48,38,221,0
1227524,53,43,222,0
1227535,56,43,222,0
1227546,54,44,223,0
1227558,55,41,226,0
1227569,58,37,224,0
1227580,61,38,225,0
1227592,63,38,225,0
1227603,64,39,226,0
1227613,65,23,227,0
1227624,67,17,220,0
1227635,68,21,210,0
1227646,68,26,210,0
1227657,66,31,218,0
1227668,63,37,221,0
1227679,60,34,225,0
1227691,59,35,226,0
1227701,55,32,224,0
1227712,54,29,222,0
1227723,51,30,224,0
1227734,49,32,224,0
1227745,48,33,226,0
1227756,50,33,229,0
1227767,51,34,225,0
1227778,55,33,222,0
1227789,58,33,223,0
1227800,62,32,221,0
1227811,62,31,225,0
1227822,63,34,226,0
1227833,59,34,226,0
1227844,56,33,227,0
1227856,53,31,227,0
1227867,53,29,228,0
1227878,49,33,225,0
1227889,47,33,225,0
1227900,45,32,226,0
1227912,44,32,225,0
1227922,43,31,227,0
1227933,42,30,227,0
1227944,43,34,226,0
1227955,42,34,228,0
1227966,43,34,226,0
1227978,41,35,227,0
1227988,41,34,227,0
1227999,42,34,226,0
1228010,42,34,227,0
1228021,45,32,227,0
1228032,46,32,226,0
1228043,47,32,224,0
1228054,50,31,223,0
1228065,51,31,223,0
1228076,52,30,223,0
1228087,53,31,227,0
1228098,49,31,225,0
1228109,50,31,225,0
1228120,49,30,228,0
1228131,48,27,226,0
1228142,48,27,225,0
1228154,50,28,223,0
1228165,50,29,223,0
1228176,49,30,223,0
1228187,47,32,226,0
1228198,46,35,229,0
1228209,45,34,230,0
1228220,44,35,230,0
1228231,44,36,230,0
1228242,47,31,226,0
1228253,48,29,225,0
1228264,50,30,226,0
1228275,49,28,226,0
1228286,49,28,227,0
1228297,48,31,227,0
1228308,46,32,226,0
1228319,45,30,224,0
1228330,43,30,226,0
1228341,42,30,227,0
1228353,41,31,228,0
1228364,41,31,228,0
1228375,40,29,228,0
1228386,41,29,228,0
1228397,39,29,227,0
1228408,38,30,226,0
1228419,37,30,226,0
1228430,36,28,227,0
1228441,36,28,227,0
1228453,37,27,229,0
1228463,37,27,227,0
1228474,38,23,228,0
1228485,37,24,229,0
1228496,37,24,227,0
1228507,38,24,228,0
1228518,37,25,230,0
1228529,36,24,229,0
1228540,35,25,228,0
1228551,34,24,227,0
1228562,32,25,227,0
1228573,33,26,227,0
1228584,35,26,230,0
1228595,34,25,229,0
1228606,35,24,227,0
1228618,35,23,227,0
1228628,35,23,226,0
1228639,37,24,227,0
1228650,37,23,226,0
1228661,36,24,226,0
1228672,36,24,228,0
1228683,37,24,227,0
1228694,37,25,228,0
1228705,37,25,229,0
1228716,38,26,228,0
1228728,36,25,228,0
1228738,37,26,229,0
1228749,36,23,229,0
1228760,37,23,228,0
1228771,39,23,228,0
1228782,40,23,229,0
1228793,41,24,229,0
1228804,41,24,229,0
1228815,43,23,229,0
1228826,44,23,229,0
1228837,46,23,230,0
1228848,44,23,228,0
1228859,45,23,228,0
1228870,43,23,227,0
1228882,41,22,227,0
1228893,41,20,228,0
1228903,40,20,229,0
1228914,40,20,230,0
1228925,40,20,229,0
1228936,39,20,228,0
1228947,40,20,230,0
1228958,38,19,231,0
1228969,35,21,229,0
1228980,33,19,230,0
1228991,33,19,228,0
1229003,30,21,226,0
1229013,29,19,226,0
1229024,27,20,228,0
1229035,25,22,230,0
1229046,23,22,231,0
1229057,19,21,232,0
1229068,18,19,229,0
1229079,17,20,229,0
1229091,17,18,230,0
1229101,16,19,228,0
1229112,17,18,228,0
1229123,15,18,229,0
1229134,12,18,230,0
1229145,13,20,231,0
1229156,13,19,232,0
1229167,15,20,230,0
1229178,15,21,229,0
1229189,17,20,229,0
1229200,20,20,226,0
1229211,20,17,228,0
1229222,18,19,228,0
1229233,18,18,228,0
1229244,17,19,229,0
1229255,16,19,231,0
1229266,16,19,234,0
1229278,15,18,230,0
1229288,15,19,231,0
1229299,14,22,230,0
1229310,14,23,230,0
1229321,15,23,229,0
1229332,12,21,229,0
1229343,11,19,229,0
1229354,9,20,228,0
1229365,10,20,229,0
1229376,11,20,229,0
1229387,13,22,228,0
1229398,11,24,230,0
1229409,11,25,231,0
1229420,11,24,230,0
1229431,11,24,228,0
1229442,12,23,228,0
1229453,12,23,228,0
1229464,12,22,227,0
1229475,14,23,228,0
1229486,12,23,230,0
1229497,15,22,228,0
1229508,16,24,227,0
1229519,17,23,225,0
1229530,17,24,224,0
1229541,16,23,225,0
1229553,10,21,223,0
1229563,7,24,223,0
1229574,3,24,226,0
1229585,2,25,226,0
1229596,1,25,228,0
1229607,1,27,226,0
1229618,1,29,224,0
1229629,3,32,224,0
1229640,6,33,221,0
1229651,9,36,221,0
1229662,19,36,218,0
1229673,29,36,221,0
1229684,36,28,228,0
1229696,34,19,232,1
1229706,28,15,227,0
1229717,27,37,239,0
1229728,24,39,253,0
1229739,16,37,265,0
1229750,9,39,277,0
1229761,14,47,284,0
1229772,26,56,285,0
1229783,40,59,283,0
1229794,45,48,272,0
1229805,47,43,258,0
1229816,43,34,244,0
1229828,39,32,238,1
1229838,30,21,228,0
1229849,20,13,217,0
1229860,13,5,210,0
1229871,9,1,200,0
1229882,12,-1,193,0
1229893,18,-1,193,0
1229904,26,0,195,0
1229916,32,3,197,0
1229926,41,4,198,0
1229937,53,3,205,0
1229948,65,2,214,0
1229959,78,0,221,0
1229970,87,2,223,0
1229981,90,3,230,0
1229993,84,3,243,0
1230003,76,7,257,0
1230014,68,7,272,0
1230025,61,5,274,0
1230036,51,7,272,0
1230047,31,2,248,0
1230058,30,4,239,0
1230069,23,14,235,0
1230080,17,10,220,0
1230092,15,14,213,0
1230103,12,22,219,0
1230113,14,21,222,0
1230124,14,25,231,0
1230135,15,28,237,0
1230146,11,26,234,0
1230157,11,26,230,0
1230168,13,23,225,0
1230179,13,24,221,0
1230191,16,22,221,0
1230201,14,24,221,0
1230212,14,23,218,0
1230223,9,26,221,0
1230234,7,30,223,0
1230245,1,32,222,0
1230256,0,34,221,0
1230267,1,35,223,0
1230278,1,35,224,0
1230289,1,37,224,0
1230300,1,39,223,0
1230311,0,39,226,0
1230322,1,29,225,0
1230333,9,42,228,0
1230345,6,43,231,0
1230355,7,39,233,0
1230366,9,40,236,0
1230378,22,31,256,0
1230388,41,12,254,0
1230399,52,27,230,0
1230411,30,48,228,1
1230421,19,15,227,0
1230432,19,16,230,0
1230443,14,17,218,0
1230454,6,22,205,0
1230465,-1,30,202,0
1230476,-7,31,215,0
1230487,-11,36,225,0
1230498,-19,38,232,0
1230509,-8,40,254,0
1230520,1,52,283,0
1230531,8,67,296,0
1230542,43,57,313,0
1230553,47,68,313,0
1230564,53,65,293,0
1230575,51,40,263,0
1230586,42,20,234,0
1230597,36,2,205,0
1230608,30,-20,190,0
1230619,30,-40,185,0
1230630,34,-45,177,0
1230641,42,-41,182,0
1230653,51,-29,188,0
1230663,64,-17,196,0
1230674,72,-14,203,0
1230685,74,-13,207,0
1230696,77,-12,212,0
1230707,70,0,227,0
1230718,67,-1,218,0
1230729,67,0,209,0
1230740,64,4,205,0
1230751,64,7,215,0
1230762,62,7,222,0
1230773,62,1,230,0
1230784,69,1,232,0
1230795,75,2,232,0
1230806,75,-1,226,0
1230817,68,-5,218,0
1230828,61,-7,216,0
1230839,52,-3,216,0
1230850,43,-1,224,0
1230861,37,-3,232,0
1230872,30,7,235,0
1230883,31,10,230,0
1230894,29,11,226,0
1230905,28,8,224,0
1230917,26,10,221,0
1230928,26,9,222,0
1230939,30,11,223,0
1230950,32,16,223,0
1230961,35,17,228,0
1230972,38,16,227,0
1230983,40,17,230,0
1230994,38,19,236,0
1231005,34,19,237,0
1231016,35,19,236,0
1231028,32,17,231,0
1231038,30,15,229,0
1231049,30,15,226,0
1231060,29,14,225,0
1231071,29,13,224,0
1231082,30,9,228,0
1231093,32,16,224,0
1231104,31,21,226,0
1231115,28,23,227,0
1231126,28,24,228,0
1231137,27,23,231,0
1231149,24,21,230,0
1231159,22,19,228,0
1231170,16,22,223,0
1231181,11,22,222,0
1231193,8,33,223,0
1231203,9,40,226,0
1231214,11,48,229,0
1231225,13,51,229,0
1231236,17,53,228,0
1231247,18,51,229,0
1231258,16,46,227,0
1231269,16,43,223,0
1231280,13,46,220,0
1231292,13,48,215,0
1231303,15,52,218,0
1231313,16,56,220,0
1231324,20,58,223,0
1231335,22,58,223,0
1231347,21,57,223,1
1231357,37,60,212,0
1231368,52,61,225,0
1231379,60,44,249,0
1231391,63,38,265,0
1231401,54,36,263,0
1231412,42,36,260,0
1231423,31,37,274,0
1231434,28,28,278,0
1231445,29,28,276,0
1231456,40,34,274,0
1231467,56,44,275,0
1231478,71,50,271,0
1231489,90,48,264,0
1231500,96,36,259,0
1231511,102,14,235,0
1231522,92,4,223,0
1231533,84,-4,203,0
1231544,77,-11,188,0
1231555,71,-18,180,0
1231566,68,-19,171,0
1231578,64,-16,166,0
1231588,60,-13,168,0
1231600,54,-14,172,0
1231610,53,-14,185,0
1231621,59,-16,196,0
1231632,72,-4,218,0
1231643,82,5,239,0
1231654,80,10,255,0
1231665,83,23,280,0
1231676,83,33,298,0
1231687,72,16,279,0
1231698,63,10,270,0
1231709,57,3,256,0
1231720,49,-4,239,0
1231731,37,-5,224,0
1231742,32,-6,219,0
1231753,25,-2,213,0
1231764,22,5,219,0
1231775,17,11,222,0
1231786,17,11,221,0
1231797,14,19,226,0
1231808,12,25,229,0
1231819,17,28,227,0
1231830,24,22,215,0
1231841,30,18,207,0
1231853,29,14,205,0
1231863,27,15,208,0
1231874,22,12,211,0
1231885,21,7,216,0
1231897,20,6,218,0
1231907,20,2,214,0
1231918,20,4,214,0
1231929,20,7,212,0
1231940,22,8,211,0
1231951,23,11,210,0
1231962,23,15,211,0
1231973,21,21,213,0
1231984,20,26,218,0
1231995,22,25,223,0
1232006,19,26,229,0
1232017,7,19,235,0
1232028,2,12,234,0
1232039,-2,6,228,0
1232052,-7,3,227,0
1232062,-9,7,226,0
1232073,-13,9,230,0
1232084,-11,5,234,0
1232095,-7,14,243,0
1232106,-9,21,250,0
1232117,-14,27,243,0
1232128,-23,36,245,0
1232139,-36,39,244,0
1232150,-45,41,247,0
1232162,-37,38,253,1
1232172,64,50,387,0
1232183,33,82,372,0
1232194,50,19,322,0
1232205,64,18,279,0
1232216,105,-9,307,0
1232228,113,-28,319,0
1232238,93,1,275,0
1232249,83,-13,242,0
1232260,51,9,184,0
1232271,45,-126,241,0
1232282,72,-29,169,0
1232293,54,-54,156,0
1232304,57,-45,134,0
1232315,49,-30,144,0
1232326,48,-22,155,0
1232337,49,-13,206,0
1232348,54,-11,224,0
1232359,66,-17,228,0
1232370,80,-24,225,0
1232381,90,-27,220,0
1232393,89,-25,216,0
1232403,85,-29,209,0
1232414,75,-32,198,0
1232425,66,-30,194,0
1232436,58,-26,193,0
1232447,51,-21,197,0
1232458,50,-17,204,0
1232469,51,-11,214,0
1232480,47,-7,219,0
1232492,44,-9,221,0
1232503,45,0,220,0
1232513,42,-2,216,0
1232524,36,-4,210,0
1232536,33,-4,208,0
1232546,28,-2,208,0
1232557,26,-1,210,0
1232568,23,-3,214,0
1232579,18,-1,220,0
1232591,11,1,227,0
1232601,7,4,233,0
1232612,2,4,240,0
1232623,1,4,241,0
1232634,2,2,238,0
1232645,5,0,233,0
1232656,6,0,231,0
1232667,13,-1,231,0
1232678,14,-1,228,0
1232689,20,-5,225,0
1232700,27,-9,224,0
1232711,27,-9,221,0
1232722,28,-13,215,0
1232733,26,-16,215,0
1232744,26,-13,214,0
1232755,24,-12,216,0
1232766,21,-8,219,0
1232778,19,-2,222,0
1232788,15,0,223,0
1232799,10,3,226,0
1232810,5,5,227,0
1232821,0,3,228,0
1232832,-7,-1,227,0
1232843,-13,0,228,0
1232854,-17,0,233,0
1232866,-18,0,241,1
1232876,-19,0,243,0
1232887,-12,1,236,0
1232898,15,16,221,0
1232909,18,3,256,0
1232920,6,-29,274,0
1232931,7,-3,260,0
1232942,-7,6,254,0
1232953,2,21,259,0
1232966,9,46,276,0
1232976,9,24,288,0
1232987,25,-13,280,0
1232998,38,-6,285,0
1233009,62,-4,290,0
1233020,85,-1,286,0
1233031,103,0,277,0
1233042,112,5,259,0
1233053,115,2,233,0
1233064,114,0,207,0
1233075,108,-8,184,0
1233086,105,-18,162,0
1233097,104,-25,151,0
1233108,98,-31,139,0
1233120,91,-32,140,0
1233131,74,-20,173,0
1233142,67,-16,192,0
1233153,53,-8,215,0
1233164,37,-4,232,0
1233175,27,4,247,0
1233186,23,24,260,0
1233197,12,34,271,0
1233208,1,41,294,0
1233219,-6,41,305,0
1233230,-14,35,295,0
1233241,-15,25,281,0
1233253,-12,19,269,0
1233263,-4,16,254,0
1233274,-1,10,237,0
1233285,5,5,222,0
1233296,20,1,202,0
1233307,22,3,202,0
1233318,25,7,201,0
1233329,28,7,203,0
1233340,25,11,206,0
1233351,19,11,208,0
1233362,11,12,212,0
1233373,8,11,213,0
1233384,6,7,212,0
1233395,5,5,212,0
1233406,3,4,213,0
1233417,0,-1,210,0
1233429,-3,-5,209,0
1233440,-5,-4,210,0
1233451,-5,-7,208,0
1233462,-4,-13,212,0
1233473,2,-15,203,0
1233484,7,-4,201,0
1233495,8,9,209,0
1233506,4,11,219,0
1233517,-3,10,221,0
1233528,-9,11,222,0
1233539,-13,14,226,0
1233550,-15,20,230,0
1233561,-16,24,239,0
1233572,-24,39,253,0
1233583,-33,31,254,0
1233594,-33,11,253,0
1233605,-27,3,254,0
1233616,-21,0,241,0
1233628,-26,-13,247,0
1233638,-12,-13,251,0
1233649,-17,-8,242,0
1233660,-31,-12,236,0
1233672,-40,-11,227,1
1233682,4,1,261,0
1233693,40,5,364,0
1233704,23,50,326,0
1233715,13,36,292,0
1233726,92,14,262,0
1233737,170,35,360,0
1233748,140,44,393,0
1233759,128,46,335,0
1233770,129,12,241,0
1233781,84,-15,191,0
1233793,53,-13,173,0
1233803,33,-24,163,0
1233814,21,-27,155,0
1233825,15,-22,157,0
1233836,15,-9,165,0
1233847,20,1,175,0
1233858,32,13,185,0
1233869,52,22,193,0
1233880,72,25,206,0
1233892,87,33,213,0
1233903,97,34,225,0
1233913,102,34,227,0
1233924,101,31,225,0
1233935,98,29,224,0
1233946,79,20,218,0
1233957,72,22,214,0
1233968,69,19,211,0
1233979,66,20,212,0
1233991,67,20,211,0
1234001,69,22,211,0
1234012,73,21,211,0
1234023,78,24,215,0
1234034,82,22,213,0
1234045,86,28,214,0
1234056,91,31,216,0
1234067,90,31,218,0
1234078,84,30,214,0
1234089,81,34,215,0
1234100,74,38,217,0
1234111,62,40,223,0
1234122,54,42,223,0
1234133,49,42,221,0
1234144,42,46,223,0
1234155,35,46,224,0
1234166,31,45,224,0
1234178,28,44,225,0
1234188,25,44,227,0
1234199,24,46,226,0
1234210,28,46,229,0
1234221,32,49,231,0
1234232,37,50,230,0
1234243,44,50,226,0
1234254,50,52,225,0
1234265,53,53,224,0
1234276,57,56,225,0
1234287,60,57,226,0
1234298,62,59,225,0
1234309,56,59,227,0
1234320,50,62,228,0
1234331,46,63,229,0
1234342,40,63,228,0
1234353,35,64,225,0
1234364,33,66,222,0
1234375,34,65,224,0
1234386,33,67,225,0
1234397,34,69,227,0
1234408,39,66,226,0
1234419,47,66,223,0
1234430,48,65,224,0
1234441,47,60,225,0
1234453,43,60,223,0
1234463,38,62,220,0
1234475,35,57,219,1
1234485,32,57,217,0
1234496,27,63,212,0
1234507,22,63,217,0
1234518,22,66,218,0
1234529,23,71,223,0
1234540,27,72,220,0
1234551,43,76,207,0
1234562,62,101,205,0
1234573,66,84,230,0
1234584,69,23,250,0
1234595,62,-8,260,0
1234606,59,38,280,0
1234617,78,51,269,0
1234628,93,34,241,0
1234639,106,10,209,0
1234650,116,-3,182,0
1234661,121,-14,158,0
1234672,118,-21,152,0
1234683,101,-21,158,0
1234694,80,-20,169,0
1234705,67,-12,186,0
1234716,51,-1,205,0
1234728,28,9,219,0
1234738,13,16,239,0
1234749,5,18,252,0
1234760,-3,16,266,0
1234771,-9,15,293,0
1234782,-7,19,298,0
1234793,1,19,293,0
1234804,14,21,276,0
1234815,24,21,257,0
1234826,33,19,239,0
1234837,33,18,227,0
1234848,32,21,219,0
1234859,33,25,216,0
1234870,34,29,214,0
1234881,36,31,212,0
1234893,39,30,210,0
1234903,44,30,211,0
1234914,48,32,214,0
1234925,51,35,224,0
1234936,44,37,229,0
1234947,36,31,229,0
1234958,29,28,235,0
1234969,16,24,236,0
1234980,6,27,236,0
1234992,0,32,237,0
1235003,0,37,237,0
1235013,0,42,235,0
1235024,5,45,235,0
1235035,10,52,236,0
1235046,17,54,238,0
1235057,24,59,240,0
1235068,32,58,237,0
1235079,37,58,231,0
1235091,38,55,225,0
1235101,37,41,214,0
1235112,35,32,211,0
1235123,31,22,212,0
1235134,25,14,216,0
1235145,27,15,220,0
1235156,25,16,223,0
1235167,24,22,229,0
1235178,21,27,234,0
1235189,24,24,232,0
1235200,24,33,227,0
1235211,17,42,218,0
1235222,16,43,212,0
1235233,10,53,212,0
1235244,8,52,212,0
1235255,5,56,220,0
1235267,-11,59,230,1
1235278,-17,60,236,0
1235288,-14,63,248,0
1235299,6,62,269,0
1235310,57,76,346,0
1235321,46,122,367,0
1235332,50,65,354,0
1235343,106,18,325,0
1235354,111,16,321,0
1235365,94,1,308,0
1235376,70,-21,255,0
1235387,60,-55,205,0
1235398,41,-67,176,0
1235409,27,-77,162,0
1235420,33,-71,157,0
1235431,52,-70,164,0
1235442,58,-62,175,0
1235453,58,-48,184,0
1235464,53,-33,188,0
1235475,53,-28,194,0
1235486,54,-19,201,0
1235497,59,-17,214,0
1235508,65,-12,222,0
1235519,67,-13,224,0
1235530,67,-15,223,0
1235541,67,-16,220,0
1235553,64,-19,217,0
1235563,63,-16,212,0
1235574,66,-16,214,0
1235585,66,-15,217,0
1235596,65,-17,217,0
1235607,57,-20,216,0
1235618,56,-18,215,0
1235629,53,-14,212,0
1235640,56,-11,214,0
1235651,60,-6,217,0
1235662,57,0,217,0
1235673,55,1,222,0
1235684,54,-1,220,0
1235695,54,0,215,0
1235706,56,0,209,0
1235717,52,0,209,0
1235728,44,0,210,0
1235739,34,0,214,0
1235750,30,3,222,0
1235761,20,3,230,0
1235772,12,4,237,0
1235783,16,2,237,0
1235794,18,2,234,0
1235805,24,-2,232,0
1235816,27,-5,227,0
1235828,29,-6,224,0
1235838,31,-8,221,0
1235850,32,-7,222,0
1235861,34,-6,222,0
1235872,35,-6,221,0
1235883,33,-1,218,0
1235894,29,0,216,0
1235905,24,4,221,0
1235917,13,9,226,0
1235928,9,7,231,0
1235938,4,6,230,0
1235949,-3,8,232,0
1235960,-11,4,231,0
1235971,-15,0,234,0
1235982,-11,1,236,0
1235993,6,15,234,0
1236005,13,15,263,1
1236015,13,-11,284,0
1236026,27,-8,274,0
1236037,36,15,270,0
1236048,33,19,287,0
1236059,25,-1,307,0
1236070,24,-20,315,0
1236081,27,0,316,0
1236093,45,9,300,0
1236103,63,13,273,0
1236114,74,17,246,0
1236125,81,14,217,0
1236137,85,7,193,0
1236149,90,2,170,0
1236159,92,0,151,0
1236170,94,-5,137,0
1236181,88,-2,126,0
1236193,83,1,131,0
1236203,80,4,151,0
1236214,74,9,179,0
1236225,72,22,209,0
1236236,54,29,264,0
1236247,38,19,286,0
1236258,36,16,300,0
1236269,31,17,302,0
1236280,22,8,287,0
1236292,16,1,275,0
1236303,12,5,268,0
1236313,12,5,260,0
1236324,9,1,242,0
1236335,12,0,226,0
1236346,19,0,215,0
1236357,19,0,204,0
1236368,29,4,203,0
1236379,33,11,207,0
1236391,31,14,201,0
1236401,30,16,197,0
1236412,27,16,195,0
1236423,27,14,196,0
1236434,26,12,191,0
1236445,20,4,186,0
1236456,14,2,186,0
1236467,7,5,190,0
1236478,1,6,195,0
1236489,-7,8,205,0
1236500,-15,7,210,0
1236511,-20,5,214,0
1236522,-22,7,222,0
1236533,-25,11,228,0
1236544,-26,18,228,0
1236556,-28,12,231,0
1236567,-22,8,226,0
1236578,-19,9,220,0
1236589,-9,7,225,0
1236600,-8,31,230,0
1236611,-17,20,234,0
1236622,-11,-6,238,0
1236633,-2,-17,244,0
1236644,8,-13,248,0
1236655,15,-3,251,0
1236666,18,-1,262,0
1236678,36,-4,284,0
1236688,76,17,339,0
1236699,84,81,353,0
1236711,72,14,338,0
1236722,75,-1,307,0
1236733,63,-9,270,0
1236744,67,-17,266,0
1236755,66,-11,277,0
1236766,49,-23,269,0
1236778,42,-27,233,0
1236788,34,-36,205,0
1236799,17,-41,200,0
1236811,15,-43,188,0
1236821,17,-40,175,0
1236832,27,-36,170,0
1236843,30,-19,171,0
1236854,36,-4,166,0
1236865,61,-1,181,0
1236877,73,0,192,1
1236887,83,6,202,0
1236898,89,7,211,0
1236909,88,4,213,0
1236920,85,3,212,0
1236931,80,11,210,0
1236942,76,17,206,0
1236953,71,27,206,0
1236964,67,30,210,0
1236975,64,25,216,0
1236986,63,23,224,0
1236997,68,21,237,0
1237009,67,24,251,0
1237021,64,28,254,1
1237031,63,26,256,0
1237042,59,26,258,0
1237053,60,22,255,0
1237064,59,18,250,0
1237075,56,16,246,0
1237086,52,15,241,0
1237097,49,15,236,0
1237108,50,17,233,0
1237119,50,19,227,0
1237130,50,20,222,0
1237141,47,23,219,0
1237153,45,27,215,0
1237163,42,30,212,0
1237174,35,32,208,0
1237185,31,36,210,0
1237196,30,37,208,0
1237207,31,38,209,0
1237218,31,39,210,0
1237229,33,41,210,0
1237240,35,45,212,0
1237251,38,46,216,0
1237262,41,46,214,0
1237273,47,44,214,0
1237284,51,44,216,0
1237295,51,43,214,0
1237306,53,42,216,0
1237317,56,42,218,0
1237328,57,39,217,0
1237339,47,31,213,0
1237350,43,31,214,0
1237361,39,32,215,0
1237372,32,32,215,0
1237384,26,29,214,0
1237395,23,31,218,0
1237406,16,32,222,0
1237417,11,31,222,0
1237428,6,36,224,0
1237439,7,34,223,0
1237450,9,34,220,0
1237461,12,39,218,0
1237472,11,45,217,0
1237483,15,48,218,0
1237495,30,50,234,1
1237506,44,40,246,0
1237517,59,31,256,0
1237528,69,36,263,0
1237539,67,28,266,0
1237550,57,5,269,0
1237561,49,-9,257,0
1237572,51,-2,246,0
1237583,59,1,255,0
1237594,72,-2,279,0
1237605,79,1,284,0
1237616,73,7,277,0
1237628,70,-1,254,0
1237638,91,-32,204,0
1237649,98,-40,193,0
1237660,99,-46,186,0
1237671,92,-43,175,0
1237683,83,-40,176,0
1237693,72,-28,192,0
1237704,52,-6,205,0
1237715,28,10,210,0
1237726,8,20,216,0
1237737,-18,29,236,0
1237748,-29,41,265,0
1237759,-37,48,291,0
1237770,-33,50,300,0
1237781,-16,50,295,0
1237793,5,46,286,0
1237804,50,33,268,0
1237814,69,37,258,0
1237825,78,33,251,0
1237836,82,31,246,0
1237847,82,29,233,0
1237858,84,27,225,0
1237869,78,24,217,0
1237880,71,21,205,0
1237892,61,20,197,0
1237903,49,22,195,0
1237913,37,22,193,0
1237924,26,22,195,0
1237935,21,24,202,0
1237946,14,23,212,0
1237957,6,28,223,0
1237968,1,36,233,0
1237979,2,34,236,0
1237991,0,32,242,0
1238001,10,26,236,0
1238012,14,24,230,0
1238023,22,22,226,0
1238034,26,27,222,0
1238045,27,27,213,0
1238056,38,36,214,0
1238067,44,34,218,0
1238078,47,31,206,0
1238089,48,39,181,0
1238100,42,38,168,0
1238111,45,24,193,0
1238123,37,21,193,0
1238134,37,27,191,0
1238145,34,30,195,0
1238156,34,30,203,0
1238167,41,26,217,0
1238178,51,28,229,0
1238191,55,21,247,0
1238201,57,19,252,0
1238212,47,10,248,0
1238223,39,12,238,0
1238234,39,20,236,0
1238245,50,34,254,0
1238256,51,42,258,0
1238267,45,19,247,0
1238278,92,-13,262,0
1238289,106,41,346,0
1238301,81,63,342,1
1238311,75,26,280,0
1238322,62,-7,232,0
1238333,45,-1,214,0
1238344,33,3,201,0
1238355,23,-1,189,0
1238366,24,-3,187,0
1238378,27,0,191,0
1238388,39,7,198,0
1238399,55,23,206,0
1238410,67,41,205,0
1238421,77,52,199,0
1238432,88,60,198,0
1238443,105,62,196,0
1238454,116,62,197,0
1238465,120,64,206,0
1238476,117,61,209,0
1238487,115,62,220,0
1238498,107,64,230,0
1238509,93,67,236,0
1238520,78,67,238,0
1238531,67,64,240,0
1238543,61,62,243,0
1238553,58,65,238,0
1238564,50,77,231,0
1238575,41,84,228,0
1238586,40,83,223,0
1238597,46,79,216,0
1238608,64,70,198,0
1238619,74,70,195,0
1238630,87,69,195,0
1238641,98,67,201,0
1238653,108,69,206,0
1238663,111,67,210,0
1238674,111,72,213,0
1238685,107,76,212,0
1238696,97,75,212,0
1238707,90,72,211,0
1238718,81,73,207,0
1238729,71,74,206,0
1238740,67,74,208,0
1238751,64,74,209,0
1238762,65,74,210,0
1238773,64,75,210,0
1238784,65,78,210,0
1238795,65,80,212,0
1238806,64,83,215,0
1238817,64,83,215,0
1238828,64,82,216,0
1238840,63,81,217,0
1238850,61,80,218,0
1238861,60,80,217,0
1238872,59,79,215,0
1238883,58,76,214,0
1238894,58,77,213,0
1238905,57,75,215,0
1238917,59,76,213,0
1238928,61,74,215,0
1238938,61,74,216,0
1238949,61,75,217,0
1238960,60,75,218,0
1238971,59,77,218,0
1238982,58,81,216,0
1238993,57,80,217,0
1239004,58,79,217,0
1239015,57,79,217,0
1239026,58,80,217,0
1239037,58,79,218,0
1239048,59,78,219,0
1239059,58,81,217,0
1239070,60,82,216,0
1239081,62,82,214,0
1239093,61,81,217,0
1239104,62,82,215,0
1239114,61,83,214,0
1239125,61,81,214,0
1239136,61,82,215,0
1239147,61,82,212,0
1239158,62,82,211,0
1239169,64,84,210,0
1239180,64,85,209,0
1239192,65,83,211,0
1239203,65,84,209,0
1239213,64,84,211,0
1239224,64,84,215,0
1239235,63,83,216,0
1239246,61,83,211,0
1239258,56,80,207,0
1239269,54,80,205,0
1239280,53,81,204,0
1239292,53,82,208,0
1239303,54,82,208,1
1239313,52,83,213,0
1239324,50,78,216,0
1239335,51,70,216,0
1239346,49,66,216,0
1239357,48,65,215,0
1239368,48,64,212,0
1239379,44,59,210,0
1239391,42,53,207,0
1239401,48,52,197,0
1239412,69,40,198,0
1239423,74,0,204,0
1239435,69,-30,199,1
1239445,53,-23,202,0
1239456,40,16,222,0
1239467,36,49,251,0
1239479,51,52,260,0
1239491,69,35,252,0
1239501,92,15,234,0
1239512,106,-1,218,0
1239523,108,-8,216,0
1239534,106,-7,211,0
1239545,97,6,222,0
1239556,80,21,253,0
1239567,40,20,320,0
1239578,27,14,325,0
1239589,23,11,316,0
1239600,23,11,301,0
1239611,28,2,284,0
1239622,34,-4,270,0
1239633,35,-9,256,0
1239644,39,-13,238,0
1239655,41,-12,220,0
1239666,43,-12,206,0
1239678,43,-16,194,0
1239688,40,-16,185,0
1239699,37,-15,176,0
1239710,31,-9,183,0
1239721,29,-7,191,0
1239732,18,-1,201,0
1239743,16,-2,205,0
1239754,12,-1,207,0
1239765,3,1,208,0
1239776,-2,4,212,0
1239787,-7,8,215,0
1239798,-9,9,219,0
1239809,-11,12,221,0
1239820,-13,17,229,0
1239831,-15,15,232,0
1239842,-19,18,232,0
1239853,-26,20,229,0
1239864,-30,23,226,0
1239875,-28,24,227,0
1239886,-25,26,227,0
1239897,-15,21,223,0
1239908,-10,21,224,0
1239919,-8,19,220,0
1239930,-5,17,222,0
1239941,-3,18,221,0
1239953,-5,21,225,0
1239963,-8,25,225,0
1239974,-8,25,229,0
1239985,-7,23,235,0
1239996,-6,24,235,0
1240007,-5,24,237,0
1240019,-5,23,241,1
1240030,-6,24,242,0
1240040,-3,21,241,0
1240051,-6,18,246,0
1240062,-8,9,258,0
1240073,43,-7,330,0
1240085,90,58,391,0
1240096,57,79,375,0
1240107,58,28,321,0
1240118,76,23,293,0
1240129,95,0,327,0
1240141,100,-5,323,0
1240153,87,-11,288,0
1240163,81,-42,245,0
1240174,51,16,188,0
1240186,50,-32,149,0
1240196,47,-78,132,0
1240207,42,-47,140,0
1240218,40,-36,146,0
1240229,36,-15,162,0
1240240,30,-15,179,0
1240251,36,-6,197,0
1240262,50,-6,204,0
1240273,67,-3,213,0
1240284,80,-2,216,0
1240295,92,-6,219,0
1240306,97,-8,218,0
1240317,92,-8,214,0
1240328,84,-12,206,0
1240340,64,-2,211,0
1240351,61,2,213,0
1240362,60,0,207,0
1240373,54,-1,205,0
1240384,51,1,210,0
1240395,46,3,214,0
1240406,39,1,216,0
1240417,33,1,217,0
1240428,28,2,216,0
1240439,25,5,217,0
1240450,21,1,215,0
1240461,19,1,215,0
1240472,20,5,213,0
1240483,23,4,213,0
1240494,27,4,215,0
1240505,29,3,217,0
1240516,31,7,223,0
1240528,26,10,227,0
1240538,25,12,228,0
1240549,23,15,230,0
1240560,24,16,229,0
1240571,25,17,228,0
1240582,24,15,228,0
1240593,27,15,226,0
1240604,29,8,222,0
1240615,29,3,221,0
1240626,32,-1,215,0
1240637,32,-8,216,0
1240648,32,-7,215,0
1240659,27,-6,219,0
1240670,24,-4,222,0
1240681,15,0,228,0
1240693,7,3,229,0
1240704,2,6,228,1
1240714,-4,10,226,0
1240725,-13,12,222,0
1240736,-20,14,221,0
1240747,-27,16,222,0
1240758,-27,21,225,0
1240769,-14,28,226,0
1240780,21,44,238,0
1240792,13,8,292,0
1240803,12,-23,296,0
1240813,-2,10,278,0
1240824,-17,14,278,0
1240835,-8,20,294,0
1240846,10,3,294,0
1240858,28,10,293,1
1240868,52,9,291,0
1240879,85,11,280,0
1240891,117,10,267,0
1240901,129,11,249,0
1240912,136,1,221,0
1240923,139,-6,194,0
1240934,134,-9,183,0
1240945,123,-6,170,0
1240956,115,-6,169,0
1240967,102,-3,183,0
1240978,85,1,185,0
1240989,63,3,191,0
1241000,44,12,220,0
1241011,12,7,269,0
1241022,1,17,286,0
1241033,1,25,289,0
1241044,2,22,279,0
1241055,11,16,259,0
1241066,30,13,244,0
1241078,38,6,224,0
1241088,42,1,211,0
1241099,41,-2,207,0
1241110,39,-1,203,0
1241121,45,-1,201,0
1241132,50,-4,197,0
1241143,55,0,194,0
1241154,54,4,199,0
1241165,58,12,204,0
1241176,63,9,213,0
1241187,60,4,209,0
1241198,52,3,210,0
1241209,37,3,213,0
1241220,21,5,214,0
1241231,8,13,215,0
1241242,-3,9,217,0
1241253,-18,4,210,0
1241264,-22,3,210,0
1241275,-26,-1,202,0
1241286,-28,-2,195,0
1241297,-29,-4,192,0
1241308,-27,-3,188,0
1241319,-21,1,190,0
1241330,-20,12,196,0
1241341,-26,9,222,0
1241353,-23,10,231,0
1241363,-20,9,231,0
1241374,-15,15,239,0
1241385,-18,30,255,0
1241396,-26,26,269,0
1241407,-32,10,272,0
1241418,-35,13,275,0
1241429,-32,19,271,0
1241440,-26,20,273,0
1241451,-11,2,282,0
1241463,49,-23,354,1
1241473,86,60,414,0
1241484,72,58,388,0
1241495,83,-22,360,0
1241506,72,-18,320,0
1241517,74,4,322,0
1241528,57,9,289,0
1241539,41,-16,247,0
1241550,36,-37,211,0
1241561,19,-16,157,0
1241572,14,-60,186,0
1241583,39,-84,141,0
1241594,46,-19,146,0
1241605,62,-40,146,0
1241616,56,-19,153,0
1241628,54,0,168,0
1241638,57,1,188,0
1241649,64,4,205,0
1241660,69,2,218,0
1241671,78,-6,220,0
1241682,91,-15,217,0
1241693,98,-19,211,0
1241704,103,-17,213,0
1241715,93,-16,203,0
1241726,81,-21,194,0
1241737,69,-12,194,0
1241748,62,-2,201,0
1241759,60,3,207,0
1241770,60,4,215,0
1241781,61,5,221,0
1241793,59,5,225,0
1241804,51,3,225,0
1241814,41,1,225,0
1241825,30,0,222,0
1241836,21,-1,211,0
1241847,16,-1,206,0
1241858,16,-2,205,0
1241869,9,0,207,0
1241880,10,1,216,0
1241892,8,5,225,0
1241903,3,5,229,0
1241913,1,2,237,0
1241924,-9,5,234,0
1241936,-9,2,232,0
1241947,-7,1,226,0
1241958,0,-1,222,0
1241969,2,-1,215,0
1241980,2,1,212,0
1241992,5,-3,210,0
1242003,9,-6,209,0
1242013,10,-6,207,0
1242024,10,-9,208,0
1242035,9,-9,211,0
1242046,6,-8,216,0
1242057,5,-5,220,0
1242068,1,-1,225,0
1242079,2,4,229,0
1242091,2,8,235,0
1242101,3,5,236,0
1242112,2,2,235,0
1242123,-1,-2,231,0
1242134,-6,-5,228,0
1242145,-11,-3,229,0
1242156,-20,-1,245,0
1242167,-25,2,250,0
1242179,-27,7,251,1
1242189,-5,15,243,0
1242200,9,7,272,0
1242211,2,-49,286,0
1242222,11,-31,267,0
1242233,-21,-29,263,0
1242244,-43,-24,268,0
1242255,-53,-6,290,0
1242266,-48,-19,302,0
1242278,-24,-7,309,0
1242288,11,13,312,0
1242299,54,41,310,0
1242311,86,60,298,1
1242321,149,59,257,0
1242332,163,42,223,0
1242343,172,21,185,0
1242354,160,4,150,0
1242365,143,-12,132,0
1242376,122,-21,135,0
1242387,103,-20,156,0
1242398,83,-15,186,0
1242409,60,-12,216,0
1242420,43,-9,232,0
1242431,19,3,244,0
1242442,-1,17,261,0
1242453,-6,21,277,0
1242465,-1,16,269,0
1242476,8,2,245,0
1242487,11,4,245,0
1242498,15,5,238,0
1242509,21,4,225,0
1242520,27,2,204,0
1242531,28,3,191,0
1242542,30,2,184,0
1242553,30,5,185,0
1242564,31,4,191,0
1242575,30,6,194,0
1242586,27,11,202,0
1242597,25,11,209,0
1242608,21,9,216,0
1242619,21,10,224,0
1242630,21,11,224,0
1242641,16,6,216,0
1242653,11,5,212,0
1242663,5,2,211,0
1242674,1,1,205,0
1242685,-3,-1,203,0
1242696,-2,-5,200,0
1242707,0,-4,196,0
1242718,1,-2,198,0
1242729,0,1,202,0
1242740,-1,6,215,0
1242751,-5,3,216,0
1242762,-6,5,215,0
1242773,-7,5,212,0
1242784,-8,6,216,0
1242795,-8,7,221,0
1242806,-12,1,232,0
1242817,-10,-1,240,0
1242828,-10,1,241,0
1242839,-18,6,243,0
1242850,-17,-1,248,0
1242861,-10,-10,254,0
1242872,-6,-6,257,0
1242883,-2,-2,261,0
1242895,0,-3,261,1
1242905,2,-4,269,0
1242916,18,-9,281,0
1242928,65,-15,316,0
1242938,107,18,385,0
1242949,98,60,383,0
1242960,95,16,333,0
1242971,112,-14,306,0
1242982,124,-6,317,0
1242993,108,3,310,0
1243004,73,-13,267,0
1243015,32,-22,223,0
1243026,-5,-30,199,0
1243038,-17,-39,187,1
1243048,-13,-47,168,0
1243059,-8,-54,155,0
1243071,-3,-49,146,0
1243082,3,-21,138,0
1243093,24,-12,220,0
1243104,56,-48,174,0
1243115,62,35,206,0
1243126,94,28,222,0
1243137,107,27,235,0
1243149,114,17,229,0
1243159,115,6,225,0
1243170,114,-4,218,0
1243181,108,-14,201,0
1243193,103,-12,194,0
1243204,97,-14,193,0
1243214,95,-15,191,0
1243225,89,-19,194,0
1243236,78,-14,196,0
1243247,68,-3,207,0
1243258,64,3,217,0
1243269,63,11,221,0
1243280,63,15,223,0
1243291,54,16,223,0
1243303,47,17,223,0
1243313,41,15,221,0
1243324,35,14,221,0
1243335,27,15,218,0
1243346,26,14,215,0
1243357,26,9,213,0
1243368,23,5,210,0
1243379,22,4,215,0
1243391,22,4,223,0
1243401,22,9,233,0
1243412,22,11,244,0
1243423,26,13,250,0
1243434,31,9,248,0
1243445,31,8,242,0
1243458,23,11,237,0
1243468,16,9,237,0
1243479,7,6,231,0
1243491,5,3,223,0
1243501,2,0,218,0
1243512,1,1,214,0
1243523,4,1,217,0
1243534,5,3,222,0
1243545,6,12,227,0
1243556,4,14,230,0
1243567,2,12,232,0
1243578,1,13,235,0
1243589,0,18,235,0
1243600,1,22,242,0
1243611,1,19,243,0
1243622,1,18,241,0
1243633,2,17,238,0
1243644,2,22,234,0
1243655,0,29,234,0
1243666,-4,34,232,0
1243678,-8,36,228,0
1243689,-9,31,222,1
1243699,12,-1,220,0
1243710,7,-49,254,0
1243721,25,-65,253,0
1243732,36,-48,232,0
1243743,23,-54,219,0
1243754,28,-53,212,0
1243765,32,-54,215,0
1243776,56,-21,225,0
1243787,64,8,234,0
1243798,71,30,242,0
1243809,79,40,253,0
1243820,94,39,257,0
1243831,105,33,256,0
1243842,103,32,255,0
1243854,87,24,239,1
1243864,70,12,212,0
1243875,58,-1,201,0
1243886,45,-20,200,0
1243897,40,-42,207,0
1243908,42,-38,222,0
1243919,33,-23,235,0
1243930,21,-14,245,0
1243941,-4,0,269,0
1243953,-8,-5,280,0
1243963,-4,-14,280,0
1243974,-1,-19,274,0
1243985,2,-23,264,0
1243996,10,-28,251,0
1244007,18,-33,236,0
1244018,28,-35,222,0
1244029,36,-34,215,0
1244040,41,-35,210,0
1244051,45,-33,209,0
1244062,44,-28,216,0
1244073,39,-25,222,0
1244084,35,-22,231,0
1244095,28,-15,239,0
1244106,19,-2,244,0
1244117,18,4,247,0
1244128,23,11,253,0
1244139,22,21,255,0
1244150,26,23,259,0
1244161,33,22,257,0
1244172,37,26,252,0
1244183,37,26,234,0
1244194,33,12,228,0
1244205,31,8,212,0
1244216,34,9,211,0
1244228,31,3,210,0
1244238,32,0,210,0
1244249,29,-5,208,0
1244260,23,-10,206,0
1244271,11,-24,206,0
1244282,3,-32,209,0
1244293,-7,-35,213,0
1244304,-15,-37,217,0
1244315,-21,-37,218,0
1244326,-28,-40,222,0
1244337,-34,-37,231,0
1244348,-43,-37,227,0
1244359,-48,-37,223,0
1244370,-52,-36,227,0
1244381,-50,-36,235,0
1244393,-48,-41,242,0
1244404,-45,-43,242,0
1244415,-36,-49,238,0
1244425,-30,-52,231,0
1244436,-14,-59,206,0
1244448,-7,-63,196,0
1244458,-1,-65,190,0
1244469,3,-66,186,0
1244480,8,-66,184,0
1244492,13,-66,186,0
1244503,16,-66,185,0
1244513,15,-63,189,0
1244524,14,-63,190,0
1244535,14,-63,193,0
1244546,14,-65,196,0
1244557,18,-61,197,0
1244568,18,-62,202,0
1244579,17,-60,207,0
1244591,19,-55,216,0
1244601,28,-40,242,0
1244613,39,-41,269,1
1244623,48,-16,308,0
1244634,48,7,334,0
1244645,44,-2,336,0
1244656,47,-40,326,0
1244667,60,-50,318,0
1244678,57,-27,329,0
1244689,52,-26,342,0
1244700,24,-29,338,0
1244711,4,-73,298,0
1244722,7,-96,239,0
1244733,8,-89,188,0
1244745,8,-80,157,1
1244755,11,-79,152,0
1244766,20,-48,172,0
1244778,34,-22,190,0
1244788,59,-11,194,0
1244799,78,-4,199,0
1244810,95,6,199,0
1244821,109,15,198,0
1244832,124,27,200,0
1244843,130,28,204,0
1244854,134,27,205,0
1244865,136,21,202,0
1244876,136,20,202,0
1244887,129,21,202,0
1244898,118,23,206,0
1244909,103,25,213,0
1244920,83,30,222,0
1244931,69,27,227,0
1244942,45,25,233,0
1244953,35,26,235,0
1244964,23,29,235,0
1244975,14,26,236,0
1244986,18,23,237,0
1244997,16,17,236,0
1245008,14,7,232,0
1245019,14,4,228,0
1245030,13,2,228,0
1245041,13,0,226,0
1245053,13,-2,225,0
1245063,19,-6,227,0
1245074,25,-6,226,0
1245085,26,-7,226,0
1245096,26,-8,225,0
1245107,31,-8,224,0
1245118,31,-7,223,0
1245129,29,-6,223,0
1245140,35,-3,227,0
1245151,38,-1,226,0
1245162,37,0,228,0
1245173,36,2,228,0
1245184,31,4,226,0
1245195,24,4,226,0
1245206,14,5,222,0
1245217,7,5,219,0
1245228,0,3,223,0
1245239,-4,4,221,0
1245250,-9,3,221,0
1245261,-11,3,222,0
1245272,-12,6,219,0
1245283,-8,8,220,0
1245294,-9,7,221,0
1245305,-10,7,222,0
1245316,-9,8,224,0
1245328,-10,5,225,0
1245338,-10,3,224,0
1245349,-11,3,226,0
1245360,-11,8,227,0
1245371,-14,7,233,0
1245382,-11,10,236,0
1245393,-9,10,241,0
1245405,-7,7,242,0
1245416,-3,5,241,0
1245426,0,8,240,0
1245437,-1,6,243,0
1245448,-6,5,244,0
1245459,-10,9,249,0
1245470,-16,8,249,0
1245481,-22,6,249,0
1245493,-27,5,251,0
1245504,-27,1,252,1
1245514,-29,1,251,0
1245525,-31,1,247,0
1245536,-34,1,241,0
1245547,-35,0,234,0
1245558,-38,2,233,0
1245569,-41,5,233,0
1245580,-28,12,225,0
1245592,8,30,226,0
1245603,37,-26,249,0
1245613,26,-20,226,0
1245624,1,-48,267,0
1245636,-6,-32,313,1
1245646,1,-13,320,0
1245657,27,4,318,0
1245668,75,27,305,0
1245679,117,53,306,0
1245691,151,54,287,0
1245701,181,65,278,0
1245712,190,68,251,0
1245723,184,52,202,0
1245734,185,35,175,0
1245746,175,23,160,0
1245756,152,20,151,0
1245767,82,18,150,0
1245778,50,17,159,0
1245789,21,16,182,0
1245800,-4,11,200,0
1245811,-21,12,225,0
1245822,-22,13,248,0
1245835,-20,9,247,0
1245845,-3,8,242,0
1245856,8,12,243,0
1245867,19,15,250,0
1245878,27,19,253,0
1245889,37,23,246,0
1245900,42,16,228,0
1245911,42,4,210,0
1245922,38,2,210,0
1245933,33,2,206,0
1245944,27,3,200,0
1245955,20,0,201,0
1245966,21,-2,202,0
1245978,24,0,211,0
1245988,21,-1,210,0
1245999,20,-1,214,0
1246010,18,1,210,0
1246021,15,0,206,0
1246032,11,0,202,0
1246043,2,-1,195,0
1246054,-5,-1,193,0
1246065,-12,1,195,0
1246076,-13,1,199,0
1246087,-15,1,204,0
1246098,-12,3,207,0
1246109,-7,9,216,0
1246120,-2,7,220,0
1246131,0,7,224,0
1246142,4,9,221,0
1246153,-1,13,226,0
1246164,-6,8,242,0
1246175,-6,3,257,0
1246186,-9,3,264,0
1246197,-16,7,256,0
1246209,-23,21,260,1
1246219,-28,28,263,0
1246230,-34,23,258,0
1246241,-28,17,267,0
1246253,69,83,407,0
1246263,35,87,389,0
1246274,55,4,354,0
1246285,58,11,295,0
1246296,65,6,286,0
1246307,80,-12,325,0
1246318,61,7,305,0
1246329,52,-2,257,0
1246341,46,-63,209,0
1246351,35,-52,182,0
1246362,38,-57,159,0
1246373,48,-45,149,0
1246384,53,-45,144,0
1246395,51,-30,147,0
1246406,46,-23,154,0
1246417,46,-8,182,0
1246428,56,-2,199,0
1246440,68,-3,213,0
1246451,82,-7,219,0
1246463,89,-9,224,0
1246473,90,-14,224,0
1246484,86,-16,218,0
1246495,80,-17,212,0
1246506,67,-11,209,0
1246517,56,-5,207,0
1246528,40,-1,205,0
1246539,33,0,210,0
1246550,27,3,212,0
1246561,25,9,222,0
1246572,27,4,220,0
1246584,20,0,216,0
1246594,19,-4,214,0
1246605,15,-5,210,0
1246616,14,-7,209,0
1246628,17,-4,206,0
1246638,18,-2,209,0
1246649,16,-2,213,0
1246660,14,-2,217,0
1246671,14,-2,218,0
1246682,9,1,222,0
1246693,7,3,229,0
1246705,6,8,231,0
1246715,5,12,229,0
1246726,-2,19,229,0
1246737,-3,20,229,0
1246748,0,20,225,0
1246759,4,16,224,0
1246770,9,8,220,0
1246781,13,1,216,0
1246793,16,-5,213,0
1246803,19,-12,211,0
1246814,23,-14,209,0
1246825,22,-8,209,0
1246836,23,-2,212,0
1246847,20,5,219,0
1246858,13,14,224,0
1246869,5,19,229,0
1246880,-2,21,230,0
1246892,-30,23,229,1
1246903,-39,20,226,0
1246913,-29,22,223,0
1246924,-15,14,252,0
1246935,-24,-27,285,0
1246946,-20,-17,279,0
1246957,-24,0,280,0
1246968,-19,3,287,0
1246979,-3,26,299,0
1246991,-2,12,301,0
1247001,8,-15,297,0
1247012,19,-12,297,0
1247023,35,0,301,0
1247034,63,6,302,0
1247046,93,12,287,1
1247056,132,17,247,0
1247069,138,9,213,0
1247079,139,-1,182,0
1247091,137,-16,155,0
1247101,132,-22,141,0
1247112,122,-24,137,0
1247123,105,-26,141,0
1247134,94,-20,159,0
1247145,85,-23,177,0
1247156,77,-16,192,0
1247167,65,-11,209,0
1247178,56,-6,229,0
1247189,46,5,252,0
1247200,30,12,269,0
1247211,17,13,283,0
1247222,15,17,274,0
1247235,10,14,261,0
1247245,7,12,249,0
1247256,8,7,236,0
1247267,11,6,228,0
1247278,11,2,230,0
1247289,17,1,225,0
1247300,26,1,223,0
1247311,34,-1,217,0
1247322,42,-3,214,0
1247333,46,-1,213,0
1247344,47,1,211,0
1247355,45,-2,213,0
1247366,41,-2,210,0
1247378,35,-3,206,0
1247389,28,-3,208,0
1247400,22,-4,207,0
1247411,12,-4,201,0
1247422,5,-4,200,0
1247433,0,-4,197,0
1247444,-3,-3,196,0
1247455,-7,0,195,0
1247466,-7,2,194,0
1247478,-6,2,195,0
1247488,-3,5,187,0
1247499,-1,8,188,0
1247510,0,13,219,0
1247521,3,12,225,0
1247532,3,14,234,0
1247543,4,14,238,0
1247554,4,11,238,0
1247565,3,12,239,0
1247576,0,14,244,0
1247587,-2,21,250,0
1247598,-13,33,256,0
1247610,-21,32,266,1
1247620,-30,30,270,0
1247631,-32,30,269,0
1247642,-29,30,273,0
1247653,-31,29,271,0
1247664,-23,22,274,0
1247675,84,15,417,0
1247686,92,66,412,0
1247697,104,24,354,0
1247708,115,-21,302,0
1247719,132,-14,303,0
1247730,105,10,297,0
1247741,81,0,264,0
1247753,67,-17,234,0
1247763,48,-29,207,0
1247774,37,-36,190,0
1247785,42,-51,171,0
1247796,50,-60,153,0
1247807,58,-62,137,0
1247818,60,-55,140,0
1247829,62,-43,150,0
1247840,72,-19,172,0
1247851,80,-9,185,0
1247862,85,-4,202,0
1247873,93,-7,216,0
1247884,101,-10,221,0
1247895,108,-16,220,0
1247906,116,-20,217,0
1247917,120,-23,212,0
1247928,121,-24,211,0
1247939,118,-24,206,0
1247950,115,-20,198,0
1247961,108,-15,198,0
1247972,97,-14,205,0
1247984,80,38,178,0
1247994,70,-168,265,0
1248005,81,-16,216,0
1248016,80,-7,215,0
1248028,78,3,219,0
1248038,72,-2,222,0
1248049,70,2,223,0
1248060,68,0,223,0
1248071,67,1,223,0
1248082,71,1,224,0
1248093,71,3,223,0
1248105,69,3,222,0
1248115,66,5,228,0
1248126,63,4,231,0
1248137,57,5,237,0
1248149,50,6,237,0
1248161,44,1,234,0
1248171,37,2,232,0
1248182,36,1,236,0
1248193,32,0,232,0
1248205,26,-1,227,0
1248215,23,-5,225,0
1248226,21,-3,224,0
1248237,17,-5,227,0
1248248,11,-2,231,0
1248259,9,-1,237,0
1248270,6,-1,239,0
1248281,8,-1,239,0
1248293,9,4,241,0
1248303,12,8,246,0
1248314,14,8,244,0
1248325,16,5,242,0
1248336,16,4,234,0
1248347,17,8,233,0
1248358,16,11,230,0
1248369,16,13,227,0
1248380,16,16,227,0
1248392,14,18,228,0
1248403,14,17,228,0
1248413,13,22,226,0
1248424,13,28,228,0
1248436,16,28,229,1
1248447,24,17,226,0
1248458,34,-21,234,0
1248469,48,-42,220,0
1248480,35,-17,207,0
1248492,17,-17,203,0
1248503,19,-20,206,0
1248513,12,-31,217,0
1248524,11,-45,222,0
1248535,22,-32,226,0
1248546,28,-16,235,0
1248557,36,-6,244,0
1248568,41,1,252,0
1248579,43,7,256,0
1248591,48,9,256,0
1248601,52,12,254,0
1248612,53,9,249,0
1248623,53,5,241,0
1248634,53,-8,223,0
1248645,52,-14,214,0
1248656,51,-17,207,0
1248667,49,-21,202,0
1248678,48,-24,201,0
1248689,50,-21,204,0
1248700,51,-15,207,0
1248711,46,-12,209,0
1248722,45,-11,212,0
1248733,44,-12,215,0
1248744,44,-9,217,0
1248755,48,-8,223,0
1248766,55,-11,227,0
1248778,62,-13,233,0
1248788,69,-10,232,0
1248799,75,-11,239,0
1248810,79,-9,245,0
1248821,82,-7,250,0
1248833,81,-11,250,0
1248844,79,-10,249,0
1248855,74,-8,246,0
1248866,68,-6,243,0
1248878,62,-6,238,0
1248888,57,-5,234,0
1248899,53,-9,233,0
1248911,47,-10,229,0
1248921,40,-13,228,0
1248932,37,-17,225,0
1248943,38,-20,223,0
1248954,30,-27,208,0
1248965,24,-21,202,0
1248976,22,-21,200,0
1248987,19,-25,198,0
1248998,18,-27,204,0
1249009,15,-21,209,0
1249020,14,-18,216,0
1249031,13,-19,226,0
1249042,10,-20,233,0
1249053,9,-19,236,0
1249064,11,-19,239,0
1249075,10,-19,233,0
1249086,8,-20,224,0
1249097,10,-22,219,0
1249108,13,-19,215,0
1249119,15,-19,210,0
1249130,16,-20,205,0
1249141,17,-18,205,0
1249153,19,-17,210,0
1249164,23,-22,214,1
1249174,31,-21,226,0
1249185,44,-20,248,0
1249196,53,-8,277,0
1249207,52,11,309,0
1249218,44,27,319,0
1249229,32,22,307,0
1249240,21,9,273,0
1249251,17,-4,241,0
1249262,16,-12,215,0
1249273,16,-16,202,0
1249284,13,-24,198,0
1249295,14,-24,203,0
1249307,15,-20,209,1
1249317,16,-14,216,0
1249328,17,-8,217,0
1249339,17,-3,220,0
1249350,16,-7,224,0
1249361,16,-14,227,0
1249372,23,-19,233,0
1249383,28,-22,243,0
1249394,30,-22,244,0
1249405,31,-19,241,0
1249417,34,-15,234,0
1249428,40,-13,231,0
1249438,46,-10,224,0
1249449,53,-2,218,0
1249460,56,-1,221,0
1249471,58,0,221,0
1249482,57,2,223,0
1249493,53,4,229,0
1249505,53,1,233,0
1249515,49,-1,233,0
1249526,46,-3,233,0
1249537,44,-5,233,0
1249548,42,-7,228,0
1249559,41,-6,227,0
1249570,39,-4,229,0
1249581,37,-2,229,0
1249593,37,-2,229,0
1249603,37,0,231,0
1249614,40,1,232,0
1249625,44,2,233,0
1249636,46,1,230,0
1249647,49,0,230,0
1249659,51,-1,228,0
1249670,51,-1,226,0
1249681,51,-2,226,0
1249693,51,-3,226,0
1249703,49,-2,227,0
1249714,46,-2,226,0
1249725,43,-1,227,0
1249736,41,-1,228,0
1249747,40,0,229,0
1249758,40,0,228,0
1249769,39,0,229,0
1249780,40,-1,228,0
1249792,41,0,229,0
1249803,43,-1,229,0
1249813,45,-1,229,0
1249824,45,0,229,0
1249835,46,0,228,0
1249846,47,0,228,0
1249857,46,-1,228,0
1249868,45,-2,228,0
1249879,45,-6,228,0
1249891,44,-6,227,0
1249901,42,-2,227,0
1249912,42,-4,229,0
1249923,41,-4,226,0
1249934,38,-2,226,0
1249945,37,-3,227,0
1249957,37,-2,228,0
1249967,38,-1,228,0
1249978,39,0,228,0
1249989,40,-2,228,0
1250000,40,-2,231,0
1250011,41,-1,228,0
1250022,40,0,229,0
1250033,40,-1,229,0
1250044,39,1,230,0
1250055,40,1,231,0
1250066,41,0,231,0
1250078,43,0,231,0
1250088,45,-3,227,0
1250099,48,1,231,0
1250110,43,2,229,0
1250121,44,-1,225,0
1250132,41,0,224,0
1250143,41,1,227,0
1250154,41,0,229,0
1250165,41,-1,229,0
1250176,43,1,229,0
1250187,44,1,225,0
1250198,43,2,228,0
1250209,39,2,228,0
1250220,40,3,229,0
1250231,38,5,232,0
1250242,37,2,229,0
1250253,37,4,232,0
1250264,38,2,232,0
1250275,39,1,231,0
1250286,39,-2,227,0
1250297,40,-2,225,0
1250308,42,-2,225,0
1250319,40,-1,224,0
1250330,40,-1,224,0
1250341,40,0,227,0
1250353,39,1,230,0
1250363,39,1,229,0
1250374,37,2,230,0
1250385,37,2,229,0
1250396,37,1,230,0
1250407,37,0,232,0
1250418,36,1,231,0
1250429,36,0,231,0
1250440,36,1,229,0
1250451,34,-1,229,0
1250462,35,0,227,0
1250473,36,0,227,0
1250484,40,1,228,0
1250495,37,2,229,0
1250506,36,3,231,0
1250517,34,2,230,0
1250528,37,2,229,0
1250539,37,0,228,0
1250550,35,1,227,0
1250561,37,-1,229,0
1250572,36,1,230,0
1250583,35,2,229,0
1250594,38,-2,225,0
1250605,39,1,227,0
