timestamp,accX,accY,accZ,step
186519,3,50,217,0
186530,8,49,214,0
186541,10,52,221,0
186552,9,56,225,0
186562,10,56,221,0
186573,13,61,229,0
186584,10,61,225,0
186595,10,61,228,0
186606,12,58,226,0
186617,11,58,226,0
186628,13,56,225,0
186638,13,55,220,0
186649,13,58,228,0
186659,14,57,229,0
186670,15,54,223,0
186681,15,55,223,0
186692,16,55,228,0
186703,18,53,221,0
186714,23,53,232,0
186725,12,61,234,0
186735,11,48,220,0
186745,11,48,220,0
186755,11,56,224,0
186765,10,59,226,0
186776,9,57,227,0
186786,7,56,228,0
186797,5,58,231,0
186808,5,57,230,0
186819,6,54,229,0
186830,8,54,227,0
186840,10,53,225,0
186851,15,54,225,0
186862,16,54,225,0
186873,20,53,228,0
186884,19,51,226,0
186895,20,49,226,0
186906,21,49,226,0
186917,21,48,229,0
186928,22,47,229,0
186939,22,47,230,0
186950,25,46,228,0
186961,26,49,224,0
186972,24,51,225,0
186983,24,52,226,0
186994,22,51,229,0
187005,22,51,232,0
187016,20,49,233,0
187027,17,48,233,0
187038,14,48,233,0
187049,10,48,231,0
187060,9,45,231,0
187071,10,46,229,0
187082,11,50,228,0
187093,10,51,227,0
187104,8,51,227,0
187115,6,49,228,0
187126,6,47,226,0
187137,5,49,225,0
187148,7,49,223,0
187159,7,52,223,0
187170,6,53,225,0
187181,7,52,226,0
187192,6,51,227,0
187203,6,49,228,0
187214,6,47,227,0
187225,8,49,224,0
187236,7,49,224,0
187247,8,46,220,0
187258,8,54,222,0
187269,8,60,234,0
187280,12,48,238,0
187291,12,49,232,0
187302,14,54,226,0
187313,15,54,218,0
187325,12,53,219,0
187336,12,49,221,0
187347,12,53,219,0
187358,17,54,222,0
187369,16,54,225,0
187380,20,50,224,0
187391,22,52,219,0
187402,25,48,222,0
187413,26,55,224,0
187424,27,55,224,0
187435,25,52,223,0
187446,22,52,221,0
187457,22,54,223,0
187468,23,54,222,0
187479,25,56,223,0
187490,25,57,224,0
187501,26,56,228,0
187512,26,56,228,0
187523,28,55,231,0
187534,32,55,233,0
187545,36,52,234,0
187556,33,55,231,0
187567,32,56,227,0
187578,26,58,221,0
187589,22,61,222,0
187600,16,64,221,0
187611,11,62,218,0
187622,7,63,219,0
187633,4,62,223,0
187644,3,64,226,0
187655,4,66,224,0
187666,5,64,222,0
187677,8,61,225,0
187688,11,63,230,0
187699,16,68,229,0
187710,20,70,226,0
187721,22,69,225,0
187732,30,69,238,0
187743,33,71,240,0
187754,32,72,233,0
187765,31,65,229,0
187776,27,64,227,0
187787,23,63,224,0
187798,16,61,223,0
187809,9,61,221,0
187820,4,59,222,0
187831,0,56,223,0
187842,0,56,222,0
187853,0,58,218,0
187864,1,59,216,0
187875,1,62,211,0
187886,1,62,214,0
187897,1,65,217,0
187908,-1,64,217,0
187919,-1,62,216,0
187930,0,60,216,0
187941,2,62,218,0
187952,7,64,222,0
187963,11,65,224,0
187974,15,65,225,0
187985,17,68,227,0
187996,21,65,226,0
188007,25,62,225,0
188018,29,61,228,0
188029,29,61,227,0
188040,22,65,227,0
188051,17,67,229,0
188062,15,67,232,0
188073,10,70,234,0
188084,8,71,237,0
188095,5,72,235,0
188106,5,70,231,0
188117,4,68,227,0
188128,3,66,223,0
188139,3,65,218,0
188150,0,67,217,0
188161,1,67,219,0
188172,1,70,219,0
188183,1,71,219,0
188194,-2,73,222,0
188205,-3,71,219,0
188216,-5,71,219,0
188227,-3,70,218,0
188238,-4,69,218,0
188249,-1,70,220,0
188260,-1,73,222,0
188271,0,75,222,0
188282,1,73,223,0
188293,2,73,221,0
188304,1,72,220,0
188315,-3,72,222,0
188326,-6,74,219,0
188337,-8,76,220,0
188348,-7,74,219,0
188359,-9,70,219,0
188370,-10,71,219,0
188381,-11,72,219,0
188392,-11,75,221,0
188403,-13,77,222,0
188414,-10,78,222,0
188425,-9,79,223,0
188436,-7,80,224,0
188447,-3,81,223,0
188458,-5,85,224,0
188469,-5,82,224,0
188480,-9,84,225,0
188491,-12,84,225,0
188503,-19,86,223,0
188514,-20,87,223,0
188525,-22,89,221,0
188536,-23,86,219,0
188547,-25,84,218,0
188558,-24,79,217,0
188569,-24,78,216,0
188580,-26,78,217,0
188591,-27,79,215,0
188602,-28,81,210,0
188613,-30,82,209,0
188624,-35,85,206,0
188635,-41,86,206,0
188646,-52,91,210,0
188657,-51,89,209,0
188668,-34,90,200,1
188679,-28,97,204,0
188690,-32,97,238,0
188701,-23,86,263,0
188712,-25,72,264,0
188723,-40,65,282,0
188734,-37,64,306,0
188745,-27,63,314,0
188756,0,66,306,0
188767,40,75,303,0
188778,84,82,298,0
188790,129,93,256,0
188801,137,83,226,0
188812,139,78,200,0
188823,134,67,188,0
188834,126,40,186,0
188845,118,25,191,0
188856,95,15,192,0
188867,64,23,208,0
188878,41,41,220,0
188889,17,64,233,0
188900,-2,79,237,0
188911,-14,90,242,0
188922,-13,97,247,0
188933,-5,97,253,0
188944,9,76,236,0
188955,5,72,227,0
188966,3,68,217,0
188977,3,64,208,0
188988,0,62,206,0
188999,0,62,213,0
189010,3,56,208,0
189021,11,51,200,0
189032,20,51,192,0
189043,28,52,189,0
189054,36,55,190,0
189065,41,58,191,0
189076,40,58,192,0
189087,30,57,195,0
189098,21,51,202,0
189109,6,47,192,0
189120,-5,47,184,0
189131,-14,44,179,0
189142,-23,43,181,0
189153,-30,47,187,0
189164,-36,47,193,0
189175,-40,44,195,0
189186,-41,48,192,0
189197,-42,57,192,0
189208,-46,62,192,0
189219,-48,64,196,0
189230,-49,61,199,0
189241,-52,59,203,0
189252,-52,54,211,0
189263,-54,62,226,0
189274,-54,62,236,0
189285,-43,64,238,0
189296,-48,86,233,0
189307,-47,71,242,0
189319,-36,53,246,0
189330,-31,47,248,1
189341,-29,48,248,0
189352,-35,58,253,0
189363,-47,67,259,0
189374,-61,73,267,0
189385,-63,65,287,0
189396,-50,55,319,0
189407,6,62,352,0
189418,20,69,350,0
189429,31,77,350,0
189440,48,94,363,0
189451,65,100,368,0
189462,73,100,346,0
189473,62,89,310,0
189484,54,61,263,0
189495,57,38,232,0
189506,56,27,182,0
189517,47,39,132,0
189528,41,22,121,0
189539,31,26,125,0
189550,13,18,122,0
189561,4,13,150,0
189572,6,17,176,0
189583,27,22,192,0
189594,47,31,212,0
189605,62,38,232,0
189616,58,46,235,0
189627,54,40,239,0
189638,56,33,230,0
189649,61,30,220,0
189660,63,38,222,0
189671,62,43,225,0
189682,55,46,218,0
189693,42,40,204,0
189704,26,45,199,0
189715,-18,51,199,0
189726,-38,54,201,0
189737,-50,55,199,0
189748,-58,54,207,0
189759,-63,50,209,0
189770,-68,52,213,0
189781,-73,57,212,0
189792,-71,57,211,0
189803,-66,61,211,0
189814,-62,65,209,0
189825,-58,69,209,0
189836,-57,73,214,0
189847,-57,74,219,0
189858,-59,79,219,0
189869,-54,70,211,0
189880,-50,67,205,0
189891,-44,65,201,0
189902,-36,64,203,0
189913,-27,64,202,0
189924,-21,62,198,0
189935,-11,56,198,0
189946,-1,56,196,0
189957,4,56,194,0
189968,8,60,199,0
189979,9,65,213,0
189990,8,68,228,0
190001,11,69,238,0
190012,13,69,240,0
190023,-28,60,223,0
190034,-55,65,215,0
190045,-70,71,208,0
190056,-81,65,230,0
190067,-66,66,276,0
190078,-31,65,323,0
190089,10,66,342,1
190100,30,63,353,0
190111,34,54,356,0
190122,15,52,339,0
190133,12,66,322,0
190144,29,73,294,0
190155,49,63,272,0
190166,79,46,259,0
190177,128,46,195,0
190188,129,52,185,0
190199,124,48,188,0
190210,104,52,189,0
190221,84,59,193,0
190232,69,63,206,0
190243,63,64,221,0
190254,46,72,238,0
190265,35,66,241,0
190276,21,60,239,0
190287,8,59,241,0
190298,2,59,246,0
190309,-3,54,252,0
190320,-5,56,249,0
190331,-9,68,229,0
190342,-10,71,208,0
190353,-5,65,193,0
190364,-5,62,187,0
190375,-6,60,184,0
190386,-2,60,184,0
190397,2,63,190,0
190408,5,63,193,0
190419,9,64,195,0
190430,15,66,196,0
190441,18,63,191,0
190452,19,51,179,0
190463,17,40,169,0
190474,15,30,162,0
190485,27,13,181,0
190496,41,4,189,0
190507,45,27,180,0
190518,27,80,168,0
190529,8,97,165,0
190540,1,83,184,0
190551,-9,90,203,0
190562,-26,86,206,0
190573,-35,68,223,0
190584,-45,93,222,0
190595,-48,109,234,0
190606,-60,106,230,0
190617,-73,115,237,0
190628,-67,96,239,0
190639,-66,107,258,0
190650,-87,140,248,0
190661,-117,137,252,1
190672,-116,119,262,0
190683,-111,144,289,0
190694,-105,145,317,0
190705,-78,148,313,0
190716,-14,87,331,0
190727,44,93,338,0
190738,69,111,358,0
190749,102,44,359,0
190760,134,41,384,0
190771,157,75,365,0
190782,131,34,286,0
190793,89,-22,186,0
190804,11,-47,139,0
190815,-11,-32,128,0
190826,-16,-31,131,0
190837,-6,-27,137,0
190848,11,-17,159,0
190859,35,7,185,0
190870,55,36,220,0
190881,74,56,243,0
190892,90,61,238,0
190903,97,59,224,0
190914,96,53,194,0
190925,80,51,190,0
190936,53,68,208,0
190947,19,68,218,0
190958,-36,59,217,0
190969,-54,54,200,0
190980,-58,45,191,0
190991,-64,32,186,0
191002,-70,28,187,0
191013,-68,37,197,0
191024,-64,50,206,0
191035,-56,53,213,0
191046,-52,60,215,0
191057,-47,67,214,0
191068,-49,72,210,0
191079,-50,73,211,0
191090,-54,74,213,0
191101,-55,78,214,0
191112,-51,77,208,0
191123,-48,76,206,0
191134,-40,73,205,0
191145,-29,67,203,0
191156,-19,64,204,0
191167,-6,61,203,0
191178,4,59,205,0
191189,14,54,206,0
191200,23,50,206,0
191211,34,53,215,0
191222,41,58,226,0
191233,43,63,230,0
191244,36,68,228,0
191255,15,78,216,0
191266,-44,112,192,0
191277,-63,120,197,0
191288,-71,118,216,0
191299,-69,113,251,0
191310,-67,105,303,1
191321,-77,99,346,0
191332,-85,93,360,0
191343,-81,84,355,0
191354,-71,72,348,0
191365,-60,69,339,0
191376,-49,79,318,0
191387,-25,84,296,0
191398,17,85,269,0
191409,50,74,251,0
191420,124,54,193,0
191431,151,54,168,0
191442,169,59,159,0
191453,179,50,154,0
191464,172,39,154,0
191475,156,28,168,0
191486,128,23,175,0
191497,105,34,202,0
191508,82,51,241,0
191519,67,60,267,0
191530,49,67,281,0
191541,28,72,284,0
191552,5,76,273,0
191563,1,85,260,0
191574,1,72,224,0
191585,-2,66,214,0
191596,-1,65,203,0
191607,-2,62,195,0
191618,3,61,190,0
191629,9,56,192,0
191640,18,54,198,0
191651,27,57,197,0
191662,31,57,197,0
191673,31,60,198,0
191684,30,56,192,0
191695,31,57,190,0
191706,34,59,190,0
191717,31,55,184,0
191728,16,43,165,0
191739,7,41,158,0
191750,1,36,155,0
191761,0,38,155,0
191772,-4,46,161,0
191783,-6,52,171,0
191794,-8,58,177,0
191805,-10,58,187,0
191816,-13,58,198,0
191827,-13,59,214,0
191838,-16,59,217,0
191849,-22,68,216,0
191860,-31,80,225,0
191871,-43,81,242,0
191882,-41,79,263,0
191893,-54,83,276,0
191904,-65,84,286,0
191915,-67,99,286,1
191926,-69,122,291,0
191937,-57,141,340,0
191948,-22,160,417,0
191959,-23,176,424,0
191970,-18,131,431,0
191981,31,107,411,0
191992,90,93,359,0
192003,92,33,314,0
192014,41,5,274,0
192025,63,32,254,0
192036,54,8,151,0
192047,53,0,140,0
192058,44,3,138,1
192069,28,-5,147,0
192080,20,-2,150,0
192091,26,-2,153,0
192102,46,-3,167,0
192113,64,-1,184,0
192124,75,0,192,0
192135,78,0,196,0
192146,70,12,203,0
192157,59,26,202,0
192168,37,39,200,0
192179,24,49,202,0
192190,12,55,200,0
192201,-15,64,211,0
192212,-25,63,209,0
192223,-35,58,203,0
192234,-38,55,198,0
192245,-34,54,198,0
192256,-26,46,196,0
192267,-14,34,194,0
192278,-7,33,199,0
192289,-6,38,202,0
192300,-7,41,212,0
192311,-5,40,212,0
192322,-8,44,212,0
192333,-14,49,214,0
192344,-17,51,215,0
192355,-25,60,223,0
192366,-28,64,224,0
192377,-28,66,219,0
192388,-30,70,218,0
192399,-35,79,218,0
192410,-29,68,209,0
192421,-20,56,200,0
192432,-11,53,192,0
192443,-3,55,190,0
192454,0,59,191,0
192465,3,60,190,0
192476,8,64,192,0
192487,12,65,196,0
192498,9,66,203,0
192509,-32,79,213,0
192520,-70,79,210,1
192531,-97,80,206,0
192542,-102,73,207,0
192553,-83,71,231,0
192564,-61,74,280,0
192575,-35,70,322,0
192586,-6,65,342,0
192597,-1,65,363,0
192608,0,61,378,0
192619,16,47,359,0
192630,39,60,332,0
192641,41,63,320,0
192652,49,28,330,0
192663,113,14,264,0
192674,146,37,220,0
192685,163,56,187,0
192696,160,65,173,0
192707,144,63,168,0
192718,131,58,167,0
192729,109,61,175,0
192740,81,74,207,0
192751,48,87,240,0
192762,4,88,248,0
192773,-24,78,256,0
192784,-38,67,257,0
192795,-60,68,257,0
192806,-69,76,254,0
192817,-40,67,221,0
192828,-26,66,206,0
192839,-15,65,195,0
192850,-4,59,185,0
192861,0,54,177,0
192872,7,50,171,0
192883,12,53,170,0
192894,16,53,169,0
192905,16,61,173,0
192916,15,64,182,0
192927,13,60,189,0
192938,10,61,186,0
192949,2,56,183,0
192960,-5,50,181,0
192971,-22,51,183,0
192982,-30,53,182,0
192993,-40,56,183,0
193004,-41,56,180,0
193015,-43,54,180,0
193026,-44,54,181,0
193037,-49,51,182,0
193048,-57,50,187,0
193059,-64,48,195,0
193070,-67,62,205,0
193081,-77,99,218,0
193092,-94,98,233,0
193103,-103,75,245,0
193114,-91,46,256,0
193125,-39,88,292,0
193136,-22,80,297,0
193147,-20,99,289,1
193158,-25,98,313,0
193169,-17,82,349,0
193180,-5,81,371,0
193191,9,117,362,0
193202,52,106,380,0
193213,103,77,370,0
193224,115,72,336,0
193235,88,43,300,0
193246,87,40,273,0
193257,116,41,287,0
193268,113,64,275,0
193279,79,11,190,0
193290,50,-6,182,0
193301,15,-1,174,0
193312,-12,-17,148,0
193323,-5,-23,130,0
193334,14,-32,131,0
193345,40,-21,151,0
193356,58,-4,165,0
193367,73,18,184,0
193378,90,39,203,0
193389,107,65,226,0
193400,110,81,229,0
193411,100,85,221,0
193422,85,82,213,0
193433,33,83,222,0
193444,11,75,217,0
193455,-10,69,206,0
193466,-32,64,192,0
193477,-45,62,180,0
193488,-55,62,181,0
193499,-56,61,190,0
193510,-56,56,205,0
193521,-54,54,214,0
193532,-52,63,215,0
193544,-52,64,217,0
193555,-49,66,217,0
193566,-49,71,220,0
193577,-55,77,214,0
193588,-59,77,214,0
193599,-59,71,214,0
193610,-58,67,211,0
193621,-59,62,212,0
193632,-63,64,210,0
193643,-65,61,208,0
193654,-58,44,202,0
193665,-46,34,195,0
193676,-36,39,187,0
193688,-21,58,179,0
193699,-9,64,184,0
193710,0,60,195,0
193721,6,59,212,0
193732,4,58,214,0
193743,-17,63,209,0
193754,-42,66,206,0
193765,-54,71,203,0
193776,-65,75,217,0
193787,-55,67,253,0
193798,-40,65,293,1
193809,-14,54,314,0
193820,-19,37,323,0
193831,-22,30,348,0
193842,2,27,353,0
193853,45,53,328,0
193864,67,65,315,0
193875,123,-3,314,0
193886,153,19,271,0
193897,164,57,237,0
193908,158,74,215,0
193919,143,82,203,0
193930,125,77,197,0
193941,104,78,193,0
193952,77,100,214,0
193963,46,106,241,0
193974,3,103,256,0
193985,-39,90,261,0
193996,-59,75,263,0
194007,-75,68,266,0
194018,-80,61,261,0
194029,-59,58,233,0
194040,-36,60,218,0
194051,-15,58,203,0
194062,3,52,185,0
194073,12,52,170,0
194084,23,52,159,0
194095,27,49,151,0
194106,31,51,153,0
194117,29,55,156,0
194128,24,58,163,0
194139,17,61,170,0
194150,7,61,172,0
194161,-6,63,171,0
194172,-20,54,174,0
194183,-39,43,181,0
194194,-46,49,187,0
194205,-52,52,193,0
194216,-60,55,194,0
194227,-66,55,193,0
194238,-71,54,193,0
194249,-73,54,189,0
194260,-77,58,193,0
194271,-80,63,201,0
194282,-85,67,206,0
194293,-80,66,207,0
194305,-78,103,216,0
194316,-87,111,240,0
194327,-51,44,271,0
194338,-26,69,277,0
194349,-13,95,281,0
194360,-7,84,297,1
194371,10,68,338,0
194382,18,77,392,0
194393,16,80,426,0
194404,8,138,394,0
194415,16,140,409,0
194426,37,101,397,0
194437,52,54,353,0
194448,72,21,319,0
194459,77,-4,292,0
194470,58,-8,237,0
194481,80,-37,136,0
194492,69,-27,126,0
194503,63,-12,137,0
194514,55,-24,149,0
194525,35,-1,144,0
194536,22,1,142,0
194547,27,13,153,0
194558,44,26,176,0
194569,56,34,193,0
194580,61,37,202,0
194591,62,36,206,0
194602,61,38,203,0
194613,51,54,206,0
194624,43,58,213,0
194635,36,67,219,0
194646,27,67,220,0
194657,23,60,211,0
194668,18,43,200,0
194679,10,37,194,0
194690,5,34,195,0
194701,2,40,200,0
194712,1,37,201,0
194723,0,41,203,0
194734,-7,50,212,0
194745,-13,50,216,0
194756,-19,51,220,0
194767,-27,56,222,0
194778,-36,60,224,0
194789,-53,66,221,0
194800,-55,69,216,0
194811,-59,70,212,0
194822,-61,73,212,0
194833,-64,74,209,0
194844,-65,69,208,0
194855,-64,64,204,0
194866,-66,58,196,0
194877,-59,50,191,0
194888,-39,50,184,0
194899,-20,55,182,0
194910,-1,61,187,0
194921,5,64,197,0
194932,5,61,212,0
194943,16,63,229,0
194954,14,47,242,0
194965,-23,40,231,1
194976,-66,50,219,0
194987,-96,65,200,0
194999,-106,83,209,0
195010,-93,86,252,0
195021,-74,83,303,0
195032,-45,75,329,0
195043,-14,67,352,0
195054,-2,47,367,0
195065,7,45,370,0
195077,20,69,323,0
195088,42,77,303,0
195099,60,56,282,0
195110,90,19,260,0
195121,113,13,222,0
195132,122,32,180,0
195143,128,58,147,0
195154,123,67,142,0
195165,113,63,144,0
195176,96,64,153,0
195187,74,79,191,0
195198,51,87,237,0
195209,22,83,259,0
195220,-6,76,272,0
195231,-46,82,280,0
195242,-55,86,269,0
195253,-45,83,258,0
195264,-27,77,239,0
195275,-11,67,217,0
195286,0,59,199,0
195298,12,51,185,0
195309,20,43,175,0
195320,27,43,173,0
195331,27,44,167,0
195342,22,52,166,0
195353,15,55,172,0
195364,9,56,177,0
195375,5,50,186,0
195386,1,48,190,0
195397,-6,45,192,0
195408,-15,43,187,0
195419,-19,54,179,0
195430,-29,48,175,0
195441,-38,48,171,0
195452,-45,55,179,0
195463,-41,52,180,0
195474,-43,59,177,0
195485,-47,71,169,0
195496,-54,82,169,0
195507,-61,85,184,0
195518,-62,85,205,0
195529,-54,82,249,0
195540,-33,67,261,0
195551,-3,82,273,0
195562,2,120,297,0
195573,6,113,311,0
195584,4,109,304,0
195595,-3,98,318,0
195606,-13,97,327,0
195617,-31,91,347,1
195628,-48,94,348,0
195639,-59,137,330,0
195650,-26,115,361,0
195661,45,57,373,0
195672,51,82,320,0
195683,39,34,258,0
195694,52,56,240,0
195705,54,57,213,0
195716,52,48,169,0
195727,38,28,154,0
195738,9,9,146,0
195749,-23,2,152,0
195760,-38,-4,158,0
195771,-39,-11,164,0
195782,-11,-9,169,0
195793,36,-2,177,0
195804,51,5,183,0
195815,61,16,193,0
195826,75,31,210,0
195837,94,52,217,0
195848,92,63,217,0
195859,79,67,217,0
195870,53,62,207,0
195881,26,59,211,0
195892,1,57,211,0
195903,-22,56,208,0
195914,-35,50,197,0
195925,-43,48,191,0
195936,-44,40,189,0
195947,-48,30,187,0
195958,-52,41,186,0
195969,-55,54,194,0
195980,-52,58,208,0
195991,-48,64,215,0
196002,-39,71,216,0
196013,-37,78,220,0
196024,-37,81,219,0
196035,-38,85,220,0
196046,-42,86,219,0
196057,-45,82,214,0
196068,-44,81,207,0
196079,-42,79,201,0
196090,-36,70,196,0
196101,-31,62,191,0
196112,-26,54,188,0
196123,-17,50,185,0
196134,-2,49,187,0
196145,10,59,192,0
196156,43,77,218,0
196167,50,96,232,0
196178,21,101,228,0
196189,-17,96,212,0
196200,-58,100,192,0
196211,-84,102,189,0
196222,-90,78,203,1
196233,-86,65,247,0
196244,-66,58,282,0
196255,-33,51,306,0
196266,-23,52,346,0
196277,-32,66,388,0
196288,-43,91,399,0
196299,-47,106,379,0
196310,13,104,321,0
196321,60,59,304,0
196332,110,20,267,0
196343,146,14,219,0
196354,176,14,179,0
196365,188,15,157,0
196376,180,25,144,0
196387,154,38,138,0
196398,124,32,138,0
196409,89,25,155,0
196420,58,48,204,0
196431,22,73,252,0
196442,-14,79,283,0
196453,-43,79,295,0
196464,-59,73,270,0
196475,-47,74,252,0
196486,-33,69,228,0
196497,-21,65,220,0
196508,-15,60,216,0
196519,-7,58,204,0
196530,0,51,190,0
196541,3,46,185,0
196552,7,47,187,0
196563,10,46,193,0
196574,14,52,195,0
196585,20,56,193,0
196596,22,50,189,0
196607,23,47,182,0
196618,16,45,191,0
196629,6,45,187,0
196640,-5,47,181,0
196651,-11,45,184,0
196662,-15,43,180,0
196673,-18,47,176,0
196684,-20,47,179,0
196695,-25,43,179,0
196706,-27,39,179,0
196717,-30,36,184,0
196728,-30,36,189,0
196739,-34,40,192,0
196750,-37,48,193,0
196761,-41,63,198,0
196772,-48,74,206,0
196783,-47,82,237,0
196794,-30,77,259,0
196805,-14,91,288,0
196816,-18,107,292,1
196827,-20,106,282,0
196838,-28,109,275,0
196849,-37,110,301,0
196860,-19,92,362,0
196871,7,95,417,0
196882,34,115,426,0
196893,57,98,419,0
196904,67,94,381,0
196915,78,64,332,0
196926,64,38,300,0
196937,51,-148,395,0
196948,85,105,156,0
196959,45,56,133,1
196970,55,5,129,0
196981,38,33,154,0
196992,28,18,168,0
197003,16,21,160,0
197014,23,23,171,0
197025,34,2,182,0
197036,51,-3,190,0
197047,75,-18,190,0
197058,90,-4,194,0
197069,92,3,199,0
197080,88,26,205,0
197091,73,60,211,0
197102,63,69,214,0
197113,51,77,221,0
197124,31,82,225,0
197135,12,83,224,0
197146,-1,78,219,0
197157,-13,65,210,0
197168,-19,56,197,0
197179,-28,49,190,0
197190,-38,50,195,0
197201,-40,49,205,0
197212,-41,50,212,0
197223,-40,53,215,0
197234,-36,53,214,0
197245,-32,60,215,0
197256,-36,64,214,0
197267,-39,69,220,0
197278,-46,74,220,0
197289,-58,76,221,0
197300,-64,77,219,0
197311,-68,76,217,0
197322,-71,75,212,0
197333,-70,67,207,0
197344,-67,57,204,0
197355,-65,49,200,0
197366,-62,49,194,0
197377,-40,45,178,0
197388,-13,47,170,0
197399,18,37,196,0
197410,26,42,207,0
197421,32,53,209,0
197432,38,56,204,0
197443,30,59,198,0
197455,11,65,196,0
197466,-19,74,195,1
197477,-37,84,196,0
197488,-56,77,217,0
197499,-67,65,264,0
197510,-65,61,295,0
197521,-58,56,306,0
197532,-73,44,321,0
197543,-54,46,346,0
197554,-7,57,339,0
197565,26,62,347,0
197576,52,44,371,0
197587,82,25,355,0
197598,111,22,306,0
197609,128,38,259,1
197620,142,49,218,0
197631,142,67,183,0
197642,131,68,139,0
197653,118,50,113,0
197664,100,48,114,0
197675,75,68,171,0
197686,60,75,247,0
197697,-14,90,282,0
197708,-34,76,289,0
197719,-49,72,287,0
197730,-53,81,284,0
197741,-38,80,271,0
197752,-17,74,261,0
197763,3,71,244,0
197774,16,62,223,0
197785,29,57,199,0
197796,35,54,176,0
197807,39,53,159,0
197818,36,52,150,0
197829,26,54,152,0
197840,21,55,158,0
197851,8,56,174,0
197862,1,56,183,0
197873,-6,54,183,0
197884,-17,54,184,0
197895,-26,54,190,0
197906,-33,52,197,0
197917,-40,54,203,0
197928,-46,52,207,0
197939,-48,49,207,0
197950,-49,44,205,0
197961,-50,38,197,0
197972,-53,33,195,0
197983,-55,27,192,0
197994,-58,27,190,0
198005,-63,39,198,0
198016,-76,60,211,0
198027,-83,52,217,0
198038,-86,44,230,0
198049,-69,40,251,0
198060,-42,66,277,0
198071,-31,79,293,1
198082,-31,90,296,0
198093,-43,87,295,0
198104,-44,69,324,0
198115,-20,57,357,0
198126,-1,86,352,0
198137,0,110,328,0
198148,23,68,323,0
198159,67,75,314,0
198170,37,51,308,0
198181,44,61,280,0
198192,66,41,260,0
198203,89,28,255,0
198214,97,72,232,0
198225,87,71,211,0
198236,71,28,199,0
198247,46,13,184,0
198258,17,3,168,0
198269,2,-7,151,0
198280,14,-17,150,0
198291,42,-10,159,0
198302,61,-2,166,0
198313,69,8,183,0
198324,91,46,219,0
198335,93,61,222,0
198346,95,69,221,0
198357,92,77,217,0
198368,83,80,221,0
198379,65,77,221,0
198390,46,74,220,0
198401,27,68,215,0
198412,12,66,206,0
198423,-6,63,198,0
198434,-15,61,196,0
198445,-23,64,198,0
198456,-30,64,202,0
198467,-36,68,209,0
198478,-48,72,218,0
198489,-56,75,218,0
198500,-63,74,216,0
198511,-67,70,218,0
198522,-70,67,218,0
198533,-68,67,216,0
198544,-65,69,212,0
198555,-61,68,209,0
198566,-59,69,216,0
198577,-54,65,219,0
198588,-53,60,216,0
198599,-52,58,218,0
198610,-55,52,218,0
198621,-56,54,211,0
198632,-41,57,187,0
198643,-32,61,179,0
198654,-25,60,183,0
198665,-22,56,190,0
198676,-18,56,195,0
198687,-9,57,202,0
198698,2,61,210,0
198709,6,64,216,0
198720,0,65,214,0
198731,-23,64,213,0
198742,-42,70,217,1
198753,-50,82,233,0
198764,-43,84,257,0
198775,-41,72,284,0
198786,-2,25,293,0
198797,3,5,312,0
198808,19,8,329,0
198819,57,38,323,0
198830,61,73,318,0
198841,51,54,332,0
198852,65,13,329,0
198863,81,13,289,1
198874,93,35,249,0
198885,102,49,218,0
198896,102,64,188,0
198907,93,73,157,0
198918,88,69,143,0
198929,73,65,146,0
198940,61,73,187,0
198951,17,89,263,0
198962,-9,94,270,0
198973,-28,89,264,0
198984,-41,82,268,0
198995,-50,90,268,0
199006,-44,93,261,0
199017,-31,90,251,0
199028,-15,74,236,0
199039,-3,65,216,0
199050,5,57,199,0
199061,11,50,188,0
199072,14,45,178,0
199083,19,45,175,0
199094,21,50,173,0
199105,18,58,181,0
199116,15,59,184,0
199127,9,58,189,0
199138,2,53,187,0
199149,-7,47,187,0
199160,-17,45,189,0
199171,-25,46,190,0
199182,-31,47,190,0
199193,-35,49,191,0
199204,-37,50,188,0
199215,-38,50,181,0
199226,-40,48,178,0
199237,-43,48,177,0
199248,-46,47,178,0
199259,-54,53,185,0
199270,-62,58,188,0
199281,-65,70,193,0
199292,-74,88,201,0
199303,-90,96,211,0
199314,-97,89,225,0
199325,-85,69,242,0
199336,-52,63,261,0
199347,-20,82,281,0
199358,-26,97,289,1
199369,-47,105,281,0
199380,-67,104,285,0
199391,-72,93,306,0
199402,-71,93,327,0
199413,-48,79,319,0
199424,-11,75,335,0
199435,23,72,362,0
199446,60,70,360,0
199457,77,76,350,0
199468,78,54,337,0
199479,93,46,314,0
199490,109,53,263,0
199501,103,37,202,0
199512,89,38,173,0
199523,78,39,157,0
199534,58,23,146,0
199545,40,2,135,0
199556,29,-13,139,0
199567,45,-11,176,0
199578,66,-3,185,0
199589,75,-5,194,0
199600,82,4,202,0
199611,78,20,213,0
199622,69,38,224,0
199633,62,54,232,0
199644,56,58,236,0
199655,49,61,236,0
199666,40,63,226,0
199677,24,63,215,0
199688,8,64,209,0
199699,-7,64,204,0
199710,-24,69,204,0
199721,-33,60,209,0
199732,-38,52,208,0
199743,-46,59,209,0
199754,-56,60,213,0
199765,-57,60,219,0
199776,-56,61,221,0
199787,-56,60,224,0
199798,-51,63,223,0
199809,-47,60,220,0
199820,-44,59,219,0
199831,-42,64,223,0
199842,-44,66,223,0
199853,-44,66,218,0
199864,-46,65,218,0
199875,-50,65,217,0
199886,-63,64,213,0
199897,-64,61,207,0
199908,-56,44,197,0
199919,-46,39,187,0
199930,-34,39,177,0
199941,-25,38,174,0
199952,-15,38,176,0
199963,-10,40,187,0
199974,-1,45,196,0
199985,12,47,204,0
199996,8,49,213,0
200007,-14,43,212,0
200018,-37,36,208,1
200029,-42,36,199,0
200040,-13,60,238,0
200051,1,66,275,0
200062,16,66,297,0
200073,15,65,310,0
200084,4,60,330,0
200095,2,49,341,0
200106,13,32,333,0
200117,39,33,324,0
200128,54,40,321,0
200139,64,32,324,0
200150,89,22,313,0
200161,116,23,283,0
200172,130,36,252,0
200183,138,51,221,0
200194,121,63,165,0
200205,105,53,146,0
200216,83,39,137,0
200227,66,39,164,0
200238,50,62,197,0
200249,33,85,243,0
200260,16,88,261,0
200272,-8,83,269,0
200283,-31,87,269,0
200294,-55,91,275,0
200305,-51,79,269,0
200316,-45,62,257,0
200327,-36,61,248,0
200338,-19,55,219,0
200349,-9,51,208,0
200360,0,49,197,0
200371,8,45,190,0
200382,15,42,183,0
200393,19,41,184,0
200404,21,39,180,0
200415,18,43,179,0
200426,12,52,185,0
200437,3,53,191,0
200448,-6,49,195,0
200459,-13,47,196,0
200470,-21,50,196,0
200481,-27,49,193,0
200492,-33,44,189,0
200503,-31,38,188,0
200514,-30,33,186,0
200525,-28,32,182,0
200536,-29,39,189,0
200547,-32,39,191,0
200558,-39,41,195,0
200569,-46,45,202,0
200580,-53,51,210,0
200591,-58,57,210,0
200602,-66,63,215,0
200613,-70,70,225,0
200624,-69,92,237,0
200635,-76,116,247,0
200646,-60,69,262,0
200657,-49,62,258,0
200668,-45,73,256,1
200679,-45,67,268,0
200690,-27,41,310,0
200701,-15,51,337,0
200712,-5,61,363,0
200723,9,68,363,0
200734,37,94,349,0
200745,72,77,325,0
200756,101,33,315,0
200767,103,11,289,0
200778,97,30,269,0
200789,108,36,259,0
200800,113,49,199,0
200811,93,37,182,0
200822,74,128,115,0
200833,44,-114,202,0
200844,68,29,151,0
200855,50,42,133,0
200866,53,-3,141,0
200877,58,16,159,0
200888,61,33,180,0
200899,67,20,199,0
200910,65,33,214,0
200921,66,45,227,0
200932,68,55,236,0
200943,72,65,242,0
200954,63,71,220,0
200965,54,71,208,0
200976,39,74,207,0
200987,29,78,212,0
200998,20,77,218,0
201009,14,68,218,0
201020,9,65,215,0
201031,5,64,210,0
201042,4,64,206,0
201053,8,63,208,0
201064,12,66,211,0
201075,8,78,220,0
201086,4,84,229,0
201097,-5,86,231,0
201108,-21,88,234,0
201119,-29,95,233,0
201130,-41,94,229,0
201141,-46,93,227,0
201152,-58,98,222,0
201163,-70,91,220,0
201174,-71,74,212,0
201185,-75,71,207,0
201196,-73,69,201,0
201207,-67,75,196,0
201218,-58,72,195,0
201229,-52,77,200,0
201240,-59,74,198,0
201251,-58,63,197,0
201262,-45,85,197,0
201273,-40,63,216,0
201284,-33,56,225,1
201295,-19,55,227,0
201306,-14,50,224,0
201317,-26,45,226,0
201328,-42,53,219,0
201339,-53,44,219,0
201350,-34,23,234,0
201361,-17,32,251,0
201372,1,29,270,0
201383,20,30,282,0
201394,24,31,302,0
201405,43,29,315,0
201416,73,52,296,0
201427,65,46,327,0
201438,87,25,332,0
201449,119,34,290,0
201460,146,59,253,0
201471,155,78,223,0
201482,150,93,198,0
201493,123,87,170,0
201504,97,86,170,0
201515,72,90,178,0
201526,44,90,206,0
201537,8,81,226,0
201548,-26,88,247,0
201559,-48,75,263,0
201570,-63,65,269,0
201581,-72,67,282,0
201592,-62,75,268,0
201603,-46,69,253,0
201614,-21,55,229,0
201625,2,46,207,0
201636,21,35,185,0
201647,34,35,170,0
201658,40,42,162,0
201669,38,38,157,0
201680,33,42,158,0
201691,24,43,165,0
201702,12,46,169,0
201713,-2,48,177,0
201724,-19,47,186,0
201735,-50,43,199,0
201746,-57,38,203,0
201757,-59,31,208,0
201768,-57,29,214,0
201779,-53,35,215,0
201790,-48,39,210,0
201801,-45,36,203,0
201812,-45,34,193,0
201823,-49,35,187,0
201834,-50,33,187,0
201845,-52,29,189,0
201856,-54,27,195,0
201867,-58,26,197,0
201878,-66,37,198,0
201889,-88,49,202,0
201900,-92,96,229,0
201911,-104,91,246,0
201922,-84,61,257,0
201933,-57,45,264,0
201944,-41,49,262,1
201955,-46,58,271,0
201966,-66,62,281,0
201977,-70,59,309,0
201988,-76,89,318,0
201999,-91,76,323,0
202010,-82,47,313,0
202021,-68,48,328,0
202032,-44,35,354,0
202043,20,91,327,0
202054,52,79,314,0
202065,61,33,285,0
202076,82,141,225,0
202087,74,-93,307,0
202098,141,39,200,0
202109,116,17,156,0
202120,93,3,138,0
202131,85,23,140,0
202142,67,-2,150,0
202153,41,0,148,0
202164,31,-4,154,0
202175,33,5,180,0
202186,45,14,200,0
202197,72,27,221,0
202208,70,37,228,0
202219,55,44,224,0
202230,34,52,221,0
202241,22,55,219,0
202252,13,63,224,0
202263,12,67,225,0
202274,15,70,229,0
202285,15,63,228,0
202296,5,63,220,0
202307,-2,68,210,0
202318,0,63,206,0
202329,-1,49,197,0
202340,-5,48,196,0
202351,-16,52,213,0
202362,-21,52,219,0
202373,-24,54,217,0
202384,-26,55,217,0
202395,-28,61,219,0
202406,-30,65,219,0
202417,-35,68,222,0
202428,-38,72,226,0
202439,-37,73,228,0
202450,-40,74,223,0
202461,-42,70,217,0
202472,-45,68,212,0
202483,-48,68,208,0
202494,-51,68,212,0
202505,-49,59,206,0
202516,-45,58,201,0
202527,-42,61,194,0
202538,-33,54,186,0
202549,-20,48,186,0
202560,-13,58,194,0
202571,-14,65,207,0
202583,-10,65,219,0
202594,-2,67,222,0
202605,-12,65,224,1
202616,-31,65,221,0
202627,-47,75,211,0
202638,-70,85,201,0
202649,-91,60,220,0
202660,-84,53,261,0
202671,-56,54,285,0
202682,-28,50,309,0
202693,-14,52,340,0
202704,2,67,352,0
202715,15,81,348,0
202726,29,92,335,0
202737,46,102,315,0
202748,56,90,301,0
202759,67,57,287,0
202770,81,38,256,0
202781,89,33,215,0
202792,84,26,176,0
202803,65,22,123,0
202814,50,29,118,0
202825,39,50,154,0
202836,29,65,195,0
202847,19,77,240,0
202858,9,90,272,0
202869,-3,94,281,0
202880,-10,97,283,0
202891,-12,100,281,0
202902,-12,97,278,0
202913,-11,83,269,0
202924,-6,69,255,0
202935,-4,59,240,0
202946,-2,51,225,0
202957,3,50,202,0
202968,8,47,193,0
202979,14,46,185,0
202990,17,43,182,0
203001,22,41,184,0
203012,27,44,189,0
203023,29,46,192,0
203034,27,47,193,0
203045,26,48,191,0
203056,18,46,188,0
203067,8,43,185,0
203078,-1,41,180,0
203089,-9,33,180,0
203100,-17,35,186,0
203111,-23,42,188,0
203122,-21,38,190,0
203133,-14,44,190,0
203144,-12,60,185,0
203155,-18,89,185,0
203166,-19,90,193,0
203177,-18,87,203,0
203188,-18,78,213,0
203199,-24,73,209,0
203210,-29,84,207,0
203221,-32,97,213,1
203232,-27,103,239,0
203243,-26,84,265,0
203254,-27,94,249,0
203265,-47,126,233,0
203276,-97,119,253,0
203287,-85,118,313,0
203298,-66,155,333,0
203309,-42,163,371,0
203320,20,98,412,0
203331,54,128,421,0
203342,59,107,409,0
203353,71,47,367,0
203364,89,52,325,0
203375,102,29,279,0
203386,77,12,206,0
203397,57,-18,162,0
203408,25,-44,135,0
203419,0,-53,122,0
203430,-11,-27,125,0
203441,1,-15,147,0
203452,14,-5,173,0
203463,25,3,191,0
203474,36,21,214,0
203485,50,33,234,0
203496,57,40,237,0
203507,58,52,245,0
203518,55,48,228,0
203529,47,42,213,0
203540,39,41,210,0
203551,31,42,205,0
203562,15,47,203,0
203573,-3,47,202,0
203584,-29,54,198,0
203595,-34,49,199,0
203606,-39,45,199,0
203617,-43,45,201,0
203628,-48,51,205,0
203639,-50,55,213,0
203650,-51,58,219,0
203661,-47,61,221,0
203672,-44,64,222,0
203683,-39,62,218,0
203694,-36,62,215,0
203705,-34,62,215,0
203716,-34,65,215,0
203727,-35,68,216,0
203738,-32,66,210,0
203749,-31,61,205,0
203760,-24,52,201,0
203771,-15,50,199,0
203782,-7,49,196,0
203793,4,54,195,0
203804,17,66,197,0
203815,20,68,212,1
203826,23,57,228,0
203837,19,55,236,0
203848,7,40,237,0
203859,4,25,230,0
203870,-11,28,216,0
203881,-36,48,197,0
203892,-64,84,180,0
203903,-62,92,209,0
203914,-54,96,254,0
203925,-37,89,297,0
203936,-17,81,334,0
203947,-7,70,361,0
203958,1,55,362,0
203969,5,59,347,0
203980,10,71,327,0
203991,15,68,316,0
204002,22,54,306,0
204013,30,36,287,0
204024,48,29,253,0
204035,68,38,220,0
204046,96,34,163,0
204057,106,41,143,0
204068,101,44,129,0
204079,90,42,131,0
204090,74,40,141,0
204101,59,42,169,0
204112,37,60,219,0
204123,25,73,272,0
204134,6,78,301,0
204145,-12,87,306,0
204156,-25,104,303,0
204167,-24,105,289,0
204178,-16,93,269,0
204189,-12,80,256,0
204200,-8,74,242,0
204211,0,65,204,0
204222,3,58,190,0
204233,7,52,186,0
204244,12,50,179,0
204256,16,56,178,0
204267,19,62,183,0
204278,21,63,184,0
204289,21,61,191,0
204300,16,66,191,0
204311,18,59,192,0
204322,13,56,189,0
204333,11,45,191,0
204344,5,61,197,0
204355,12,55,190,0
204366,6,73,179,0
204377,-1,80,165,0
204388,-13,74,167,0
204399,-19,71,169,0
204410,-29,76,176,0
204421,-38,73,181,0
204432,-44,83,187,0
204443,-54,89,201,0
204454,-56,77,212,0
204465,-49,80,225,0
204476,-31,75,229,0
204487,-14,82,239,1
204498,-17,78,284,0
204509,6,104,291,0
204520,-26,152,288,0
204531,-33,135,288,0
204542,-31,132,296,0
204553,-28,123,322,0
204564,-35,133,301,0
204575,-19,116,283,0
204586,11,78,295,0
204597,27,79,302,0
204608,34,71,297,0
204619,42,46,278,0
204630,60,35,282,0
204641,79,40,303,0
204652,80,52,304,1
204663,62,32,201,0
204674,45,17,177,0
204685,36,15,171,0
204696,18,10,151,0
204707,5,22,142,0
204718,9,24,153,0
204729,17,32,167,0
204740,25,39,180,0
204751,40,40,186,0
204762,51,45,187,0
204773,55,54,200,0
204784,60,69,217,0
204795,58,75,215,0
204806,46,71,205,0
204817,14,64,210,0
204828,-2,70,225,0
204839,-13,72,229,0
204850,-22,69,222,0
204861,-30,64,215,0
204872,-37,60,203,0
204883,-45,57,200,0
204894,-52,57,197,0
204905,-53,60,195,0
204916,-44,67,198,0
204927,-35,71,204,0
204938,-27,75,211,0
204949,-17,80,221,0
204960,-10,86,226,0
204971,-11,82,222,0
204982,-19,83,212,0
204993,-27,86,205,0
205004,-29,85,201,0
205015,-28,82,199,0
205026,-26,83,197,0
205037,-22,81,195,0
205048,-14,76,196,0
205059,-9,72,198,0
205070,-2,70,202,0
205081,3,68,201,0
205092,4,67,204,0
205103,15,66,213,0
205114,24,64,228,0
205125,20,52,256,0
205136,-1,55,239,0
205147,-27,84,216,1
205158,-60,102,202,0
205169,-64,111,197,0
205180,-54,106,219,0
205191,-33,87,259,0
205202,-6,66,298,0
205213,7,65,337,0
205224,6,99,379,0
205235,2,133,390,0
205246,6,142,379,0
205257,21,137,342,0
205268,32,118,295,0
205279,75,58,223,1
205290,98,42,190,0
205301,114,36,159,0
205312,114,32,133,0
205323,106,10,116,0
205334,82,13,100,0
205345,65,26,123,0
205356,51,52,161,0
205367,31,70,200,0
205378,13,81,230,0
205389,1,88,261,0
205400,0,92,282,0
205411,0,93,300,0
205422,9,93,294,0
205433,18,86,279,0
205444,26,69,237,0
205455,27,61,221,0
205466,29,65,215,0
205477,32,65,206,0
205488,29,65,205,0
205499,27,66,206,0
205510,24,58,203,0
205522,18,53,200,0
205533,13,46,202,0
205544,5,48,206,0
205555,2,54,209,0
205566,3,57,206,0
205577,7,57,193,0
205588,11,53,190,0
205599,11,48,188,0
205610,11,44,188,0
205621,9,41,184,0
205632,6,37,183,0
205643,8,38,189,0
205654,13,36,188,0
205665,19,40,189,0
205676,13,62,183,0
205687,-2,92,186,0
205698,-19,83,202,0
205709,-22,65,204,0
205720,-14,76,196,0
205731,-44,78,205,0
205742,-57,77,217,0
205753,-58,77,225,0
205764,-51,76,235,0
205775,-52,80,261,0
205786,-52,68,264,0
205797,-49,101,249,1
205808,-66,140,242,0
205819,-88,139,244,0
205830,-92,119,269,0
205841,-82,126,316,0
205852,-65,155,344,0
205864,-65,184,329,0
205875,12,100,344,0
205886,62,121,359,0
205897,77,113,347,0
205908,70,74,309,0
205919,86,34,309,0
205930,109,27,300,0
205941,95,24,256,0
205952,69,-4,188,0
205963,48,-28,138,0
205974,34,-39,122,0
205985,19,-43,118,0
205996,15,-33,122,0
206007,22,-21,137,0
206018,34,-8,163,0
206029,52,13,222,0
206040,54,25,236,0
206051,48,33,233,0
206062,42,40,235,0
206073,32,48,232,0
206084,28,46,221,0
206095,20,41,213,0
206106,7,40,209,0
206117,-3,43,213,0
206128,-8,50,216,0
206139,-5,50,222,0
206150,-7,48,219,0
206161,-9,52,212,0
206172,-3,52,206,0
206183,3,51,206,0
206194,2,45,211,0
206205,-3,45,218,0
206216,-10,49,218,0
206227,-14,48,222,0
206238,-18,53,226,0
206249,-24,56,230,0
206260,-26,53,227,0
206271,-26,47,221,0
206282,-24,42,214,0
206293,-24,41,206,0
206304,-23,43,204,0
206315,-22,48,202,0
206326,-21,55,206,0
206337,-23,59,208,0
206348,-26,57,209,0
206359,-22,55,212,0
206370,-17,55,213,0
206381,-11,51,212,0
206392,-6,49,215,0
206403,-5,51,220,0
206414,-6,53,224,0
206425,-4,55,226,1
206436,-5,51,223,0
206447,-1,43,221,0
206458,0,42,218,0
206469,-5,42,203,0
206480,-18,55,194,0
206491,-35,60,189,0
206502,-34,50,229,0
206513,-21,51,271,0
206524,-3,52,295,0
206535,9,41,319,0
206546,12,40,339,0
206557,4,61,358,0
206568,-3,84,358,0
206579,7,90,350,0
206590,26,88,330,0
206601,47,78,318,0
206612,72,63,291,0
206623,90,47,252,0
206634,101,34,209,0
206645,104,14,175,0
206656,84,6,128,0
206667,66,3,114,0
206678,48,12,124,0
206690,30,29,155,0
206701,20,47,189,0
206712,16,66,227,0
206723,20,81,261,0
206734,26,90,266,0
206745,23,99,267,0
206756,17,101,268,0
206767,16,95,270,0
206778,18,84,266,0
206789,16,72,255,0
206800,4,60,231,0
206811,3,54,217,0
206822,3,53,213,0
206833,8,50,210,0
206844,16,46,206,0
206855,25,46,203,0
206866,31,51,204,0
206877,30,52,201,0
206888,31,55,202,0
206899,27,56,207,0
206910,23,53,210,0
206921,20,53,206,0
206932,18,51,200,0
206943,12,53,194,0
206954,1,50,184,0
206965,-7,47,181,0
206976,-18,50,183,0
206987,-21,51,186,0
206998,-21,62,183,0
207009,-23,75,186,0
207020,-21,67,191,0
207031,-18,51,188,0
207042,-15,54,184,0
207053,-20,75,184,0
207064,-30,87,202,0
207075,-36,78,219,0
207086,-40,72,227,1
207097,-42,73,232,0
207108,-50,72,239,0
207119,-45,68,242,0
207130,-43,75,252,0
207141,-45,72,266,0
207152,-41,73,259,0
207163,-44,83,254,0
207174,-52,93,256,0
207185,-54,85,267,0
207196,-41,83,284,0
207207,-30,94,310,0
207218,-20,108,319,0
207229,-18,119,307,0
207240,-10,106,315,1
207251,17,116,330,0
207262,55,88,316,0
207273,50,49,285,0
207284,46,35,288,0
207295,67,47,290,0
207306,83,32,238,0
207317,66,10,182,0
207328,63,-5,156,0
207339,61,3,146,0
207350,55,7,147,0
207361,40,3,156,0
207372,33,4,175,0
207383,31,12,195,0
207394,37,17,207,0
207405,45,22,213,0
207416,48,24,219,0
207427,31,23,205,0
207438,27,24,203,0
207449,23,37,208,0
207460,20,43,212,0
207471,22,48,215,0
207482,18,49,214,0
207493,15,51,216,0
207504,10,56,216,0
207515,5,56,216,0
207526,2,49,213,0
207537,0,46,211,0
207548,-2,43,210,0
207559,-5,45,209,0
207570,-11,43,206,0
207581,-19,42,210,0
207592,-19,47,217,0
207603,-19,52,221,0
207614,-19,55,225,0
207625,-23,58,228,0
207636,-25,59,229,0
207647,-31,58,227,0
207658,-36,59,225,0
207669,-41,59,225,0
207680,-45,57,220,0
207691,-46,58,217,0
207702,-44,55,212,0
207713,-37,55,210,0
207724,-33,55,207,0
207735,-19,53,202,0
207746,-12,50,203,0
207757,-2,51,207,0
207768,7,54,214,0
207779,13,56,220,0
207790,17,57,224,0
207801,16,56,226,0
207812,14,58,225,0
207823,7,49,222,0
207834,0,41,218,0
207845,-5,38,215,0
207856,-8,38,208,0
207867,-11,40,201,0
207878,-16,50,197,1
207889,-39,53,199,0
207900,-50,49,204,0
207911,-53,35,219,0
207922,-40,35,239,0
207933,-32,46,255,0
207944,-39,46,270,0
207955,-50,43,290,0
207966,-54,60,311,0
207977,-44,83,327,0
207988,-8,112,337,0
207999,36,112,336,0
208010,85,108,340,0
208021,128,108,327,0
208032,149,99,306,0
208043,133,54,238,0
208054,121,28,205,0
208065,95,14,168,0
208076,75,9,147,0
208087,57,15,144,0
208098,41,13,148,0
208109,29,24,165,0
208120,19,33,181,0
208131,14,51,207,0
208142,16,62,231,0
208153,21,73,248,0
208164,34,82,252,0
208175,39,87,257,0
208186,48,80,261,0
208197,36,80,235,0
208208,21,80,228,0
208219,15,68,225,0
208230,13,65,218,0
208241,19,65,218,0
208252,26,66,221,0
208263,32,66,219,0
208274,40,63,217,0
208285,44,61,214,0
208296,41,59,215,0
208307,46,56,214,0
208318,44,57,211,0
208329,41,57,211,0
208340,37,54,209,0
208351,16,52,218,0
208362,10,53,220,0
208373,5,54,220,0
208384,-1,57,219,0
208395,-6,58,221,0
208406,-14,60,217,0
208417,-23,59,218,0
208428,-32,52,222,0
208439,-33,56,226,0
208450,-39,68,223,0
208461,-37,74,220,0
208472,-34,84,217,0
208483,-28,90,216,0
208494,-26,91,215,0
208505,-14,82,214,0
208516,-5,74,210,0
208527,-1,63,207,0
208538,-2,62,202,0
208549,0,58,197,0
208560,0,52,192,0
208571,0,48,193,0
208582,8,47,194,0
208593,9,51,187,0
208604,13,49,187,0
208615,33,45,190,1
208626,43,58,189,0
208637,53,66,198,0
208648,62,77,217,0
208659,61,93,220,0
208670,63,70,243,0
208681,76,66,265,0
208692,82,77,286,0
208703,92,83,306,0
208714,102,83,304,0
208725,105,95,292,0
208736,106,115,296,0
208747,91,140,296,0
208758,63,156,293,0
208769,38,118,280,0
208780,30,64,256,0
208791,19,36,218,0
208802,5,27,197,0
208813,-5,30,181,0
208825,5,27,165,0
208836,25,36,173,0
208847,51,45,192,0
208858,66,66,200,0
208869,64,89,207,0
208880,58,111,220,0
208891,46,114,216,0
208902,35,109,203,0
208913,19,105,192,0
208924,5,100,193,0
208935,-1,96,198,0
208946,-6,95,207,0
208957,-10,102,216,0
208968,-13,101,227,0
208979,-11,97,229,0
208990,1,89,228,0
209001,12,99,218,0
209012,19,100,207,0
209023,25,89,202,0
209034,29,88,205,0
209045,31,87,205,0
209056,34,88,202,0
209067,37,93,206,0
209078,39,94,207,0
209089,39,92,204,0
209100,36,93,203,0
209111,34,93,206,0
209122,30,93,217,0
209133,30,96,214,0
209144,27,95,215,0
209155,23,95,215,0
209166,23,95,216,0
209177,20,96,218,0
209188,20,97,222,0
209199,20,99,222,0
209210,20,96,219,0
209221,23,90,222,0
209232,29,86,223,0
209243,37,84,218,0
209254,40,81,215,0
209265,43,78,218,0
209276,58,76,220,0
209287,63,75,219,0
209298,67,78,218,0
209310,68,78,218,0
209321,66,78,221,0
209332,64,78,222,0
209343,63,80,223,0
209354,55,82,222,0
209365,48,76,221,0
209376,43,74,221,0
209387,34,75,222,0
209398,30,77,219,0
209409,28,78,219,0
209420,25,83,219,0
209431,25,80,221,0
209442,26,81,223,0
209453,29,83,220,0
209464,30,87,218,0
209475,31,87,216,0
209486,31,84,218,0
209497,32,82,222,0
209508,32,81,224,0
209519,31,80,224,0
209530,29,78,224,0
209541,29,79,223,0
209552,29,82,221,0
209563,31,85,217,0
209574,35,86,218,0
209585,38,84,218,0
209596,38,84,217,0
209607,38,82,217,0
209618,38,80,215,0
209629,38,79,211,0
209640,40,80,212,0
209651,41,80,213,0
209662,39,81,217,0
209673,39,82,218,0
209684,38,82,219,0
209695,38,84,220,0
209706,36,84,219,0
209717,35,86,218,0
209728,36,88,216,0
209739,35,83,217,0
209750,34,79,219,0
209761,33,77,221,0
209772,33,76,218,0
209783,33,75,218,0
209794,34,73,218,0
209805,36,76,216,1
209816,41,80,212,0
209827,46,83,211,0
209838,45,81,210,0
209849,40,75,213,0
209860,33,69,212,0
209871,26,71,210,0
209882,18,71,212,0
209893,11,67,213,0
209904,10,66,214,0
209915,12,65,213,0
209926,12,68,215,0
209937,14,68,215,0
209948,14,68,218,1
209959,15,68,220,0
209970,15,70,221,0
209981,13,71,221,0
209992,11,68,221,0
210003,8,63,224,0
210014,2,58,222,0
210025,1,54,218,0
210036,1,47,218,0
210047,5,37,218,0
210058,11,35,223,0
210069,15,34,228,0
210080,19,37,237,0
210091,20,43,250,0
210102,22,48,260,0
210113,21,51,266,0
210124,19,49,273,0
210135,18,47,278,0
210146,17,47,279,0
210157,15,44,276,0
210168,10,40,266,0
210179,5,33,256,0
210190,0,29,244,0
210201,-11,27,229,0
210212,-17,28,224,0
210223,-19,29,221,0
210234,-18,29,219,0
210245,-15,27,210,0
210256,-17,30,210,0
210267,-18,38,207,0
210278,-23,41,207,0
210289,-26,46,208,0
210300,-26,51,212,0
210311,-28,55,215,0
210322,-28,57,220,0
210333,-26,57,223,0
210344,-25,56,222,0
210355,-21,54,226,0
210366,-19,57,227,0
210377,-18,61,228,0
210388,-16,63,228,0
210399,-15,63,228,0
210410,-13,62,228,0
210421,-12,60,228,0
210432,-13,60,224,0
210443,-18,64,220,0
210454,-21,65,220,0
210465,-23,63,217,0
210476,-23,59,215,0
210487,-25,61,213,0
210498,-27,62,210,0
210509,-26,60,206,0
210520,-27,59,205,0
210531,-27,59,206,0
210542,-28,56,204,0
210553,-26,54,202,0
210564,-28,56,205,0
210575,-27,58,207,0
210586,-29,61,209,0
210597,-30,62,213,0
210608,-33,62,216,0
210619,-33,62,220,0
210630,-35,61,224,0
210641,-35,63,229,0
210652,-37,69,233,0
210663,-34,76,223,0
210674,-32,80,215,0
210685,-32,77,213,0
210696,-33,66,223,0
210707,-30,68,222,0
210718,-33,78,223,0
210729,-38,83,223,0
210740,-39,80,222,0
210751,-36,74,223,0
210762,-36,78,224,1
210773,-37,78,224,0
210784,-35,75,227,0
210795,-23,69,246,0
210806,9,60,283,0
210817,45,84,328,0
210828,80,70,344,0
210839,94,75,316,0
210850,83,74,297,0
210861,59,47,266,0
210872,33,29,235,0
210883,8,39,220,0
210894,-4,18,204,0
210905,-15,15,193,0
210916,-17,14,186,0
210927,-5,-2,177,0
210938,36,201,117,0
210949,4,-59,209,0
210960,58,60,207,0
210971,56,5,213,0
210982,74,10,222,0
210994,74,-2,225,0
211005,68,14,229,0
211016,60,-1,218,0
211027,52,8,213,0
211038,44,0,207,0
211049,35,6,208,0
211060,28,9,216,0
211071,25,18,220,0
211082,21,23,225,0
211093,22,27,232,0
211104,23,32,236,0
211115,24,35,235,0
211126,28,40,231,0
211137,27,40,225,0
211148,25,40,224,0
211159,26,42,220,0
211170,22,45,218,0
211181,18,40,220,0
211192,18,42,225,0
211203,17,43,227,0
211214,21,43,230,0
211225,24,41,227,0
211236,25,40,225,0
211247,27,39,228,0
211258,29,41,232,0
211269,29,42,235,0
211280,30,44,235,0
211291,27,46,233,0
211302,30,45,231,0
211313,30,46,229,0
211324,29,48,224,0
211335,25,47,226,0
211346,21,49,228,0
211357,17,49,228,0
211368,11,49,227,0
211379,4,52,231,0
211390,1,52,234,0
211401,1,54,232,0
211412,0,59,233,0
211423,0,64,233,0
211434,-4,76,235,0
211445,-1,76,232,1
211456,0,77,224,0
211467,-1,78,217,0
211478,-5,78,214,0
211489,-5,76,211,0
211500,-1,78,212,0
211511,3,82,215,0
211522,6,86,219,0
211533,1,87,223,0
211544,-1,87,224,0
211555,-2,84,223,0
211566,-1,79,221,0
211577,2,72,218,0
211588,6,-8,230,0
211599,5,-54,243,0
211610,5,-37,226,0
211622,-8,-8,218,0
211633,-2,18,224,0
211644,14,42,233,0
211655,40,53,253,0
211666,66,64,262,0
211677,90,60,258,0
211688,109,48,245,0
211699,124,41,230,0
211710,129,39,217,0
211721,128,33,207,0
211732,99,37,212,0
211743,83,33,220,0
211754,61,30,227,0
211765,41,27,235,0
211776,22,22,243,0
211787,7,22,252,0
211798,1,30,256,0
211809,-2,43,261,0
211820,-15,37,258,0
211831,-29,39,248,0
211842,-31,30,245,0
211853,-31,30,246,0
211864,-24,30,248,0
211875,-19,32,240,0
211886,-11,21,232,0
211897,-1,16,224,0
211908,3,20,218,0
211919,4,24,213,0
211930,6,25,217,0
211941,11,22,223,0
211952,13,27,230,0
211963,17,26,235,0
211974,18,31,229,0
211985,16,31,223,0
211996,13,24,221,0
212007,13,17,216,0
212018,12,14,212,0
212029,9,10,205,0
212040,2,7,206,0
212051,2,7,210,0
212062,1,8,211,0
212073,1,8,215,0
212084,2,5,219,0
212095,6,3,221,0
212106,7,3,220,0
212117,6,2,221,0
212128,9,6,220,0
212139,9,8,221,0
212150,7,10,219,0
212161,6,7,220,0
212172,5,6,220,0
212183,5,9,220,0
212194,4,9,217,0
212205,-2,8,218,0
212216,-6,10,217,0
212227,-9,13,217,0
212238,-11,14,219,0
212249,-13,15,217,0
212260,-12,15,217,0
212271,-12,15,220,0
212282,-15,16,223,0
212293,-19,12,225,0
212304,-19,10,229,0
212315,-16,9,232,0
212326,-12,13,243,1
212337,-9,17,251,0
212348,-5,17,258,0
212359,-5,20,260,0
212370,-3,18,261,0
212381,2,11,265,0
212392,14,10,278,0
212403,33,16,302,0
212414,45,23,313,0
212425,50,21,301,0
212436,49,14,282,0
212447,48,9,268,0
212458,42,10,242,0
212469,37,14,217,0
212480,39,22,206,0
212491,33,17,199,0
212502,19,16,196,0
212513,7,22,214,0
212524,2,29,213,0
212535,-2,30,216,0
212546,-4,30,217,0
212557,-5,30,214,0
212568,-2,35,216,0
212579,6,48,217,0
212590,21,49,224,0
212601,38,48,231,0
212612,51,56,227,0
212623,60,60,224,0
212634,63,62,221,0
212645,64,64,218,0
212656,60,65,217,0
212667,43,71,215,0
212678,33,75,218,0
212689,23,74,220,0
212700,15,76,225,0
212711,12,76,227,0
212722,9,79,226,0
212733,11,76,224,0
212744,13,73,226,0
212755,12,77,222,0
212766,16,76,222,0
212777,25,78,224,0
212788,25,70,225,0
212799,24,74,228,0
212810,24,74,226,0
212821,22,64,223,0
212832,17,65,217,0
212843,13,62,218,0
212854,11,58,220,0
212865,5,58,225,0
212876,1,58,225,0
212887,-1,59,226,0
212898,-3,59,226,0
212909,-8,60,229,0
212920,-10,59,228,0
212931,-13,61,225,0
212942,-18,61,228,0
212953,-22,63,227,0
212964,-25,65,229,0
212975,-19,63,225,0
212986,-16,62,226,0
212997,-12,58,225,0
213008,-6,58,225,0
213019,-7,59,225,0
213030,-7,57,225,0
213041,-8,55,224,0
213052,-9,52,225,0
213063,-12,54,224,0
213074,-14,52,224,0
213085,-13,55,222,0
213096,-13,57,221,0
213107,-12,57,220,0
213118,-10,58,221,0
213129,-10,59,223,0
213140,-10,57,223,0
213151,-12,55,222,0
213162,-12,55,218,0
213173,-14,55,217,0
213184,-16,56,214,0
213195,-20,59,213,0
213206,-22,59,214,0
213217,-26,59,216,0
213228,-29,61,218,0
213239,-31,59,220,0
213250,-36,56,223,0
213261,-40,56,222,1
213272,-40,55,225,0
213283,-38,53,228,0
213294,-36,51,226,0
213305,-33,53,223,0
213316,-23,55,220,0
213327,-9,62,215,0
213338,-1,67,218,0
213349,4,65,224,0
213360,2,58,235,0
213371,1,43,240,0
213382,-1,35,245,0
213393,-11,22,249,0
213404,-24,10,256,0
213415,-32,10,262,0
213426,-23,21,268,0
213437,7,48,268,0
213448,45,53,290,0
213459,52,51,300,0
213470,64,58,295,0
213481,75,78,285,0
213492,79,85,274,0
213503,88,65,252,0
213514,90,44,227,0
213525,91,35,203,0
213536,88,24,188,0
213547,83,16,177,0
213558,74,18,175,0
213569,64,18,180,0
213581,56,28,210,0
213592,52,39,227,0
213603,48,48,239,0
213614,47,54,245,0
213625,42,60,253,0
213636,38,64,257,0
213647,36,57,256,0
213658,31,54,254,0
213669,29,48,250,0
213680,33,42,255,0
213691,36,44,260,0
213702,40,37,257,0
213713,40,28,250,0
213724,40,29,246,0
213735,41,30,246,0
213746,45,31,234,0
213757,46,30,226,0
213768,46,32,222,0
213779,47,41,220,0
213790,50,41,218,0
213801,55,37,219,0
213812,57,39,218,0
213823,51,40,214,0
213834,46,35,210,0
213845,39,31,207,0
213856,28,27,206,0
213867,18,24,199,0
213878,9,21,193,0
213889,8,22,194,0
213900,16,28,202,0
213911,27,31,206,0
213922,34,38,207,0
213933,40,39,211,0
213944,41,38,211,0
213955,36,38,213,0
213966,30,35,216,0
213977,23,34,216,0
213988,18,35,219,0
213999,15,31,220,0
214010,14,30,218,0
214021,15,28,221,0
214032,23,26,223,0
214043,28,26,220,0
214054,32,29,216,0
214065,33,25,213,0
214076,37,20,217,0
214087,43,17,231,1
214098,55,19,241,0
214109,68,26,242,0
214120,75,37,250,0
214131,78,41,261,0
214142,80,41,265,0
214153,81,37,263,0
214164,81,33,254,0
214175,77,35,243,0
214186,67,38,231,0
214197,60,34,222,0
214208,51,24,214,0
214219,47,23,213,0
214230,43,22,213,0
214241,43,22,212,1
214252,45,23,214,0
214263,48,26,215,0
214274,53,27,220,0
214285,56,33,222,0
214296,59,39,224,0
214307,61,39,228,0
214318,62,36,229,0
214329,62,36,230,0
214340,63,36,230,0
214351,63,34,229,0
214362,58,33,229,0
214373,57,35,228,0
214384,56,35,225,0
214395,57,33,221,0
214406,58,29,220,0
214417,57,28,217,0
214429,59,26,217,0
214440,59,28,219,0
214451,62,29,222,0
214462,62,29,223,0
214473,64,31,224,0
214484,66,33,223,0
214495,70,33,223,0
214506,72,31,221,0
214517,71,31,220,0
214528,70,29,221,0
214539,68,30,220,0
214550,68,31,222,0
214561,67,30,221,0
214572,67,31,223,0
214583,67,31,223,0
214594,66,33,224,0
214605,65,34,225,0
214616,64,34,225,0
214627,63,34,226,0
214638,61,32,224,0
214649,60,29,226,0
214660,60,30,224,0
214671,60,30,223,0
214682,60,30,222,0
214693,61,30,224,0
214705,60,30,224,0
214716,60,30,224,0
214727,58,31,225,0
214738,59,30,225,0
214749,60,29,225,0
214760,59,29,224,0
214771,61,28,223,0
214782,62,29,223,0
214793,63,29,223,0
214804,62,28,224,0
214815,61,30,225,0
214826,62,30,225,0
214837,60,32,224,0
214848,61,30,224,0
214859,60,29,225,0
214870,60,28,224,0
214881,57,28,225,0
214892,58,28,224,0
214903,56,27,227,0
214914,58,27,227,0
214925,62,29,228,0
214936,62,31,229,0
214947,62,31,226,0
214958,59,28,224,0
214969,57,27,223,0
214980,54,27,223,0
214991,54,27,223,0
215002,53,28,222,0
215013,54,29,224,0
215024,53,29,224,0
215035,53,28,227,0
215046,54,29,227,0
215057,52,29,227,0
215068,51,30,228,0
215079,47,31,226,0
215090,44,31,228,0
215101,41,30,228,0
215112,38,30,230,0
215123,37,31,232,0
215134,36,30,232,0
215145,38,29,231,0
215156,40,30,230,0
215167,43,31,231,0
215178,47,29,230,0
215189,50,31,227,0
215200,52,31,225,0
215211,52,29,227,0
215222,54,27,226,0
215233,57,25,227,0
215244,58,26,227,0
215255,60,27,227,0
215266,61,28,228,0
215277,64,28,228,0
215288,63,28,227,0
215299,62,29,228,0
215310,61,30,226,0
215321,63,28,225,0
215332,62,29,226,0
215343,65,29,224,0
215354,65,28,223,0
215365,67,26,223,0
215376,67,26,220,0
215387,68,25,220,0
215398,68,26,219,0
215409,67,25,217,0
215420,67,26,219,0
215431,64,29,221,0
215442,63,29,223,0
215453,63,29,224,0
215464,62,29,225,0
215475,63,30,225,0
215486,62,31,225,0
215497,62,31,225,0
215508,62,29,225,0
215519,60,29,223,0
215530,60,27,223,0
215541,60,27,223,0
215552,61,26,223,0
215563,59,27,224,0
215574,59,26,225,0
215585,59,24,225,0
215596,60,25,226,0
215607,60,27,227,0
215618,60,29,228,0
215629,58,30,228,0
215640,58,31,226,0
215651,57,29,226,0
215662,54,30,225,0
215673,52,29,224,0
215684,49,29,227,0
215695,48,28,227,0
215706,47,29,226,0
215717,47,30,229,0
215728,46,30,228,0
215739,51,29,226,0
215750,53,27,227,0
215761,55,26,226,0
215772,58,26,225,0
215783,58,27,226,0
215794,61,28,223,0
215805,60,30,224,0
215816,60,29,224,0
215827,59,28,224,0
215838,57,27,223,0
215849,56,27,225,0
215860,55,27,226,0
215871,56,29,226,0
215882,57,28,224,0
215893,57,28,226,0
215904,56,29,225,0
215915,55,29,226,0
215926,53,29,227,0
215937,51,28,228,0
215948,50,27,227,0
215959,50,27,228,0
215970,50,29,227,0
215981,52,28,227,0
215992,53,28,227,0
216003,55,29,227,0
216014,58,27,226,0
216025,60,28,224,0
216036,60,28,224,0
216047,59,29,223,0
216058,57,28,225,0
216069,56,28,225,0
216080,55,26,225,0
216091,55,27,226,0
216102,55,24,225,0
216113,55,26,225,0
216124,56,26,228,0
216135,57,26,228,0
216146,59,28,226,0
216157,57,29,227,0
216168,58,30,227,0
216179,56,32,226,0
216190,55,32,222,0
216201,52,32,223,0
216212,49,29,226,0
216223,50,27,225,0
216234,50,29,227,0
216245,52,29,225,0
216256,52,30,226,0
216267,53,30,227,0
216278,53,29,227,0
216289,53,30,228,0
216300,52,30,229,0
216311,52,29,227,0
216322,52,29,225,0
216333,51,29,224,0
216344,52,26,223,0
216355,53,25,223,0
216366,57,26,225,0
216377,58,26,226,0
216388,60,29,226,0
216399,60,31,227,0
216410,61,30,226,0
216421,62,30,227,0
216432,61,30,226,0
216443,59,29,226,0
216454,55,30,226,0
216465,51,30,224,0
216476,49,30,223,0
216487,47,29,225,0
216498,49,29,226,0
216509,50,29,226,0
216520,56,29,226,0
216531,59,29,228,0
216542,59,29,225,0
216553,61,29,225,0
216564,61,31,224,0
216575,61,30,224,0
216586,60,31,222,0
216597,59,31,222,0
216608,58,29,222,0
216619,56,28,220,0
216630,56,28,222,0
216641,55,28,221,0
216652,53,30,224,0
216663,56,29,225,0
216674,55,28,229,0
216685,55,30,230,0
216696,53,29,229,0
216707,51,34,227,0
216718,51,36,228,0
216729,49,34,226,0
216740,46,32,226,0
216751,43,31,225,0
216762,41,30,224,0
216773,39,32,224,0
216784,40,31,225,0
216795,40,29,228,0
216806,42,29,228,0
216817,42,29,229,0
216828,44,27,229,0
216839,42,28,231,0
216850,41,31,230,0
216861,39,32,229,0
216872,40,31,228,0
216883,40,30,226,0
216894,40,28,225,0
216905,39,25,226,0
216916,40,23,228,0
216927,40,23,229,0
216938,42,25,229,0
216949,47,30,229,0
216960,49,32,230,0
216971,51,32,227,0
216982,45,27,227,0
216993,41,26,227,0
217004,39,25,230,0
217015,41,24,232,0
217026,43,27,231,0
217037,45,28,231,0
217048,52,29,230,0
217059,55,35,232,0
217070,54,38,232,0
217081,52,36,230,0
217092,50,35,229,0
217103,46,31,227,0
217114,41,27,224,0
217125,39,27,222,0
217136,46,27,221,0
217147,54,27,223,0
217158,60,28,226,0
217169,60,29,229,0
217181,57,30,229,0
217192,51,36,231,0
217203,44,38,229,0
217214,39,35,228,0
217225,37,35,225,0
217236,41,34,224,0
217247,45,35,223,0
217258,52,37,227,0
217269,57,37,229,0
217280,58,31,227,0
217291,57,32,226,0
217302,54,30,224,0
217313,50,30,226,0
217324,49,29,225,0
217335,50,27,225,0
217346,56,26,224,0
217357,62,32,224,0
217368,62,39,229,0
217379,59,38,230,0
217390,50,38,230,0
217401,40,37,227,0
217412,31,35,225,0
217423,25,33,224,0
217434,27,28,226,0
217445,34,27,231,0
217456,39,27,229,0
217467,42,31,228,0
217478,44,30,227,0
217489,43,29,229,0
217500,42,28,230,0
217511,40,28,229,0
217522,40,28,229,0
217533,43,29,231,0
217544,55,18,232,0
217555,62,18,230,0
217566,63,31,225,0
217577,64,38,225,0
217588,66,35,226,0
217599,62,33,225,0
217610,56,27,223,0
217621,51,26,222,0
217632,50,26,224,0
217643,55,24,227,0
217654,62,25,229,0
217665,65,29,231,0
217676,59,36,234,0
217687,66,46,221,0
217698,62,22,221,0
217709,64,21,228,0
217720,59,26,220,0
217731,54,22,219,0
217742,50,19,218,0
217753,54,24,222,0
217764,54,25,222,0
217775,48,28,226,0
217786,42,27,230,0
217797,36,26,230,0
217808,34,28,230,0
217819,33,31,230,0
217830,33,32,227,0
217841,37,31,228,0
217852,39,31,227,0
217863,42,29,226,0
217874,43,30,229,0
217885,44,27,231,0
217896,45,27,231,0
217907,43,21,229,0
217918,48,22,229,0
217929,54,21,225,0
217940,60,19,223,0
217951,66,20,224,0
217962,69,23,225,0
217973,70,22,225,0
217984,67,23,223,0
217995,62,24,222,0
218006,59,30,225,0
218017,55,33,231,0
218028,47,28,232,0
218039,39,24,235,0
218050,36,23,236,0
218061,34,30,233,0
218072,33,33,237,0
218083,33,34,235,0
218094,33,36,236,0
218105,33,35,234,0
218116,31,33,231,0
218127,29,28,230,0
218138,29,24,230,0
218149,29,22,236,0
218160,39,14,244,0
218171,45,14,242,0
218182,51,16,231,0
218193,50,27,225,0
218204,46,30,226,0
218215,46,17,232,0
218226,45,18,230,0
218237,41,22,228,0
218248,35,26,229,0
218259,30,28,232,0
218270,23,29,235,0
218281,16,27,241,0
218292,14,17,247,0
218303,21,15,237,0
218314,19,28,228,0
218325,14,24,225,0
218336,11,16,223,0
218347,9,20,221,0
218358,5,22,223,0
218369,3,28,229,0
218380,2,25,231,0
218391,6,17,231,0
218402,5,16,228,0
218413,5,8,222,0
218424,3,9,214,0
218435,3,15,211,0
218446,5,17,215,0
218457,12,17,219,0
218468,20,14,226,0
218479,27,8,230,0
218491,34,11,226,0
218502,41,15,222,0
218513,50,19,208,0
218524,56,23,205,0
218535,61,36,191,0
218546,67,59,193,0
218557,61,32,238,0
218568,52,33,202,0
218579,47,90,201,0
218590,54,63,210,0
218601,43,58,219,0
218612,42,67,232,0
218623,42,62,236,0
218634,40,73,241,0
218645,41,62,248,0
218656,46,62,243,0
218667,47,56,229,0
218678,49,58,220,0
218689,44,63,216,0
218700,38,62,216,0
218711,37,65,219,0
218722,37,69,224,0
218733,40,72,226,0
218744,42,75,226,0
218755,43,75,225,0
218766,42,78,225,0
218777,39,81,228,0
218788,35,82,228,0
218799,32,79,225,0
218810,27,76,225,0
218821,29,75,223,0
218832,35,78,225,0
218843,39,82,225,0
218854,42,83,224,0
218865,41,86,219,0
218876,40,84,215,0
218887,41,85,207,0
218898,41,85,206,0
218909,41,86,204,0
218920,45,86,207,0
218931,48,87,211,0
218942,50,90,213,0
218953,52,97,218,0
218964,52,97,217,0
218975,51,97,218,0
218986,51,98,218,0
218997,48,101,214,0
219008,48,102,214,0
219019,50,103,211,0
219030,49,104,208,0
219041,51,102,208,0
219052,54,105,206,0
219063,55,109,207,0
219074,55,110,207,0
219085,56,114,209,0
219096,59,112,208,0
219107,62,114,208,0
219118,64,114,205,0
219129,64,114,204,0
219140,64,113,204,0
219151,64,116,203,0
219162,65,118,200,0
219173,65,119,199,0
219184,62,123,198,0
219195,59,125,198,0
219206,53,128,198,0
219217,46,133,195,0
219228,41,135,194,1
219239,34,133,194,0
219250,22,128,194,0
219261,9,126,197,0
219272,1,124,198,0
219283,0,124,199,0
219294,7,109,205,0
219305,11,103,202,0
219316,22,107,201,0
219327,42,112,190,0
219338,46,83,191,0
219349,44,67,202,1
219360,43,51,211,0
219371,46,40,212,0
219382,51,43,216,0
219393,69,51,232,0
219404,100,55,251,0
219415,125,59,271,0
219426,134,61,284,0
219437,127,65,291,0
219448,86,63,307,0
219459,64,57,305,0
219470,50,55,299,0
219481,42,47,292,0
219492,43,29,278,0
219503,44,21,257,0
219514,43,20,237,0
219525,36,20,224,0
219536,31,20,215,0
219547,26,20,213,0
219558,27,22,212,0
219569,29,29,213,0
219580,36,38,214,0
219591,38,44,211,0
219602,37,64,195,0
219613,36,66,193,0
219624,32,66,194,0
219635,30,66,193,0
219646,25,65,193,0
219657,24,64,191,0
219668,25,62,192,0
219679,24,63,197,0
219690,24,60,200,0
219701,25,57,204,0
219712,27,57,207,0
219723,27,58,209,0
219734,28,59,210,0
219745,28,60,209,0
219756,26,59,216,0
219767,27,60,220,0
219778,25,61,227,0
219789,26,61,228,0
219800,26,61,226,0
219811,27,58,223,0
219822,29,59,213,0
219833,32,57,205,0
219844,31,56,201,0
219855,31,54,201,0
219866,30,50,204,0
219877,27,50,205,0
219888,23,52,204,0
219899,19,49,208,0
219910,7,50,214,0
219921,2,50,216,0
219932,0,51,221,0
219943,-1,57,225,0
219954,-4,60,228,0
219965,-9,62,229,0
219976,-14,65,230,0
219987,-18,67,226,0
219998,-19,68,223,0
220009,-21,68,222,0
220020,-22,69,222,0
220031,-26,71,221,0
220042,-30,69,223,0
220053,-34,70,223,0
220064,-44,69,228,0
220075,-49,68,235,0
220086,-51,69,236,0
220097,-53,69,237,0
220108,-54,72,238,0
220119,-54,74,235,0
220130,-58,77,235,0
220141,-59,71,235,0
220152,-55,66,236,1
220163,-40,65,244,0
220174,-16,65,255,0
220185,11,68,277,0
220196,44,90,318,0
220207,67,120,343,0
220218,77,120,341,0
220229,70,72,289,0
220240,77,50,291,0
220251,78,56,285,0
220262,65,65,270,0
220273,35,64,243,0
220284,22,38,198,0
220295,4,25,165,0
220306,-1,11,157,0
220317,16,5,154,0
220328,24,7,154,0
220339,32,0,161,0
220350,44,-3,176,0
220361,58,1,191,0
220372,68,2,203,0
220383,81,5,224,0
220394,70,8,227,0
220405,54,14,225,0
220416,34,18,219,0
220427,15,25,220,0
220438,8,34,225,0
220449,5,37,222,0
220460,4,35,217,0
220471,10,37,219,0
220482,15,36,220,0
220493,15,43,219,0
220504,14,42,219,0
220516,13,45,220,0
220527,19,41,218,0
220538,23,42,219,0
220549,24,46,222,0
220560,23,51,220,0
220571,21,50,220,0
220582,20,54,219,0
220593,20,55,220,0
220604,17,56,224,0
220615,12,62,226,0
220626,8,63,229,0
220637,3,65,227,0
220648,0,63,228,0
220659,-3,62,228,0
220670,-6,61,227,0
220681,-12,56,225,0
220692,-14,56,223,0
220703,-16,55,221,0
220714,-19,54,223,0
220725,-20,50,225,0
220736,-20,50,224,0
220747,-20,50,223,0
220758,-20,47,219,0
220769,-18,47,217,0
220780,-17,45,217,0
220791,-16,44,214,0
220802,-14,43,213,0
220813,-11,45,212,0
220824,-7,49,210,0
220835,-8,54,214,0
220846,-8,56,219,0
220857,-8,53,221,0
220868,-9,55,225,0
220879,-12,51,224,0
220890,-15,46,223,0
220901,-14,44,224,0
220912,-18,41,225,0
220923,-24,39,227,0
220934,-28,34,229,0
220945,-33,33,228,0
220956,-37,39,226,0
220967,-44,42,227,1
220978,-51,42,225,0
220989,-45,45,234,0
221000,-32,52,237,0
221011,-21,58,239,0
221022,-7,51,245,0
221033,-8,36,268,0
221044,-22,22,305,0
221055,-32,36,312,0
221066,-16,67,284,0
221077,-6,90,273,0
221088,20,97,277,0
221099,52,71,299,1
221110,90,60,302,0
221121,119,64,282,0
221132,117,64,260,0
221143,95,64,214,0
221154,84,67,201,0
221165,77,72,197,0
221176,70,72,199,0
221187,59,68,211,0
221198,54,64,220,0
221209,46,66,228,0
221220,35,66,234,0
221231,29,64,231,0
221242,19,66,236,0
221253,18,67,233,0
221264,12,67,234,0
221275,8,64,236,0
221286,8,65,229,0
221297,12,64,225,0
221308,21,56,200,0
221319,29,56,201,0
221330,43,54,195,0
221341,50,54,195,0
221352,55,54,194,0
221363,55,57,195,0
221374,51,57,194,0
221385,46,53,196,0
221397,45,62,202,0
221408,41,62,202,0
221419,33,62,199,0
221430,28,56,200,0
221441,13,60,190,0
221452,5,57,187,0
221463,0,57,185,0
221474,-2,55,180,0
221485,-6,55,180,0
221496,-5,55,178,0
221507,-8,56,179,0
221518,-9,58,181,0
221529,-12,60,184,0
221540,-14,60,188,0
221551,-17,62,194,0
221562,-22,64,202,0
221573,-32,66,216,0
221584,-37,66,227,0
221595,-38,65,233,0
221606,-33,68,249,0
221617,-40,75,260,0
221628,-43,86,268,0
221639,-47,89,264,0
221650,-55,90,255,0
221661,-61,89,258,0
221672,-63,87,269,0
221683,-67,92,263,0
221694,-67,87,263,0
221705,-54,71,277,1
221716,-31,65,287,0
221727,-18,70,278,0
221738,-8,80,278,0
221749,19,85,299,0
221760,87,101,320,0
221771,67,80,290,0
221782,60,56,244,0
221793,99,155,280,0
221804,95,-53,289,0
221815,106,74,207,0
221826,73,-10,169,1
221837,62,12,170,0
221848,56,16,168,0
221859,46,27,169,0
221870,29,11,172,0
221881,26,19,185,0
221892,32,18,196,0
221903,42,25,200,0
221914,56,25,200,0
221925,57,26,203,0
221936,50,29,202,0
221947,41,34,200,0
221958,36,39,203,0
221969,37,47,210,0
221980,38,55,213,0
221991,41,56,218,0
222002,38,56,222,0
222013,36,56,226,0
222024,36,55,222,0
222035,40,56,213,0
222046,39,56,207,0
222057,38,56,205,0
222068,23,60,208,0
222079,13,59,214,0
222090,4,58,219,0
222101,-2,60,222,0
222112,-12,60,224,0
222123,-16,59,223,0
222134,-17,57,224,0
222145,-19,56,225,0
222157,-18,58,228,0
222168,-16,59,226,0
222179,-14,59,222,0
222190,-14,60,218,0
222201,-15,60,218,0
222212,-21,62,219,0
222223,-27,61,219,0
222234,-32,55,220,0
222245,-35,47,217,0
222256,-37,42,214,0
222267,-38,46,213,0
222278,-38,48,203,0
222289,-41,53,200,0
222300,-40,54,198,0
222312,-24,67,196,0
222323,-15,72,207,0
222334,-5,64,217,0
222345,0,65,224,0
222356,7,64,229,0
222367,9,50,234,0
222378,3,41,232,0
222389,-20,39,235,0
222400,-45,41,232,0
222411,-56,44,225,0
222422,-64,47,225,0
222433,-51,49,228,1
222444,-31,52,230,0
222455,-3,46,241,0
222466,19,31,260,0
222477,25,26,293,0
222488,50,44,298,0
222499,69,75,282,0
222510,48,41,325,0
222521,55,38,323,0
222532,70,45,283,0
222543,91,56,254,0
222554,105,65,235,1
222565,96,68,214,0
222576,75,74,209,0
222587,60,80,191,0
222598,43,89,184,0
222609,30,104,209,0
222620,16,120,257,0
222631,-8,109,271,0
222642,-41,114,257,0
222653,-50,97,271,0
222664,-41,81,273,0
222675,-28,72,266,0
222686,-5,58,246,0
222697,12,51,224,0
222708,25,47,208,0
222719,39,46,191,0
222730,51,48,182,0
222741,62,45,164,0
222752,66,48,163,0
222763,68,52,170,0
222774,65,55,170,0
222785,55,56,183,0
222796,48,58,190,0
222807,34,60,194,0
222818,8,59,197,0
222829,-2,61,198,0
222840,-7,59,197,0
222851,-12,59,200,0
222862,-19,59,199,0
222873,-23,53,199,0
222884,-26,50,196,0
222895,-28,47,192,0
222906,-34,43,192,0
222917,-39,40,195,0
222929,-41,41,198,0
222940,-44,41,203,0
222951,-47,42,207,0
222962,-57,54,210,0
222973,-62,62,211,0
222984,-66,66,218,0
222995,-66,64,227,0
223006,-59,60,245,0
223017,-40,63,257,0
223028,-28,65,262,0
223039,-28,73,264,0
223050,-33,73,258,0
223061,-51,75,257,1
223072,-62,62,278,0
223083,-61,61,310,0
223094,-58,66,329,0
223105,-52,84,323,0
223116,-22,81,349,0
223127,-2,92,343,0
223138,26,90,324,0
223149,47,60,305,0
223160,59,23,293,0
223171,69,27,276,1
223182,73,58,226,0
223193,77,24,185,0
223204,70,30,163,0
223215,62,29,157,0
223226,49,27,159,0
223237,40,16,159,0
223248,36,7,159,0
223259,28,9,170,0
223270,51,19,186,0
223281,63,28,196,0
223292,74,37,205,0
223303,70,48,211,0
223314,60,53,217,0
223325,51,54,220,0
223336,46,53,218,0
223347,41,61,223,0
223358,42,63,229,0
223369,41,60,227,0
223380,35,57,225,0
223391,29,55,218,0
223402,27,54,214,0
223413,21,57,209,0
223424,18,55,207,0
223435,4,58,205,0
223446,-6,60,208,0
223457,-15,60,214,0
223468,-25,60,216,0
223479,-33,60,218,0
223490,-42,62,222,0
223501,-46,62,221,0
223512,-47,62,223,0
223523,-45,63,222,0
223534,-43,62,224,0
223545,-39,62,224,0
223556,-33,61,222,0
223567,-30,62,224,0
223578,-31,62,226,0
223589,-35,60,220,0
223600,-37,58,217,0
223611,-40,58,214,0
223622,-43,57,213,0
223633,-45,54,211,0
223644,-42,50,202,0
223655,-34,50,196,0
223666,-26,52,198,0
223677,-22,59,199,0
223688,-19,62,200,0
223699,-17,59,205,0
223710,-10,62,214,0
223721,-1,63,220,0
223732,-2,60,221,0
223743,-36,45,216,0
223754,-47,45,212,0
223765,-51,45,220,0
223776,-38,54,237,1
223787,-19,59,259,0
223798,7,49,274,0
223809,25,31,282,0
223820,22,21,296,0
223831,20,25,298,0
223842,31,35,286,0
223853,33,27,290,0
223864,30,9,327,0
223875,47,21,357,0
223886,69,47,341,0
223897,133,71,293,0
223908,148,64,253,0
223919,150,61,214,0
223930,139,55,180,0
223941,128,49,157,0
223952,107,32,142,0
223963,79,28,144,0
223974,53,33,170,0
223985,28,47,200,0
223996,6,55,232,0
224007,-19,53,244,0
224018,-47,75,256,0
224029,-51,62,276,0
224040,-56,64,280,0
224051,-36,64,253,0
224062,-24,55,235,0
224073,-8,50,223,0
224084,5,40,201,0
224095,17,34,186,0
224106,29,35,176,0
224117,40,38,167,0
224128,47,38,164,0
224139,51,40,165,0
224150,50,46,171,0
224161,40,46,182,0
224172,30,46,191,0
224183,16,51,198,0
224194,4,54,209,0
224205,-16,52,214,0
224216,-22,50,212,0
224227,-26,50,209,0
224238,-29,50,210,0
224249,-34,50,207,0
224260,-36,47,201,0
224271,-42,47,196,0
224282,-45,46,193,0
224293,-50,51,195,0
224304,-57,53,201,0
224315,-64,53,207,0
224326,-71,57,213,0
224337,-80,59,217,0
224348,-85,60,220,0
224359,-97,63,224,0
224370,-98,68,228,0
224381,-84,76,240,0
224392,-71,74,240,0
224403,-53,67,245,0
224414,-34,57,257,0
224425,-17,35,257,0
224436,-13,39,252,0
224447,-24,50,256,1
224458,-34,44,261,0
224469,-35,37,276,0
224480,-35,37,292,0
224491,-28,32,303,0
224502,-24,48,307,0
224513,-11,60,311,0
224524,27,79,327,0
224535,34,89,327,0
224546,43,94,326,0
224557,51,75,316,0
224568,53,55,308,0
224579,43,38,272,0
224590,22,25,206,0
224601,13,-7,166,0
224612,9,-37,158,0
224623,2,-1,158,0
224634,10,5,164,0
224645,24,-1,164,0
224656,34,13,166,0
224667,47,20,169,0
224678,80,27,194,0
224689,87,41,200,0
224700,91,51,202,0
224711,90,63,202,0
224722,79,61,202,0
224733,65,68,203,0
224744,56,62,214,0
224755,43,64,224,0
224766,28,61,233,0
224777,17,56,236,0
224788,11,55,233,0
224799,17,54,229,0
224810,20,52,225,0
224821,20,51,222,0
224832,14,60,226,0
224843,8,62,227,0
224854,0,65,228,0
224865,-5,64,225,0
224876,-16,64,220,0
224887,-22,64,220,0
224898,-26,58,219,0
224909,-25,58,214,0
224920,-21,58,211,0
224931,-18,60,209,0
224942,-11,62,210,0
224953,-5,62,208,0
224964,-1,62,214,0
224975,1,59,218,0
224986,-1,58,219,0
224997,0,55,219,0
225008,-2,54,216,0
225019,-6,55,212,0
225030,-10,54,214,0
225041,-17,54,213,0
225052,-22,56,217,0
225063,-24,63,221,0
225074,-27,65,224,0
225085,-27,66,227,0
225096,-24,68,228,0
225107,-19,67,227,0
225118,-14,68,225,0
225129,-12,66,227,0
225140,-2,58,220,0
225151,1,53,211,0
225162,4,50,207,0
225173,11,51,204,0
225184,15,56,204,0
225195,15,59,210,0
225206,10,57,214,0
225217,5,56,220,0
225228,0,59,223,0
225239,3,63,216,1
225250,10,62,222,0
225261,0,32,256,0
225272,0,30,280,0
225283,-2,40,273,0
225294,-18,32,290,0
225305,18,45,326,0
225316,58,74,324,0
225327,82,94,316,0
225338,91,102,306,0
225349,93,97,277,0
225360,94,79,243,0
225371,102,53,210,0
225382,100,33,192,1
225393,87,18,167,0
225404,71,3,140,0
225415,57,-2,135,0
225426,42,1,144,0
225437,27,14,167,0
225448,10,27,189,0
225459,-15,75,254,0
225470,-14,93,271,0
225481,-6,109,281,0
225492,2,107,282,0
225503,12,98,280,0
225514,21,85,271,0
225525,26,71,259,0
225536,24,64,249,0
225547,21,56,231,0
225558,19,55,219,0
225569,18,54,210,0
225580,22,52,209,0
225591,29,51,205,0
225602,33,49,202,0
225613,41,46,199,0
225624,41,47,200,0
225635,38,44,199,0
225646,33,44,202,0
225657,24,46,203,0
225668,15,49,203,0
225679,4,53,202,0
225690,-3,53,201,0
225701,-13,52,196,0
225712,-22,48,192,0
225723,-26,44,191,0
225734,-30,41,189,0
225745,-31,44,188,0
225756,-37,55,190,0
225767,-39,45,207,0
225778,-38,59,205,0
225789,-46,89,213,0
225800,-41,85,213,0
225811,-48,81,208,0
225822,-56,76,216,0
225833,-60,70,225,0
225844,-62,68,231,0
225855,-60,69,240,0
225866,-50,60,239,0
225877,-37,65,242,0
225888,-39,60,262,0
225899,-30,44,268,0
225910,-17,56,253,0
225921,-46,83,227,0
225932,-43,73,231,1
225943,-36,98,249,0
225954,-23,105,273,0
225965,-19,107,275,0
225976,-19,103,267,0
225987,-12,96,275,0
225998,8,98,300,0
226009,29,105,321,0
226020,34,111,321,0
226031,27,106,299,0
226042,28,69,292,0
226053,50,42,288,0
226064,63,52,267,0
226075,36,19,189,1
226086,26,31,175,0
226097,24,27,178,0
226108,20,26,179,0
226119,17,36,183,0
226130,28,35,185,0
226141,44,29,185,0
226152,46,38,192,0
226163,48,46,199,0
226174,49,53,204,0
226185,44,53,205,0
226196,40,55,202,0
226207,35,51,199,0
226218,35,48,196,0
226229,32,56,201,0
226240,34,64,217,0
226251,44,64,225,0
226262,48,62,230,0
226273,50,64,236,0
226284,49,63,237,0
226295,42,64,233,0
226306,35,61,225,0
226317,28,58,218,0
226328,17,56,214,0
226339,8,55,207,0
226350,2,51,205,0
226361,-4,48,205,0
226372,-7,49,206,0
226383,-4,48,210,0
226394,0,52,221,0
226405,3,58,227,0
226416,5,60,229,0
226427,5,62,230,0
226438,3,63,228,0
226449,-1,65,226,0
226460,-4,65,225,0
226471,-9,66,222,0
226482,-9,64,220,0
226493,-8,63,221,0
226504,-3,61,221,0
226515,-1,57,219,0
226526,1,53,217,0
226537,7,50,218,0
226548,19,52,223,0
226559,25,55,226,0
226570,29,58,228,0
226581,35,63,230,0
226593,35,65,225,0
226604,31,72,224,0
226615,21,71,222,0
226626,13,64,224,0
226637,4,58,222,0
226648,-1,52,218,0
226659,-10,53,210,0
226670,-14,54,207,0
226681,-15,53,207,0
226692,-14,62,220,1
226703,-14,64,225,0
226714,-15,64,229,0
226725,-16,65,225,0
226736,-15,66,224,0
226747,-4,63,217,0
226758,24,64,206,0
226769,42,53,220,0
226780,49,33,250,0
226791,52,30,263,0
226802,25,40,281,0
226813,-11,61,314,0
226824,-17,92,325,1
226835,-7,111,315,0
226846,61,109,301,0
226857,99,90,277,0
226868,134,81,249,0
226879,140,63,214,0
226890,129,37,189,0
226901,109,15,178,0
226912,81,6,162,0
226923,52,16,161,0
226934,25,32,172,0
226945,6,45,190,0
226956,-7,58,209,0
226967,-14,64,225,0
226978,-9,72,235,0
226989,4,78,241,0
227000,37,91,253,0
227011,43,80,249,0
227022,38,72,248,0
227033,29,64,242,0
227044,18,63,238,0
227055,12,59,226,0
227066,10,63,218,0
227077,12,64,209,0
227088,17,63,205,0
227099,24,63,202,0
227110,32,62,202,0
227121,39,62,207,0
227132,42,68,217,0
227143,41,71,221,0
227154,27,74,226,0
227165,19,72,223,0
227176,11,71,219,0
227187,6,66,211,0
227198,0,67,203,0
227209,-1,65,198,0
227220,2,61,192,0
227231,2,59,186,0
227242,-8,50,178,0
227253,14,28,182,0
227264,24,52,187,0
227275,25,61,180,0
227286,22,67,182,0
227297,16,74,193,0
227308,11,76,203,0
227319,-4,79,213,0
227330,-7,71,222,0
227341,-4,82,219,0
227352,-22,105,215,0
227363,-35,82,229,0
227374,-35,65,234,0
227385,-34,62,239,0
227396,-24,58,239,0
227407,-18,58,233,0
227418,-22,75,226,0
227429,-37,104,231,0
227440,-54,132,250,0
227451,-75,150,252,0
227462,-82,139,261,0
227473,-79,113,280,0
227484,-72,117,280,0
227495,-63,111,281,1
227506,-31,101,273,0
227517,7,84,282,0
227528,28,89,284,0
227539,49,83,290,0
227550,78,72,318,0
227561,109,75,344,0
227572,117,67,336,0
227583,110,36,271,0
227594,94,9,209,0
227605,71,1,177,0
227616,51,-5,154,1
227627,23,-2,130,0
227638,23,14,147,0
227649,26,20,161,0
227660,35,36,177,0
227671,48,43,191,0
227682,59,57,212,0
227693,69,60,217,0
227704,66,64,215,0
227715,58,62,214,0
227726,49,57,206,0
227737,38,58,209,0
227748,28,62,216,0
227759,17,66,221,0
227771,2,71,236,0
227782,0,67,237,0
227793,0,67,229,0
227804,1,63,218,0
227815,1,60,206,0
227826,1,62,200,0
227837,1,60,196,0
227848,1,62,199,0
227859,5,65,200,0
227870,10,68,205,0
227881,14,71,211,0
227892,14,76,215,0
227903,15,81,222,0
227914,13,84,228,0
227925,8,87,229,0
227936,3,88,225,0
227947,0,86,219,0
227958,-5,89,217,0
227969,-10,90,215,0
227980,-9,88,218,0
227991,-8,80,218,0
228002,-8,80,216,0
228013,-6,76,210,0
228024,-1,72,208,0
228035,4,71,205,0
228046,11,72,205,0
228057,21,71,205,0
228068,35,73,210,0
228079,45,72,224,0
228090,44,72,229,0
228101,40,67,229,0
228112,35,63,226,0
228123,27,59,223,0
228134,22,58,220,0
228145,14,57,217,0
228156,5,60,212,0
228167,-9,67,206,0
228178,-29,75,203,0
228189,-38,88,200,0
228200,-46,97,213,0
228211,-42,106,236,0
228222,-31,110,255,0
228233,-19,111,282,0
228244,1,95,307,1
228255,1,95,311,0
228266,-5,99,315,0
228277,-4,104,314,0
228288,11,114,306,0
228299,36,115,288,0
228310,57,109,276,0
228321,79,98,256,0
228332,99,82,231,0
228343,112,64,207,1
228354,113,41,187,0
228365,107,20,161,0
228376,104,5,144,0
228387,95,-1,135,0
228398,65,0,142,0
228409,54,6,158,0
228420,47,14,180,0
228432,38,24,203,0
228443,37,44,231,0
228454,38,62,254,0
228465,39,84,276,0
228476,35,99,290,0
228487,24,106,294,0
228498,17,105,287,0
228509,11,94,275,0
228520,7,77,260,0
228531,0,63,252,0
228542,-2,53,234,0
228553,-1,53,222,0
228564,2,53,212,0
228575,5,54,210,0
228586,13,50,204,0
228597,18,55,199,0
228608,20,55,192,0
228619,21,56,191,0
228630,22,57,192,0
228641,23,58,194,0
228652,26,59,197,0
228663,24,58,196,0
228674,23,58,198,0
228685,19,59,199,0
228696,21,57,192,0
228707,17,57,187,0
228718,17,57,189,0
228729,16,61,194,0
228740,13,62,201,0
228751,14,64,207,0
228762,13,64,213,0
228773,11,61,217,0
228784,7,60,217,0
228795,1,59,221,0
228806,-8,61,226,0
228817,-17,65,225,0
228828,-26,69,223,0
228839,-33,72,227,0
228850,-52,73,232,0
228861,-56,68,234,0
228872,-59,64,236,0
228883,-57,48,236,0
228894,-47,36,223,0
228905,-39,49,207,0
228916,-37,57,216,0
228927,-27,39,221,0
228938,-22,52,198,0
228949,-29,89,186,0
228960,-52,112,200,1
228971,-63,106,237,0
228982,-65,113,265,0
228993,-62,112,289,0
229004,-25,101,307,0
229015,4,110,329,0
229026,33,107,374,0
229037,65,129,398,0
229048,85,152,413,0
229059,88,122,387,0
229070,95,68,340,0
229081,95,9,282,0
229092,70,6,219,0
229103,50,-4,168,0
229114,34,-16,138,0
229125,26,-22,126,0
229136,26,-25,121,0
229147,25,-6,122,0
229158,29,14,146,0
229169,38,27,177,0
229180,50,40,211,0
229191,64,53,242,0
229202,74,56,256,0
229213,76,51,259,0
229224,61,41,242,0
229235,50,29,221,0
229246,40,20,207,0
229257,26,25,202,0
229268,21,31,206,0
229279,26,35,211,0
229290,32,38,212,0
229301,35,37,214,0
229312,40,43,215,0
229323,49,40,208,0
229334,45,41,205,0
229345,41,44,212,0
229356,34,53,216,0
229367,25,51,224,0
229378,16,52,224,0
229389,4,49,221,0
229400,-3,51,216,0
229411,-11,48,216,0
229422,-15,46,217,0
229433,-20,49,216,0
229444,-25,54,218,0
229455,-27,60,221,0
229466,-30,61,224,0
229477,-29,60,226,0
229488,-25,53,221,0
229499,-22,54,220,0
229510,-21,52,218,0
229521,-19,51,221,0
229532,-17,53,223,0
229543,-16,56,227,0
229554,-13,57,229,0
229565,-13,57,226,0
229576,-11,56,222,0
229587,-10,53,219,0
229598,-8,56,219,0
229609,-7,58,222,0
229620,-4,57,220,0
229631,-1,53,216,0
229642,1,58,214,0
229653,4,65,214,0
229664,3,67,218,0
229675,1,69,223,0
229686,-4,67,225,0
229697,-12,62,226,0
229708,-17,60,222,0
229719,-22,57,219,0
229730,-26,57,216,0
229741,-29,61,215,0
229752,-32,65,214,1
229763,-33,67,218,0
229774,-30,69,225,0
229785,-20,73,226,0
229796,-7,75,220,0
229807,-1,70,220,0
229818,-2,63,232,0
229829,-11,56,241,0
229840,-17,50,236,0
229851,-29,38,240,0
229862,-44,27,250,0
229873,-50,25,260,0
229884,-39,33,259,0
229895,-16,57,259,1
229906,-2,60,270,0
229917,16,32,302,0
229928,52,24,307,0
229939,77,45,299,0
229950,108,75,292,0
229961,116,66,279,0
229972,115,56,261,0
229983,113,48,240,0
229994,112,41,216,0
230005,110,23,198,0
230016,111,2,188,0
230027,108,-8,182,0
230038,95,-9,174,0
230049,78,-4,172,0
230060,69,-2,180,0
230071,64,15,191,0
230082,62,29,215,0
230093,50,43,230,0
230104,28,56,241,0
230115,21,62,249,0
230126,11,64,259,0
230137,4,70,265,0
230148,5,81,273,0
230159,7,84,282,0
230170,12,83,276,0
230181,14,85,266,0
230192,10,82,253,0
230203,10,71,241,0
230215,6,66,227,0
230226,4,62,213,0
230237,2,53,211,0
230248,12,45,204,0
230259,16,42,200,0
230270,20,42,200,0
230281,20,37,200,0
230292,19,35,204,0
230303,17,34,211,0
230314,14,32,214,0
230325,8,34,216,0
230336,6,31,215,0
230347,8,29,209,0
230358,7,35,202,0
230369,4,41,198,0
230380,5,44,197,0
230391,7,44,203,0
230402,12,35,220,0
230413,16,30,225,0
230424,14,26,228,0
230435,11,24,229,0
230447,7,28,231,0
230458,3,40,234,0
230469,-2,53,233,0
230480,-8,61,230,0
230491,-12,59,231,0
230502,-17,53,230,0
230513,-20,52,226,0
230524,-26,53,221,0
230535,-33,50,217,0
230546,-47,54,199,0
230557,-47,55,192,0
230568,-47,56,188,0
230579,-42,54,185,0
230590,-30,47,192,0
230601,-13,56,194,0
230612,-2,62,205,0
230623,14,65,229,0
230634,31,75,259,0
230645,48,84,297,1
230656,58,91,319,0
230667,60,93,321,0
230678,49,84,304,0
230689,30,66,275,0
230700,9,41,227,0
230711,2,39,211,0
230722,-1,37,205,0
230733,-2,37,198,0
230744,-3,39,198,0
230755,0,40,195,0
230766,6,40,193,1
230777,17,37,196,0
230788,29,39,204,0
230799,38,41,212,0
230810,46,42,222,0
230821,50,48,226,0
230832,50,52,232,0
230843,51,56,236,0
230854,37,59,239,0
230865,29,59,237,0
230876,27,56,235,0
230887,24,56,229,0
230898,23,58,226,0
230909,23,58,226,0
230920,24,55,228,0
230931,28,50,227,0
230942,31,49,227,0
230953,35,48,224,0
230964,38,49,223,0
230975,41,47,221,0
230986,39,48,221,0
230997,39,51,219,0
231008,38,56,223,0
231019,37,56,227,0
231030,36,55,230,0
231041,34,52,232,0
231052,33,51,233,0
231063,33,50,230,0
231074,31,49,230,0
231085,31,48,228,0
231096,28,50,228,0
231107,27,50,228,0
231118,26,50,226,0
231129,26,51,225,0
231140,26,50,225,0
231151,25,50,224,0
231162,25,50,225,0
231173,21,52,227,0
231184,20,53,226,0
231195,18,53,226,0
231206,18,52,226,0
231217,17,53,227,0
231228,18,54,226,0
231239,20,54,228,0
231250,20,53,228,0
231261,22,52,228,0
231272,22,51,228,0
231283,23,50,228,0
231294,21,51,227,0
231305,22,52,227,0
231316,21,52,227,0
231327,19,52,225,0
231338,17,53,224,0
231349,17,54,224,0
231360,14,55,228,0
231371,14,56,230,0
231382,14,56,227,0
231393,14,57,229,0
231404,14,56,229,0
231415,13,55,229,0
231426,14,55,229,0
231437,13,55,228,0
231448,14,54,229,0
231460,16,53,227,0
231471,15,51,226,0
231482,16,51,224,0
231493,15,52,226,0
231504,13,54,229,0
231515,11,53,231,0
231526,10,54,229,0
231537,8,51,226,0
231548,7,50,224,0
231559,4,51,223,0
231570,3,52,222,0
231581,3,52,223,0
231592,1,55,224,0
231603,0,56,226,0
231614,0,58,230,0
231625,1,56,230,0
231636,1,57,229,0
231647,3,56,229,0
231658,4,55,227,0
231669,3,54,223,0
231680,3,53,223,0
231691,3,52,222,0
231702,2,52,223,0
231713,3,54,226,0
231724,3,54,228,0
231735,4,53,227,0
231746,8,53,226,0
231757,10,53,227,0
231768,14,52,228,0
231779,19,55,228,0
231790,22,50,227,0
231801,23,44,227,0
231812,27,46,228,0
231823,37,52,232,0
231834,41,53,234,0
231845,38,51,233,0
231856,37,51,232,0
231867,31,48,233,0
231878,32,53,231,0
231889,32,50,230,0
231900,28,48,228,0
231911,27,51,228,0
231922,31,42,226,0
231933,38,54,226,0
231944,41,52,224,0
231955,41,52,226,0
231966,34,49,224,0
231977,19,47,221,0
231988,4,45,220,0
231999,-9,46,223,0
232010,-19,51,228,0
232021,-28,60,229,0
232032,-33,60,230,0
232043,-32,60,229,0
232054,-27,58,228,0
232065,-18,54,231,0
232076,-9,54,232,0
232087,-1,54,232,0
232098,14,52,232,0
232109,18,50,231,0
232120,22,50,228,0
232131,23,48,225,0
232142,23,48,224,0
232153,21,51,222,0
232164,21,52,220,0
232175,20,53,220,0
232186,20,51,222,0
232197,21,51,221,0
232208,21,53,222,0
232219,21,51,223,0
232230,21,52,228,0
232241,23,53,232,0
232252,24,57,235,0
232263,23,56,233,0
232274,22,55,231,0
232285,20,53,228,0
232296,19,54,229,0
232307,20,53,228,0
232318,17,52,227,0
232329,17,52,226,0
232340,18,51,225,0
232351,18,51,222,0
232363,21,50,223,0
232374,23,51,226,0
232385,23,51,225,0
232396,23,53,226,0
232407,23,52,226,0
232418,20,52,227,0
232429,17,54,229,0
232440,18,56,230,0
232451,15,57,229,0
232462,13,56,226,0
232473,13,56,227,0
232484,14,56,226,0
232495,14,56,225,0
232506,14,58,226,0
232517,16,59,227,0
232528,14,59,229,0
232539,12,61,227,0
232550,12,58,226,0
232561,10,59,225,0
232572,9,59,225,0
232583,9,60,225,0
232594,9,60,226,0
232605,9,60,225,0
232616,9,60,225,0
232627,9,60,226,0
232638,11,59,226,0
232649,12,60,227,0
232660,13,58,228,0
232671,13,57,226,0
232682,15,58,226,0
232693,15,56,225,0
232704,13,56,225,0
232715,13,54,226,0
232726,13,56,226,0
232737,11,57,225,0
232748,12,56,226,0
232759,11,57,226,0
232770,11,56,226,0
232781,11,58,226,0
232792,15,57,227,0
232803,15,56,227,0
232814,15,56,228,0
232825,15,57,227,0
232836,15,56,227,0
232847,15,55,226,0
232858,15,55,225,0
232869,15,56,225,0
232880,14,57,225,0
232891,13,58,226,0
232902,12,56,225,0
232913,12,56,224,0
232924,10,57,226,0
232935,8,57,226,0
232946,10,57,227,0
232957,11,57,227,0
232968,11,57,226,0
232979,12,58,224,0
232990,13,58,225,0
233001,14,57,226,0
233012,13,58,227,0
233023,15,56,225,0
233034,15,56,227,0
233045,14,55,226,0
233056,16,56,225,0
233067,17,55,226,0
233078,17,56,226,0
233089,16,55,226,0
233100,18,56,226,0
233111,18,55,227,0
233122,20,56,226,0
233133,18,55,227,0
233144,17,54,227,0
233155,18,56,226,0
233166,18,55,225,0
233177,18,55,226,0
233188,18,56,226,0
233199,18,55,226,0
233210,16,55,226,0
233221,16,56,226,0
233232,15,57,226,0
233243,13,55,227,0
233254,12,56,226,0
233265,12,56,226,0
233276,12,55,227,0
233287,12,56,228,0
233298,12,55,228,0
233309,13,54,228,0
233320,15,54,228,0
233331,16,55,225,0
233342,16,55,225,0
233353,17,56,224,0
233364,17,56,226,0
233375,17,56,225,0
233386,17,54,226,0
233397,18,55,226,0
233408,18,55,227,0
233419,18,54,227,0
233430,19,54,226,0
233441,20,54,227,0
233452,20,54,227,0
233463,21,55,227,0
233474,20,55,227,0
233485,19,55,227,0
233497,18,56,227,0
233508,17,55,228,0
233519,17,55,227,0
233530,16,55,226,0
233541,15,57,226,0
233552,14,57,226,0
233563,13,56,226,0
233574,12,56,226,0
233585,13,55,226,0
233596,11,56,226,0
233607,10,57,226,0
233618,11,57,226,0
233629,10,56,226,0
233640,10,55,227,0
233651,10,56,228,0
233662,12,55,228,0
233673,12,55,228,0
233684,15,54,227,0
233695,14,55,227,0
233706,17,55,226,0
233717,18,56,225,0
233728,17,55,226,0
233739,17,55,226,0
233750,16,55,226,0
233761,16,55,226,0
233772,16,57,227,0
233783,17,55,228,0
233794,17,54,227,0
233805,17,55,227,0
233816,18,55,228,0
233827,17,55,226,0
233838,16,56,227,0
233849,16,55,224,0
233860,16,56,226,0
233871,14,55,226,0
233882,12,57,225,0
233893,10,56,225,0
233904,12,56,226,0
233915,12,56,227,0
233926,12,57,225,0
233937,11,56,227,0
233948,12,55,227,0
233959,12,55,225,0
233970,14,53,227,0
233981,14,54,226,0
233992,14,54,227,0
234003,15,55,227,0
234014,14,54,227,0
234025,16,53,227,0
234036,15,54,226,0
234047,17,54,227,0
234058,17,55,226,0
234069,15,55,226,0
234080,15,54,225,0
234091,13,57,227,0
234102,12,55,229,0
234113,13,53,227,0
234124,13,52,227,0
234135,13,52,227,0
234146,14,53,227,0
234157,15,55,227,0
234168,15,55,226,0
234179,14,55,226,0
234190,14,55,226,0
234201,13,55,226,0
234212,13,56,227,0
234223,13,54,227,0
234234,11,54,227,0
234245,10,54,228,0
234256,13,56,227,0
234267,13,55,228,0
234278,13,56,226,0
234289,12,57,226,0
234300,13,56,227,0
234311,14,56,225,0
234323,14,56,225,0
234334,13,55,227,0
234345,15,54,225,0
234356,15,55,224,0
234367,16,55,225,0
234378,16,54,226,0
234389,16,55,227,0
234400,15,55,226,0
234411,14,55,227,0
234422,15,56,227,0
234433,15,58,226,0
234444,14,57,226,0
234455,13,57,227,0
234466,12,56,226,0
234477,12,56,225,0
234488,12,56,228,0
234499,10,56,227,0
234510,11,57,226,0
234521,11,55,226,0
234532,10,56,225,0
234543,12,58,228,0
234554,12,57,225,0
234565,10,57,226,0
234576,12,55,227,0
234587,15,53,226,0
234598,14,56,226,0
234609,14,55,226,0
234620,13,55,226,0
234631,15,55,226,0
234642,15,57,226,0
234653,15,55,226,0
234664,16,55,225,0
234675,13,54,225,0
234686,13,55,227,0
234697,12,54,227,0
234708,13,53,227,0
234719,14,52,230,0
234730,16,54,230,0
234741,18,56,229,0
234752,18,59,225,0
234763,16,59,224,0
234774,16,59,225,0
234785,14,58,224,0
234796,12,56,224,0
234807,11,57,224,0
234818,11,56,225,0
234829,11,55,225,0
234840,12,56,225,0
234851,12,56,225,0
234862,13,56,227,0
234873,14,57,226,0
234884,14,58,226,0
234895,14,57,227,0
234906,12,58,226,0
234917,14,55,227,0
234928,14,54,227,0
234939,14,55,226,0
234950,15,55,227,0
234961,16,56,226,0
234972,17,53,225,0
234983,16,53,226,0
234994,18,54,226,0
235005,17,56,228,0
235016,18,55,227,0
235027,18,53,225,0
235038,17,53,227,0
235049,16,54,226,0
235060,16,53,228,0
235071,17,55,227,0
235082,18,55,227,0
235093,19,54,227,0
235104,19,54,226,0
235115,19,55,225,0
235126,20,54,226,0
235137,19,54,226,0
235148,19,54,225,0
235159,19,55,226,0
235170,17,56,226,0
235181,17,53,227,0
235192,17,54,227,0
235203,16,54,227,0
235214,15,54,226,0
235225,14,56,226,0
235236,15,55,226,0
235247,13,56,226,0
235258,14,56,226,0
235269,14,55,226,0
235280,14,55,226,0
235291,15,56,225,0
235302,14,55,227,0
235313,16,54,226,0
235324,15,54,226,0
235335,16,54,226,0
235346,17,54,226,0
235357,16,56,225,0
235368,15,56,226,0
235379,15,54,227,0
235390,15,57,227,0
235401,16,56,226,0
235412,16,54,226,0
235423,16,55,227,0
235434,15,55,227,0
235445,16,55,226,0
235456,15,56,226,0
235467,15,55,227,0
235478,15,55,226,0
235489,15,55,225,0
235500,14,57,225,0
235511,13,56,225,0
235522,13,56,227,0
235533,13,55,228,0
235544,13,57,227,0
235555,14,55,226,0
235566,15,54,226,0
235577,14,54,226,0
235588,14,55,226,0
235599,15,56,227,0
235610,15,56,226,0
235621,14,56,226,0
235632,12,58,227,0
235643,12,58,225,0
235654,11,57,227,0
235665,13,57,226,0
235676,11,56,227,0
235687,14,56,228,0
235698,14,56,227,0
235709,15,57,227,0
235720,15,55,225,0
235731,15,56,226,0
235742,14,55,226,0
235753,15,55,226,0
235764,14,55,225,0
235775,16,54,226,0
235786,16,55,226,0
235797,16,55,226,0
235808,15,56,227,0
235819,14,57,226,0
235830,15,56,226,0
235841,14,56,226,0
235852,14,56,226,0
235863,14,55,226,0
235874,12,56,227,0
235885,13,55,225,0
235896,12,55,226,0
235907,12,54,227,0
235918,12,55,225,0
235929,13,56,226,0
235940,13,56,226,0
235951,12,57,227,0
235962,14,56,226,0
235973,15,56,227,0
235984,17,55,227,0
235995,18,55,227,0
236006,18,54,225,0
236017,17,55,225,0
236028,17,55,226,0
236039,17,55,227,0
236050,16,56,225,0
236061,16,55,226,0
236072,14,56,227,0
236083,14,55,227,0
236094,13,57,226,0
236105,14,56,226,0
236116,13,56,224,0
236127,13,56,226,0
236138,13,57,226,0
236149,13,56,225,0
236160,14,55,225,0
236171,13,56,225,0
236182,12,59,227,0
236193,11,56,226,0
236204,12,56,227,0
236215,12,56,227,0
236226,11,55,227,0
236237,12,55,227,0
236248,12,55,227,0
236259,13,55,227,0
236270,16,55,227,0
236281,15,55,225,0
236292,15,56,226,0
236303,14,56,227,0
236314,15,55,225,0
236325,17,55,227,0
236336,16,56,226,0
236347,16,55,225,0
236358,17,55,226,0
236369,18,55,225,0
236380,18,54,226,0
236391,19,54,226,0
236402,19,55,227,0
236413,19,55,228,0
236424,19,54,227,0
236435,15,55,226,0
236446,12,57,226,0
236457,12,56,227,0
236468,12,55,227,0
236479,12,57,227,0
236490,14,56,226,0
236501,15,56,227,0
236512,17,54,226,0
236523,17,55,227,0
236534,17,56,226,0
236545,18,56,226,0
236557,16,56,226,0
236568,16,54,226,0
236579,16,53,227,0
236590,15,54,227,0
236601,15,54,225,0
236612,16,55,227,0
236623,17,54,227,0
236634,17,55,227,0
236645,16,56,227,0
236656,15,55,228,0
236667,15,55,226,0
236678,14,55,226,0
236689,15,54,227,0
236700,14,55,226,0
236711,14,55,227,0
236722,13,55,226,0
236733,14,55,226,0
236744,14,55,226,0
236755,13,55,226,0
236766,14,55,226,0
236777,15,56,227,0
236788,15,55,226,0
236799,15,55,226,0
236810,15,56,226,0
236821,16,55,226,0
236832,16,56,226,0
236843,16,55,227,0
236854,15,56,227,0
236865,17,57,226,0
236876,15,56,227,0
236887,16,56,226,0
236898,14,56,226,0
236909,14,55,226,0
236920,14,57,227,0
236931,13,57,226,0
236942,13,56,226,0
236953,13,56,226,0
236964,13,55,226,0
236975,12,56,225,0
236986,12,56,225,0
236997,12,56,228,0
237008,12,55,227,0
237019,11,57,226,0
237030,11,57,227,0
237041,13,55,226,0
237052,13,55,226,0
237063,13,56,226,0
237074,14,53,227,0
237085,14,55,226,0
237096,14,55,227,0
237107,15,55,226,0
237118,16,56,227,0
237129,15,56,226,0
237140,16,56,227,0
237151,15,56,227,0
237162,15,56,227,0
237173,16,56,226,0
237184,17,56,227,0
237195,15,56,226,0
237206,15,55,226,0
237217,15,55,226,0
237228,14,56,227,0
237239,14,56,225,0
237250,14,55,226,0
237261,14,55,227,0
237272,14,56,226,0
237283,13,55,227,0
237294,14,56,226,0
237305,13,56,226,0
237316,14,55,227,0
237327,14,55,226,0
237338,15,55,226,0
237349,15,55,227,0
237360,16,55,226,0
237371,17,56,227,0
237382,18,55,227,0
237393,18,54,227,0
237404,18,53,226,0
237415,19,54,227,0
237426,18,54,226,0
237437,18,55,226,0
237448,17,54,226,0
237459,18,54,226,0
237470,16,56,226,0
237481,15,56,227,0
237492,14,55,227,0
237503,12,55,227,0
237514,13,55,227,0
237525,13,56,227,0
237536,12,56,227,0
237547,13,55,227,0
237558,13,56,225,0
237570,13,57,227,0
237581,12,57,227,0
237592,15,56,228,0
237603,14,56,226,0
237614,13,57,225,0
237625,14,56,227,0
237636,13,56,226,0
237647,13,56,225,0
237658,13,55,226,0
237669,13,55,227,0
237680,13,56,227,0
237691,12,57,226,0
237702,11,56,227,0
237713,10,57,225,0
237724,9,56,227,0
237735,10,54,226,0
237746,10,56,225,0
237757,12,56,226,0
237768,14,55,227,0
237779,14,54,227,0
237790,14,55,227,0
237801,16,55,226,0
237812,18,54,226,0
237823,19,54,226,0
237834,18,55,227,0
237845,19,54,226,0
237856,18,55,227,0
237867,17,54,226,0
237878,16,54,227,0
237889,16,55,225,0
237900,16,56,228,0
237911,15,56,229,0
237922,14,57,228,0
237933,14,56,226,0
237944,13,56,226,0
237955,14,57,226,0
237966,14,57,227,0
237977,13,55,224,0
237988,11,56,225,0
237999,10,56,225,0
238010,11,55,227,0
238021,12,54,228,0
238032,13,55,226,0
238043,14,54,227,0
238054,14,54,227,0
238065,14,55,228,0
238076,14,56,228,0
238087,14,56,226,0
238098,14,57,226,0
238109,14,56,227,0
238120,14,55,227,0
238131,16,55,226,0
238142,15,54,228,0
238153,16,54,226,0
238164,17,54,226,0
238175,17,55,226,0
238186,17,55,227,0
238197,17,55,227,0
238208,16,55,226,0
238219,16,54,227,0
238230,16,55,226,0
238241,17,55,227,0
238252,16,55,226,0
238263,18,54,227,0
238274,18,55,226,0
238285,18,54,227,0
238296,18,55,227,0
238307,18,55,226,0
238318,17,55,227,0
238329,16,56,226,0
238340,15,55,226,0
238351,13,55,228,0
238362,13,55,226,0
238373,13,55,225,0
238384,13,55,227,0
238395,13,56,226,0
238406,12,54,227,0
238417,11,55,227,0
238428,13,55,227,0
238439,12,55,228,0
238450,10,56,227,0
238461,11,54,227,0
238473,11,56,226,0
238484,12,54,226,0
238495,11,55,226,0
238506,12,55,226,0
238517,11,55,226,0
238528,11,55,227,0
238539,12,56,227,0
238550,13,56,227,0
238561,14,55,228,0
238572,14,55,228,0
238583,16,55,226,0
238594,16,55,226,0
238605,15,55,226,0
238616,15,56,226,0
238627,14,56,226,0
238638,16,54,227,0
238649,16,55,227,0
238660,15,55,226,0
238671,15,55,226,0
238682,15,55,226,0
238693,14,55,226,0
238704,15,55,227,0
238715,14,56,227,0
238726,15,54,228,0
238737,13,54,227,0
238748,12,55,228,0
238759,13,53,225,0
238770,13,54,227,0
238781,12,55,225,0
238792,13,54,227,0
238803,14,52,226,0
238814,13,54,226,0
238825,14,53,226,0
238836,14,55,228,0
238847,14,55,227,0
238858,15,53,228,0
238869,15,54,228,0
238880,15,56,227,0
238891,14,55,228,0
238902,14,56,228,0
238913,15,55,226,0
238924,14,54,225,0
238935,15,55,225,0
238946,15,55,225,0
238957,15,55,227,0
238968,16,56,226,0
238979,16,55,226,0
238990,15,55,226,0
239001,16,57,227,0
239012,16,56,228,0
239023,15,57,227,0
239034,17,55,226,0
239045,16,55,226,0
239056,15,54,227,0
239067,14,54,226,0
239078,15,54,225,0
239089,14,55,226,0
239100,15,55,225,0
239111,16,54,225,0
239122,15,53,225,0
239133,15,56,225,0
239144,15,56,228,0
239155,15,55,228,0
239166,15,55,227,0
239177,13,55,227,0
239188,14,55,227,0
239199,14,55,227,0
239210,14,54,228,0
239221,13,54,226,0
239232,15,55,228,0
239243,15,55,227,0
239254,16,54,226,0
239265,15,56,226,0
239276,15,56,227,0
239287,15,56,227,0
239298,15,55,227,0
239309,15,55,226,0
239320,15,55,226,0
239331,16,54,227,0
239342,15,55,227,0
239353,15,55,226,0
239364,16,55,227,0
239375,16,54,226,0
239386,15,55,227,0
239397,14,56,226,0
239408,15,55,226,0
239419,14,54,227,0
239430,14,54,227,0
239441,14,54,226,0
239452,15,54,226,0
239463,14,55,228,0
239474,14,55,227,0
239485,13,55,228,0
239496,14,55,227,0
239507,13,54,227,0
239518,14,54,226,0
239529,14,53,227,0
239540,14,54,226,0
239551,13,55,226,0
239562,13,54,226,0
239573,14,55,228,0
239584,12,56,225,0
239595,11,55,226,0
239606,12,54,227,0
239617,13,54,227,0
239628,13,54,227,0
239639,12,54,228,0
239650,12,55,227,0
239661,13,55,225,0
239672,13,56,227,0
239683,14,55,226,0
239694,14,55,226,0
239705,15,53,226,0
239716,15,55,227,0
239727,17,54,227,0
239738,17,55,227,0
239749,18,54,226,0
239760,18,54,228,0
239771,18,55,228,0
239782,19,54,227,0
239793,17,54,228,0
239804,17,54,228,0
239815,17,55,227,0
239826,16,54,225,0
239837,14,55,225,0
239848,13,55,226,0
239859,11,57,226,0
239870,10,56,225,0
239881,8,57,228,0
239892,8,56,228,0
239903,8,56,228,0
239914,9,57,227,0
239925,9,56,226,0
239937,9,56,226,0
239948,10,56,227,0
239959,12,53,226,0
239970,12,55,224,0
239981,13,54,225,0
239992,14,54,226,0
240003,16,54,225,0
240015,17,55,226,0
240026,16,55,227,0
240037,18,54,228,0
240048,18,55,229,0
240059,20,54,229,0
240070,18,53,226,0
240081,19,53,228,0
240092,18,56,227,0
240103,17,54,227,0
240114,17,54,225,0
240125,14,55,225,0
240136,13,56,224,0
240147,11,55,225,0
240158,11,55,228,0
240169,10,55,229,0
240180,10,55,228,0
240191,10,55,229,0
240202,10,55,228,0
240213,10,55,226,0
240224,10,54,226,0
240235,9,55,226,0
240246,9,55,226,0
240257,10,56,227,0
240268,9,55,224,0
240279,11,55,227,0
240290,12,55,227,0
240301,14,55,226,0
240312,15,55,228,0
240323,18,54,227,0
240335,19,55,227,0
240346,20,55,228,0
240357,19,55,226,0
240368,20,55,226,0
240379,19,55,227,0
240390,18,56,225,0
240401,17,55,225,0
240412,15,56,226,0
240423,12,56,226,0
240434,11,56,226,0
240445,11,56,228,0
240456,11,56,228,0
240467,11,55,228,0
240479,10,55,227,0
240490,10,54,228,0
240501,11,55,226,0
240512,11,56,226,0
240523,11,55,226,0
240534,13,55,226,0
240545,14,54,227,0
240556,14,54,225,0
240567,16,53,226,0
240578,15,54,226,0
240589,16,54,226,0
240600,16,54,229,0
240611,16,55,227,0
240622,16,54,227,0
240633,15,56,228,0
240644,14,55,225,0
240655,16,55,227,0
240666,14,56,225,0
240677,12,57,225,0
240688,12,56,225,0
240699,10,57,227,0
240710,9,56,226,0
240721,9,56,226,0
240732,8,56,227,0
240743,8,56,227,0
240754,10,56,227,0
240765,11,56,227,0
240776,13,56,225,0
240787,14,57,226,0
240798,15,55,226,0
240809,16,54,226,0
240820,15,54,225,0
240831,16,53,227,0
240842,17,53,226,0
240853,16,53,225,0
240864,19,53,225,0
240875,17,56,228,0
240886,16,55,229,0
240897,15,55,228,0
240908,14,54,227,0
240919,16,53,226,0
240930,16,54,227,0
240941,17,55,225,0
240952,17,55,226,0
240963,16,54,225,0
240974,15,54,225,0
240985,15,54,226,0
240997,14,54,227,0
241008,14,55,226,0
241019,12,55,227,0
241030,12,54,228,0
241041,11,55,228,0
241052,12,55,229,0
241063,12,55,230,0
241074,12,53,230,0
241085,13,53,227,0
241096,13,53,226,0
241107,11,55,225,0
241118,11,54,228,0
241129,10,54,229,0
241140,10,53,228,0
241151,11,54,229,0
241162,10,55,229,0
241173,13,54,226,0
241184,12,55,224,0
241195,14,53,225,0
241206,14,51,226,0
241217,14,53,227,0
241228,12,53,227,0
241239,13,51,227,0
241250,11,50,226,0
241261,12,52,226,0
241272,11,51,225,0
241283,12,49,225,0
241294,13,49,223,0
241305,14,50,223,0
241316,15,52,225,0
241327,16,53,224,0
241338,15,49,227,0
241349,13,47,228,0
241360,13,45,232,0
241371,14,47,231,0
241382,15,47,230,0
241393,14,53,226,0
241404,14,57,224,0
241415,14,56,224,0
241426,14,53,224,0
241437,12,48,227,0
241448,13,51,226,0
241459,14,56,225,0
241470,14,55,226,0
241481,15,53,226,0
241492,14,49,227,0
241503,13,49,227,0
241514,13,56,224,0
241525,10,56,222,0
241536,6,54,224,0
241547,4,53,226,0
241558,4,57,225,0
241569,3,59,226,0
241580,5,60,224,0
241591,8,60,224,0
241602,7,61,220,0
241613,7,63,221,0
241624,10,64,222,0
241635,13,65,221,0
241646,12,65,220,0
241657,11,65,221,0
241668,11,65,221,0
241679,11,66,221,0
241690,12,67,221,0
241701,13,66,222,0
241712,15,69,223,0
241723,19,68,222,0
241734,21,69,223,0
241745,23,69,224,0
241756,25,68,222,0
241767,28,69,221,0
241778,30,67,221,0
241789,30,69,218,0
241800,26,67,220,0
241811,23,65,223,0
241822,20,64,221,0
241833,14,65,218,0
241844,8,66,219,0
241855,5,65,219,0
241866,1,68,222,0
241877,-4,72,224,0
241888,-7,73,225,0
241899,-10,74,225,0
241910,-10,73,222,0
241921,-13,74,222,0
241932,-14,74,220,0
241943,-16,76,217,0
241954,-16,76,217,0
241965,-14,77,216,0
241976,-11,78,217,0
241987,-7,76,219,0
241998,-6,78,216,0
242009,-2,78,219,0
242020,-1,80,216,0
242031,-1,81,215,0
242042,0,82,214,0
242053,1,84,212,0
242064,0,87,211,0
242075,0,87,213,0
242086,0,91,216,0
242097,0,91,218,0
242108,0,91,215,0
242119,0,89,211,0
242130,0,90,210,0
242141,0,88,210,0
242152,-1,95,211,0
242163,-3,96,212,0
242174,-5,95,212,0
242185,-5,96,214,0
242196,-1,96,217,0
242207,1,96,220,0
242218,6,96,217,0
242229,11,100,214,0
242240,14,99,215,0
242251,9,98,218,0
242262,3,97,223,0
242273,-2,107,220,0
242284,-6,117,218,0
242295,-3,114,222,1
242306,-3,109,236,0
242317,-4,110,250,0
242328,-6,107,253,0
242339,-16,91,256,0
242350,-30,75,271,0
242361,-37,75,288,0
242372,-23,85,298,0
242383,8,94,305,0
242394,38,99,308,0
242405,55,95,307,0
242416,63,87,294,0
242427,62,81,272,0
242438,61,56,215,0
242449,65,36,193,0
242460,70,23,180,0
242471,78,8,173,0
242482,78,1,174,0
242493,72,1,178,0
242504,61,5,185,0
242515,45,17,190,0
242526,36,26,197,0
242537,32,32,207,0
242548,27,42,225,0
242559,22,56,239,0
242570,14,65,252,0
242581,7,73,259,0
242592,3,76,255,0
242603,9,71,252,0
242614,14,61,243,0
242625,17,50,229,0
242636,20,39,218,0
242647,24,38,215,0
242658,29,40,214,0
242669,30,43,217,0
242680,33,44,220,0
242691,36,46,216,0
242702,38,49,217,0
242713,39,47,211,0
242724,35,48,205,0
242735,30,49,204,0
242746,15,56,204,0
242757,8,58,204,0
242768,3,60,207,0
242779,-1,62,207,0
242791,-4,62,208,0
242802,-7,64,207,0
242813,-8,62,202,0
242824,-10,61,197,0
242835,-9,59,197,0
242846,-9,60,196,0
242857,-16,62,194,0
242868,-20,63,194,0
242879,-27,65,196,0
242890,-37,65,195,0
242901,-42,66,194,0
242912,-45,71,196,0
242923,-48,71,196,0
242934,-51,70,202,0
242945,-52,67,202,0
242956,-47,74,205,0
242967,-46,71,205,0
242978,-42,65,213,0
242989,-38,61,217,0
243000,-37,65,223,0
243011,-40,78,230,0
243022,-47,80,237,0
243033,-47,76,244,0
243044,-52,92,256,0
243055,-65,104,265,0
243066,-74,99,260,0
243077,-67,71,300,0
243088,-43,63,317,0
243099,-20,75,327,0
243110,16,76,339,1
243121,42,96,347,0
243132,55,99,348,0
243143,71,100,331,0
243154,85,72,317,0
243165,79,51,310,0
243176,60,70,251,0
243187,49,-107,437,0
243198,96,28,236,0
243209,70,-25,174,0
243220,65,12,138,0
243231,55,-4,137,0
243242,44,4,145,0
243253,34,3,156,0
243264,36,9,176,0
243275,38,8,186,0
243286,44,13,198,0
243297,49,21,212,0
243308,55,31,222,0
243319,50,41,221,0
243330,50,49,225,0
243341,52,56,225,0
243352,55,61,220,0
243363,60,52,211,0
243374,54,44,207,0
243385,46,45,205,0
243396,36,47,207,0
243407,27,48,205,0
243418,22,47,204,0
243429,20,45,202,0
243440,14,51,205,0
243451,11,52,211,0
243462,5,57,218,0
243473,-1,54,222,0
243484,-8,58,226,0
243495,-15,58,225,0
243506,-15,56,226,0
243517,-17,56,223,0
243528,-15,55,224,0
243539,-14,53,227,0
243550,-16,51,228,0
243561,-19,53,228,0
243572,-23,52,227,0
243583,-30,54,225,0
243594,-36,52,222,0
243605,-39,54,219,0
243616,-39,51,217,0
243627,-36,49,213,0
243638,-35,47,208,0
243649,-31,45,207,0
243660,-28,50,202,0
243671,-20,64,205,0
243682,-17,64,212,0
243693,-12,65,216,0
243704,-9,63,219,0
243715,-3,58,224,0
243726,1,54,231,0
243737,6,49,237,0
243748,9,44,242,0
243759,4,38,242,0
243770,-8,31,243,0
243781,-33,25,242,0
243792,-62,25,239,0
243803,-72,32,222,0
243814,-69,39,212,0
243825,-23,52,222,1
243836,-3,49,239,0
243847,7,38,256,0
243858,6,24,285,0
243869,29,34,300,0
243880,42,80,293,0
243891,53,97,293,0
243902,67,76,305,0
243913,84,53,317,0
243924,107,39,280,0
243935,115,43,244,0
243946,122,46,224,1
243957,118,53,211,0
243968,106,63,196,0
243979,90,74,187,0
243990,64,70,188,0
244001,51,74,209,0
244012,28,84,228,0
244023,-1,86,245,0
244034,-19,85,258,0
244045,-30,82,270,0
244056,-32,83,265,0
244068,-35,91,265,0
244079,-33,95,260,0
244090,-29,91,251,0
244101,-28,83,234,0
244112,-24,76,216,0
244123,-14,70,209,0
244134,8,57,194,0
244146,20,51,189,0
244157,30,47,182,0
244168,40,49,180,0
244179,47,50,181,0
244190,51,52,180,0
244201,46,52,184,0
244212,39,58,187,0
244223,31,56,188,0
244234,18,59,194,0
244245,4,60,197,0
244256,-12,53,196,0
244267,-18,45,199,0
244278,-27,64,198,0
244289,-37,69,204,0
244300,-39,58,204,0
244311,-26,51,200,0
244322,-26,89,180,0
244333,-26,111,181,0
244344,-27,105,182,0
244355,-33,87,180,0
244366,-44,82,186,0
244377,-50,80,205,0
244388,-47,67,218,0
244399,-43,60,225,0
244410,-31,63,223,0
244421,-31,77,239,0
244432,-38,85,278,0
244443,-49,113,279,0
244454,-68,124,281,0
244465,-82,108,280,0
244476,-77,84,289,0
244487,-69,97,301,0
244498,-61,110,307,0
244509,-56,136,286,1
244520,-40,122,282,0
244531,-6,83,309,0
244542,34,82,309,0
244553,60,88,297,0
244564,78,46,292,0
244575,83,62,320,0
244586,95,48,252,0
244597,69,10,187,0
244608,65,-3,164,0
244619,59,7,164,0
244630,49,11,158,0
244641,41,15,154,0
244652,35,18,156,0
244663,36,25,168,0
244674,36,22,175,0
244685,41,32,181,0
244696,50,43,188,0
244707,63,44,191,0
244718,62,36,194,0
244729,54,31,201,0
244740,36,44,211,0
244751,28,60,224,0
244762,25,71,235,0
244773,23,75,235,0
244784,18,76,228,0
244795,16,69,226,0
244806,13,68,225,0
244817,10,63,221,0
244828,2,61,214,0
244839,-4,56,214,0
244850,-12,55,209,0
244861,-23,56,206,0
244872,-29,54,203,0
244883,-26,54,206,0
244894,-23,55,208,0
244905,-15,64,219,0
244916,-13,67,224,0
244927,-11,71,225,0
244938,-12,76,226,0
244949,-15,75,222,0
244960,-19,74,222,0
244971,-22,68,216,0
244982,-23,70,212,0
244993,-25,69,209,0
245004,-25,67,212,0
245015,-23,65,212,0
245026,-19,62,212,0
245037,-11,63,209,0
245048,-6,65,207,0
245059,6,61,203,0
245070,13,60,204,0
245081,13,54,209,0
245092,14,51,215,0
245103,17,51,220,0
245114,19,54,222,0
245125,18,54,230,0
245136,16,59,238,0
245147,8,62,241,0
245158,0,66,230,0
245169,-11,73,220,0
245180,-21,76,212,0
245191,-15,76,209,0
245202,4,78,222,1
245213,39,72,296,0
245224,40,74,316,0
245235,19,84,344,0
245246,-2,93,361,0
245257,-9,97,348,0
245268,0,98,331,0
245279,31,97,296,0
245290,59,78,273,0
245301,80,60,249,0
245312,100,37,211,0
245323,102,30,177,0
245334,94,23,141,0
245345,73,16,120,0
245356,52,28,130,0
245367,13,51,181,0
245378,6,62,207,0
245389,1,80,234,0
245400,0,88,250,0
245411,4,89,260,0
245422,9,85,264,0
245433,14,86,270,0
245444,16,79,261,0
245455,15,70,252,0
245466,11,63,239,0
245477,7,60,227,0
245488,8,58,211,0
245499,14,57,200,0
245510,21,61,194,0
245521,24,57,186,0
245532,31,54,187,0
245543,32,59,191,0
245554,29,61,197,0
245565,20,63,201,0
245576,10,66,205,0
245587,2,71,207,0
245598,-1,74,208,0
245609,-3,70,206,0
245620,-5,67,206,0
245631,-7,63,201,0
245642,-10,59,196,0
245653,-3,55,194,0
245664,-4,57,193,0
245675,-5,60,186,0
245686,-14,77,189,0
245697,-21,73,194,0
245708,-24,64,197,0
245719,-22,67,195,0
245730,-29,77,200,0
245741,-39,67,216,0
245752,-41,57,229,0
245763,-28,45,239,0
245774,-12,59,255,0
245785,-20,66,274,0
245796,-18,62,273,0
245807,-14,79,258,0
245818,-30,109,251,0
245829,-53,120,259,1
245840,-60,112,307,0
245851,-56,136,327,0
245862,-65,144,312,0
245873,-58,106,290,0
245884,-31,71,302,0
245895,-5,74,316,0
245906,1,81,312,0
245917,10,66,292,0
245928,19,59,270,0
245939,30,25,278,0
245950,59,7,270,0
245961,62,18,231,0
245972,54,11,186,1
245983,42,11,166,0
245994,25,16,157,0
246005,19,19,159,0
246016,18,21,168,0
246027,28,27,184,0
246038,41,29,191,0
246049,50,28,194,0
246060,54,27,198,0
246071,51,25,205,0
246082,49,33,214,0
246093,39,44,215,0
246104,36,54,219,0
246115,26,59,217,0
246126,20,58,215,0
246137,11,62,220,0
246148,6,62,224,0
246159,2,62,223,0
246170,-1,59,215,0
246181,-4,57,208,0
246192,-9,57,201,0
246203,-12,55,196,0
246214,-13,55,194,0
246225,-17,55,198,0
246236,-18,55,205,0
246247,-19,59,215,0
246258,-18,64,224,0
246269,-19,66,229,0
246280,-23,66,232,0
246291,-28,69,232,0
246302,-31,69,227,0
246313,-37,64,213,0
246324,-35,63,212,0
246335,-34,64,210,0
246346,-32,65,209,0
246357,-25,64,209,0
246368,-19,65,213,0
246379,-14,63,215,0
246390,-9,61,218,0
246401,-5,57,212,0
246412,-5,53,206,0
246423,-6,53,200,0
246434,-10,56,208,0
246446,-12,54,223,0
246457,-10,42,229,0
246468,-12,35,212,0
246479,-19,35,191,0
246490,-22,50,180,0
246501,-29,53,183,0
246512,-25,56,196,0
246523,-16,61,221,0
246534,-5,58,253,0
246545,7,58,282,0
246556,15,49,304,0
246567,19,46,326,0
246578,12,62,341,1
246589,6,86,333,0
246600,-2,93,327,0
246611,32,73,325,0
246622,47,71,303,0
246633,54,72,274,0
246644,56,61,242,0
246655,61,44,211,0
246666,62,26,176,0
246677,60,32,146,0
246688,57,27,125,1
246699,53,32,123,0
246710,50,46,151,0
246721,48,59,188,0
246732,41,79,222,0
246743,31,92,255,0
246755,31,103,274,0
246766,24,100,274,0
246777,28,96,269,0
246788,20,86,258,0
246799,10,72,243,0
246810,1,65,231,0
246821,-5,58,219,0
246832,-6,60,214,0
246843,-1,62,210,0
246855,1,64,204,0
246866,3,65,201,0
246877,5,66,202,0
246888,5,66,201,0
246899,2,65,202,0
246910,-1,65,202,0
246921,-4,69,204,0
246932,-6,72,203,0
246943,-6,71,200,0
246954,-4,65,196,0
246965,-19,62,191,0
246976,-5,42,193,0
246987,-4,57,185,0
246998,-2,59,174,0
247009,-3,67,176,0
247020,-6,62,173,0
247031,-5,62,173,0
247042,-9,69,170,0
247053,-15,77,188,0
247064,-19,72,189,0
247075,-26,73,189,0
247086,-33,74,197,0
247097,-41,69,211,0
247108,-43,67,226,0
247119,-39,72,231,0
247130,-34,80,237,0
247141,-31,83,251,0
247152,-21,76,267,0
247163,-5,81,272,0
247174,-6,97,271,0
247185,-17,107,271,1
247196,-30,102,284,0
247207,-24,90,322,0
247218,-27,89,330,0
247229,-46,97,306,0
247240,-62,78,276,0
247251,-58,74,270,0
247262,-33,82,298,0
247273,-4,81,308,0
247284,32,57,294,0
247295,43,37,266,0
247306,23,53,260,1
247317,58,33,261,0
247328,78,28,243,0
247339,61,35,209,0
247350,52,23,175,0
247361,35,23,161,0
247372,26,22,159,0
247383,19,24,162,0
247394,26,24,171,0
247405,43,26,185,0
247416,59,30,193,0
247427,67,29,199,0
247438,64,30,203,0
247449,53,35,207,0
247460,44,36,206,0
247471,34,44,208,0
247482,23,54,212,0
247493,11,57,216,0
247504,4,59,217,0
247516,-1,60,228,0
247527,-5,58,227,0
247538,-8,57,223,0
247549,-9,56,212,0
247560,-10,54,207,0
247571,-13,53,202,0
247582,-13,52,201,0
247593,-12,53,199,0
247604,-14,57,199,0
247615,-16,59,205,0
247626,-16,63,213,0
247637,-17,65,220,0
247648,-17,69,228,0
247659,-19,73,231,0
247671,-20,73,227,0
247682,-22,68,220,0
247693,-25,68,216,0
247704,-28,65,215,0
247715,-32,62,213,0
247726,-34,63,210,0
247737,-36,63,210,0
247748,-34,62,209,0
247759,-31,62,205,0
247770,-28,58,203,0
247781,-25,56,204,0
247792,-20,59,205,0
247803,-12,52,212,0
247814,-12,54,214,0
247825,-12,55,214,0
247836,-4,59,213,0
247847,6,58,213,0
247858,10,59,212,0
247869,3,54,205,0
247880,-14,55,195,0
247891,-34,61,183,0
247902,-47,59,180,0
247913,-44,67,193,0
247924,-25,79,215,0
247935,-4,89,243,0
247946,11,95,261,0
247957,21,52,294,1
247968,11,29,298,0
247979,-17,21,308,0
247990,-28,38,322,0
248001,-6,65,332,0
248012,22,85,335,0
248023,58,80,348,0
248034,102,58,332,0
248045,140,46,290,0
248056,156,47,245,0
248067,161,48,216,0
248078,151,51,197,0
248089,136,56,188,0
248100,120,49,175,0
248111,99,30,159,0
248122,48,65,217,0
248133,19,75,236,0
248144,-3,82,247,0
248155,-19,83,253,0
248166,-39,87,253,0
248177,-44,90,252,0
248188,-45,89,250,0
248199,-45,88,246,0
248210,-35,78,238,0
248221,-25,73,227,0
248232,-20,70,211,0
248243,-11,63,202,0
248254,0,59,190,0
248265,9,58,190,0
248276,31,56,185,0
248288,37,57,188,0
248299,39,57,189,0
248310,41,56,193,0
248321,35,58,195,0
248332,28,58,199,0
248343,17,58,203,0
248354,10,58,204,0
248365,2,57,201,0
248376,-3,55,200,0
248387,-6,51,194,0
248398,-9,52,189,0
248409,-14,51,185,0
248420,-26,52,183,0
248431,-35,55,187,0
248442,-44,55,189,0
248453,-52,59,191,0
248464,-58,62,193,0
248475,-63,63,195,0
248486,-64,58,195,0
248497,-67,59,210,0
248508,-67,63,223,0
248519,-66,68,231,0
248530,-61,70,236,0
248541,-54,85,248,0
248552,-51,88,255,0
248563,-33,69,260,0
248574,-10,77,265,0
248585,-22,82,270,0
248596,-39,68,284,0
248607,-42,72,301,0
248618,-50,85,305,0
248629,-46,70,295,0
248640,-16,65,283,0
248651,27,68,317,1
248662,74,77,373,0
248673,111,91,377,0
248684,122,91,345,0
248695,98,75,313,0
248706,77,55,275,0
248717,97,21,263,0
248728,77,89,143,0
248739,38,-157,262,0
248750,77,44,154,0
248761,59,30,157,0
248772,51,-16,161,0
248783,45,25,164,0
248794,45,6,173,0
248805,42,21,181,0
248816,57,23,186,0
248827,79,25,199,0
248838,91,22,200,0
248849,96,23,202,0
248860,92,21,199,0
248871,81,38,201,0
248882,73,48,209,0
248893,70,64,217,0
248904,68,65,221,0
248915,62,67,221,0
248926,55,62,224,0
248937,45,66,218,0
248948,34,67,213,0
248959,22,64,207,0
248970,11,62,202,0
248981,4,58,197,0
248992,-6,64,204,0
249003,-16,65,213,0
249014,-25,65,218,0
249025,-32,65,223,0
249036,-33,64,223,0
249047,-39,65,219,0
249058,-37,64,221,0
249069,-33,67,226,0
249080,-31,67,227,0
249091,-30,67,225,0
249102,-31,68,225,0
249113,-36,70,227,0
249124,-43,69,227,0
249135,-48,65,230,0
249146,-50,57,224,0
249157,-57,55,214,0
249168,-61,51,208,0
249179,-64,55,204,0
249190,-63,51,197,0
249201,-48,58,189,0
249212,-41,76,193,0
249223,-32,71,207,0
249234,-24,65,210,0
249245,-15,60,209,0
249257,-8,61,207,0
249268,0,56,206,0
249279,5,55,209,0
249290,5,50,215,0
249301,-9,51,222,0
249312,-23,46,223,0
249323,-33,56,222,0
249334,-34,50,227,0
249345,-18,45,248,1
249356,-2,36,254,0
249367,-3,31,263,0
249378,-16,26,290,0
249389,-11,22,304,0
249400,-8,41,309,0
249411,-15,52,325,0
249422,-4,39,360,0
249433,32,50,362,0
249444,62,79,331,0
249455,88,91,294,0
249466,113,89,264,0
249477,126,80,222,0
249488,127,76,188,0
249499,100,41,116,0
249510,76,26,118,0
249521,54,31,143,0
249532,33,39,183,0
249543,8,51,221,0
249554,-9,66,249,0
249565,-24,72,274,0
249576,-30,59,282,0
249587,-41,78,265,0
249598,-42,87,267,0
249609,-27,68,262,0
249620,-12,62,255,0
249631,-2,52,247,0
249643,12,50,224,0
249654,18,51,214,0
249665,21,50,205,0
249676,24,49,198,0
249687,26,47,192,0
249698,26,42,187,0
249709,24,45,183,0
249720,19,42,187,0
249731,12,38,189,0
249742,4,38,192,0
249753,-3,36,194,0
249764,-9,37,198,0
249775,-10,39,203,0
249786,-11,43,205,0
249797,-15,43,199,0
249808,-20,42,197,0
249819,-28,42,193,0
249830,-35,47,193,0
249841,-42,51,193,0
249852,-48,53,194,0
249863,-54,53,196,0
249874,-57,52,199,0
249885,-58,51,205,0
249896,-58,54,209,0
249907,-62,56,213,0
249918,-63,53,214,0
249929,-67,53,219,0
249940,-69,56,222,0
249951,-67,65,223,0
249962,-65,87,221,0
249973,-60,65,235,0
249984,-46,38,245,0
249995,-35,34,253,0
250006,-35,49,256,1
250017,-41,55,261,0
250028,-47,51,269,0
250039,-51,43,288,0
250050,-51,42,312,0
250061,-45,41,330,0
250072,-39,44,341,0
250083,-32,47,347,0
250094,-19,58,348,0
250105,3,88,344,0
250116,37,64,300,0
250127,33,27,284,0
250138,25,23,291,0
250149,20,54,270,0
250160,29,39,227,0
250171,49,6,180,0
250183,45,0,150,0
250194,30,19,134,0
250205,43,18,130,0
250216,50,11,129,0
250227,55,27,141,0
250238,63,26,167,0
250249,71,41,184,0
250260,87,61,215,0
250271,86,64,226,0
250282,77,64,238,0
250293,62,60,235,0
250304,40,57,228,0
250315,24,54,223,0
250326,14,54,219,0
250337,9,53,220,0
250348,6,55,219,0
250359,2,54,215,0
250370,-1,55,212,0
250381,-6,61,213,0
250392,-12,64,214,0
250403,-22,65,209,0
250414,-35,55,206,0
250425,-40,52,207,0
250436,-47,51,208,0
250447,-47,53,211,0
250458,-44,58,213,0
250469,-46,58,213,0
250480,-44,57,214,0
250491,-42,58,214,0
250502,-38,62,215,0
250513,-38,65,213,0
250525,-35,65,215,0
250536,-37,70,219,0
250547,-40,69,223,0
250558,-44,68,225,0
250569,-46,66,221,0
250580,-47,64,221,0
250591,-44,62,215,0
250602,-43,63,213,0
250613,-44,63,214,0
250624,-38,63,214,0
250635,-33,62,211,0
250646,-26,56,206,0
250657,-20,57,203,0
250668,-15,60,203,0
250679,-11,62,203,0
250690,-9,62,205,0
250701,-1,63,210,0
250712,32,66,221,0
250723,27,56,221,0
250734,7,43,212,0
250745,-27,37,203,0
250756,-64,39,199,0
250767,-80,46,204,1
250778,-84,66,225,0
250789,-71,79,253,0
250801,-57,93,272,0
250812,-40,86,282,0
250823,-26,81,285,0
250834,-34,68,284,0
250845,-47,50,293,0
250856,-59,42,298,0
250867,-26,63,300,0
250878,6,80,312,0
250889,34,74,320,0
250900,66,58,311,0
250911,91,50,280,0
250922,105,53,238,0
250933,112,54,203,0
250944,118,57,180,0
250955,125,54,156,0
250966,123,50,147,0
250977,118,44,157,0
250988,96,41,171,0
250999,76,38,190,0
251010,42,58,240,0
251021,31,67,254,0
251032,24,79,262,0
251043,21,88,262,0
251054,16,95,258,0
251065,10,94,254,0
251076,9,83,237,0
251087,8,71,225,0
251098,8,65,216,0
251109,5,59,210,0
251120,3,55,203,0
251131,4,50,208,0
251142,6,45,207,0
251153,5,42,208,0
251164,4,40,201,0
251175,3,45,204,0
251186,4,49,203,0
251197,2,53,206,0
251208,1,54,207,0
251219,-1,57,212,0
251230,-1,60,215,0
251241,-5,61,213,0
251252,-11,57,207,0
251263,-13,56,198,0
251274,-24,56,191,0
251285,-25,62,183,0
251296,-3,63,189,0
251307,-26,70,160,0
251318,-20,56,171,0
251329,-18,70,171,0
251340,-26,78,185,0
251351,-29,74,199,0
251362,-28,66,207,0
251373,-29,70,208,0
251384,-32,82,218,0
251395,-40,89,225,0
251406,-43,86,231,0
251417,-48,82,241,0
251428,-49,79,252,0
251439,-42,72,263,0
251450,-32,67,266,0
251461,-22,77,266,0
251472,-16,79,266,0
251483,-32,91,251,0
251494,-37,92,261,1
251505,-41,96,275,0
251516,-39,72,302,0
251527,-28,87,297,0
251538,-12,104,303,0
251549,9,89,327,0
251560,46,78,327,0
251571,61,87,319,0
251582,39,72,309,0
251593,38,46,302,0
251604,56,37,289,0
251615,54,39,243,0
251626,38,22,197,0
251637,37,12,185,0
251648,32,20,178,0
251659,24,12,173,0
251670,20,12,174,0
251681,23,14,186,0
251692,32,18,197,0
251703,45,21,200,0
251714,56,21,201,0
251726,62,17,200,0
251737,60,15,199,0
251748,53,17,200,0
251759,47,24,203,0
251770,42,32,212,0
251781,36,55,226,0
251792,29,61,226,0
251803,19,63,225,0
251814,14,61,222,0
251825,12,59,217,0
251836,8,55,214,0
251847,3,54,208,0
251858,-3,52,207,0
251870,-6,51,207,0
251881,-12,49,205,0
251892,-14,47,208,0
251903,-15,50,212,0
251914,-14,54,219,0
251925,-15,60,231,0
251936,-12,62,237,0
251947,-11,65,239,0
251958,-11,65,238,0
251969,-9,64,235,0
251980,-10,64,232,0
251991,-12,61,227,0
252002,-14,58,221,0
252013,-17,55,215,0
252024,-22,54,213,0
252035,-24,53,212,0
252046,-24,53,215,0
252057,-21,55,214,0
252068,-19,54,219,0
252079,-9,57,224,0
252090,-6,58,226,0
252101,-3,60,229,0
252112,-1,62,232,0
252123,1,62,231,0
252134,-1,64,230,0
252145,-2,62,231,0
252156,-4,60,226,0
252167,-4,62,222,0
252178,-2,65,220,0
252189,-2,65,220,0
252200,1,69,218,0
252211,1,73,219,0
252222,2,76,222,0
252233,-5,66,223,0
252244,-14,61,221,0
252255,-17,57,219,0
252266,-15,60,219,0
252277,-14,67,218,0
252288,-8,65,218,1
252299,-2,44,225,0
252310,-1,27,234,0
252321,-6,25,234,0
252332,-10,20,227,0
252343,-22,8,230,0
252354,-39,-2,244,0
252365,-46,-5,251,0
252376,-40,9,253,0
252387,16,40,258,0
252398,54,58,266,0
252409,66,61,274,0
252420,70,52,294,0
252431,74,41,299,0
252442,68,44,294,0
252453,65,51,282,0
252464,65,47,273,0
252475,69,38,262,0
252486,73,29,249,0
252497,76,18,231,0
252508,75,9,220,0
252519,70,2,211,0
252530,67,-8,199,0
252541,69,-13,194,0
252552,74,-15,188,0
252563,76,-8,187,0
252574,71,3,190,0
252585,64,1,184,0
252596,53,13,187,0
252607,43,22,188,0
252618,35,37,205,0
252629,24,41,219,0
252640,16,53,232,0
252652,1,65,241,0
252663,-5,63,263,0
252674,-8,60,279,0
252685,-20,70,280,0
252696,-29,73,276,0
252707,-32,67,271,0
252718,-25,60,264,0
252729,-16,59,259,0
252740,-8,53,248,0
252751,-2,53,231,0
252762,2,50,215,0
252773,7,47,207,0
252784,15,44,204,0
252795,23,37,193,0
252806,26,32,187,0
252817,25,32,181,0
252828,19,39,181,0
252839,16,42,190,0
252850,17,34,201,0
252861,21,31,202,0
252872,22,30,203,0
252883,23,27,206,0
252894,27,25,212,0
252905,30,23,215,0
252916,33,24,219,0
252927,34,27,221,0
252938,36,22,224,0
252949,37,22,225,0
252960,36,25,227,0
252971,33,29,230,0
252982,28,30,234,0
252993,25,30,235,0
253004,20,39,224,0
253015,18,40,217,0
253026,13,41,210,0
253037,10,40,203,0
253048,9,40,195,0
253059,6,42,193,0
253070,6,44,200,0
253081,2,49,213,0
253092,-5,61,226,0
253103,-18,71,236,0
253114,-30,74,243,0
253125,-39,73,245,1
253136,-41,65,247,0
253147,-43,80,243,0
253158,-48,54,261,0
253169,-25,51,287,0
253180,6,48,321,0
253191,45,41,349,0
253202,72,59,334,0
253213,70,56,306,0
253224,66,34,252,0
253235,74,23,209,0
253246,79,20,182,0
253257,76,12,169,0
253268,76,12,176,0
253279,73,22,176,0
253290,66,37,192,0
253301,67,39,201,0
253312,64,52,212,0
253323,66,50,210,0
253334,68,53,207,0
253345,74,162,158,0
253356,68,-39,233,0
253367,99,81,219,0
253378,93,50,216,0
253389,76,49,224,0
253400,61,62,231,0
253412,50,66,238,0
253423,34,67,236,0
253434,20,71,236,0
253445,15,74,234,0
253456,18,76,229,0
253467,22,76,225,0
253478,29,75,220,0
253489,37,75,216,0
253500,48,72,218,0
253511,55,73,219,0
253522,55,72,220,0
253533,54,74,220,0
253544,45,73,222,0
253555,38,68,227,0
253566,28,72,228,0
253577,19,75,226,0
253588,9,76,226,0
253599,2,83,221,0
253610,-6,96,222,0
253621,-9,101,222,0
253632,-7,96,226,0
253643,-1,89,231,0
253654,8,82,238,0
253665,12,79,232,0
253676,18,71,231,0
253687,20,67,225,0
253698,17,69,220,0
253709,6,67,216,0
253720,1,68,224,0
253731,-3,76,223,0
253742,-11,80,220,0
253753,-19,83,216,0
253764,-37,90,213,0
253775,-58,85,206,0
253786,-65,86,207,0
253797,-67,86,208,0
253808,-66,87,209,0
253819,-62,83,211,0
253830,-57,85,215,0
253841,-51,88,218,0
253852,-43,81,222,0
253863,-39,78,223,0
253874,-37,79,222,0
253885,-36,80,221,0
253896,-36,75,218,0
253907,-33,73,217,0
253918,-33,72,215,0
253929,-32,71,219,0
253940,-32,68,221,0
253951,-32,66,224,0
253962,-33,67,225,0
253973,-35,66,227,0
253984,-34,67,230,0
253995,-34,69,227,0
254006,-35,69,225,0
254017,-34,66,225,0
254028,-35,60,226,0
254039,-36,54,226,0
254050,-36,47,224,0
254061,-38,43,222,0
254072,-38,44,223,0
254083,-36,53,221,0
254094,-36,54,219,0
254105,-31,56,215,0
254116,-28,58,215,0
254127,-29,48,219,0
254138,-34,41,215,1
254149,-34,37,212,0
254160,-25,36,210,0
254171,-20,38,219,0
254182,-24,32,236,0
254193,-14,26,247,0
254204,3,42,249,0
254215,20,53,253,0
254226,37,44,267,0
254237,74,40,286,0
254248,85,56,279,0
254259,91,74,279,0
254270,92,95,273,0
254281,100,94,263,0
254292,111,95,253,0
254303,118,96,242,0
254314,120,88,224,0
254325,118,67,197,0
254336,123,45,179,0
254347,118,39,169,0
254358,107,37,166,0
254369,89,44,174,0
254380,66,52,188,0
254391,32,78,207,0
254402,21,92,214,0
254413,17,89,220,0
254424,19,90,219,0
254435,26,100,221,0
254446,22,94,229,0
254457,18,81,239,0
254468,21,70,249,0
254479,21,66,255,0
254490,18,59,253,0
254501,12,53,243,0
254512,4,51,235,0
254523,-1,47,230,0
254534,-4,42,226,0
254545,-3,41,219,0
254556,-2,38,206,0
254567,1,37,205,0
254578,1,36,209,0
254589,0,37,209,0
254600,2,33,211,0
254611,6,28,210,0
254622,8,25,212,0
254633,9,25,213,0
254644,9,27,214,0
254655,6,30,209,0
254666,1,32,207,0
254677,-3,34,206,0
254688,-9,35,206,0
254699,-13,35,205,0
254710,-25,40,207,0
254721,-28,42,209,0
254732,-31,44,209,0
254743,-34,44,211,0
254754,-36,41,212,0
254765,-37,40,210,0
254776,-36,39,211,0
254787,-37,39,211,0
254798,-34,41,213,0
254809,-30,46,212,0
254820,-33,52,215,0
254831,-34,52,219,0
254842,-29,45,220,0
254853,-24,47,217,0
254864,-21,52,221,0
254875,-20,51,224,0
254886,-16,40,225,0
254897,-19,35,230,0
254908,-30,39,230,0
254919,-37,46,228,0
254930,-49,50,232,1
254941,-61,46,238,0
254952,-66,37,258,0
254963,-67,51,277,0
254974,-60,58,292,0
254985,-37,60,306,0
254996,-7,63,316,0
255007,23,67,330,0
255018,68,66,328,0
255029,66,75,302,0
255040,68,87,281,0
255051,72,73,263,0
255062,72,19,262,0
255073,64,18,259,0
255084,36,48,233,0
255095,14,43,198,0
255106,6,-1,179,0
255117,3,-8,171,0
255128,6,7,175,0
