timestamp,accX,accY,accZ,step
1260779,25,-4,228,0
1260789,29,-6,226,0
1260800,21,1,236,0
1260811,24,0,235,0
1260822,26,-5,230,0
1260832,27,-5,233,0
1260843,27,-6,235,0
1260853,27,-8,226,0
1260864,28,-6,228,0
1260874,27,-4,228,0
1260885,26,-3,228,0
1260896,28,0,235,0
1260907,27,-2,236,0
1260918,27,-3,233,0
1260929,30,-4,229,0
1260940,33,-5,231,0
1260950,36,-5,229,0
1260960,36,-4,229,0
1260971,37,-3,228,0
1260982,37,-4,227,0
1260993,39,-6,227,0
1261004,41,-6,228,0
1261015,41,-6,229,0
1261026,41,-7,227,0
1261037,41,-7,227,0
1261048,40,-6,228,0
1261058,40,-8,227,0
1261069,40,-6,228,0
1261080,39,-6,228,0
1261092,40,-3,232,0
1261103,40,-2,231,0
1261113,38,-3,232,0
1261124,38,-3,231,0
1261135,37,-4,228,0
1261146,39,-5,226,0
1261157,39,-4,226,0
1261168,38,-3,227,0
1261179,38,-2,231,0
1261191,37,-2,234,0
1261201,37,-5,233,0
1261212,36,-5,231,0
1261223,35,-4,228,0
1261234,35,-5,226,0
1261245,34,-5,229,0
1261256,33,-4,231,0
1261267,33,-3,229,0
1261278,31,-1,232,0
1261289,28,0,230,0
1261300,26,0,232,0
1261312,25,0,232,0
1261322,24,0,231,0
1261333,24,0,230,0
1261344,22,0,230,0
1261355,21,0,230,0
1261366,20,1,228,0
1261378,21,2,229,0
1261388,22,3,230,0
1261399,26,3,231,0
1261410,28,2,231,0
1261421,30,1,230,0
1261432,31,1,227,0
1261443,31,0,225,0
1261454,31,0,226,0
1261466,28,2,227,0
1261476,20,2,240,0
1261487,25,-6,256,0
1261498,38,-1,250,0
1261509,39,2,247,0
1261520,40,-2,247,0
1261531,47,-3,236,0
1261542,49,-5,229,0
1261553,51,-4,222,0
1261564,52,-6,215,0
1261575,54,-8,210,0
1261586,53,-9,210,0
1261597,51,-9,212,0
1261608,49,-8,215,0
1261619,50,-7,220,0
1261631,49,-5,223,0
1261642,49,-3,223,0
1261653,48,-6,222,0
1261664,46,-5,222,0
1261675,47,-6,223,0
1261686,47,-4,226,0
1261697,47,-4,228,0
1261708,46,-4,229,0
1261719,44,-4,232,0
1261730,44,-7,231,0
1261741,42,-6,232,0
1261753,40,-4,233,0
1261764,40,-4,232,0
1261775,39,-4,230,0
1261786,38,-8,228,0
1261797,35,-9,226,0
1261808,32,-5,225,0
1261819,32,-3,227,0
1261830,31,-4,229,0
1261841,30,-5,232,0
1261852,32,0,231,0
1261863,32,1,232,0
1261874,31,0,232,0
1261885,32,1,231,0
1261896,36,7,230,0
1261907,39,7,229,0
1261918,41,5,228,0
1261929,39,1,230,0
1261940,37,1,231,0
1261951,35,0,230,0
1261962,33,-1,230,0
1261973,33,0,229,0
1261984,32,1,227,0
1261995,31,0,228,0
1262006,28,-2,229,0
1262017,25,0,230,0
1262028,24,1,231,0
1262039,22,2,230,0
1262050,22,2,233,0
1262061,20,1,231,0
1262072,19,1,230,0
1262083,20,2,230,0
1262094,21,1,230,0
1262105,25,0,227,0
1262116,27,0,229,0
1262127,29,1,228,0
1262138,31,0,226,0
1262149,32,0,226,0
1262160,32,0,227,0
1262171,33,-1,227,0
1262182,33,-1,228,0
1262193,30,0,230,0
1262204,30,0,229,0
1262215,30,0,230,0
1262226,30,-2,230,0
1262237,31,-1,231,0
1262248,32,0,230,0
1262259,32,1,232,0
1262270,32,-3,229,0
1262281,31,-4,230,0
1262293,32,-5,232,0
1262303,32,-4,232,0
1262314,33,-6,233,0
1262325,34,-5,232,0
1262336,36,-6,233,0
1262347,38,-5,234,0
1262358,40,-6,232,0
1262369,41,-6,230,0
1262380,42,-8,228,0
1262392,40,-9,222,0
1262402,38,-7,222,0
1262413,35,-9,222,0
1262424,32,-10,220,0
1262435,28,-9,223,0
1262446,28,-10,224,0
1262457,27,-9,228,0
1262468,27,-5,228,0
1262479,25,-5,228,0
1262491,22,-4,230,0
1262501,23,-4,232,0
1262512,22,-3,234,0
1262523,23,-2,235,0
1262534,22,-1,235,0
1262545,22,-1,232,0
1262556,23,-1,232,0
1262567,24,-2,232,0
1262578,25,-3,233,0
1262589,25,-2,233,0
1262600,26,-3,231,0
1262611,25,-3,231,0
1262622,25,-3,229,0
1262633,26,-7,228,0
1262644,25,-7,229,0
1262655,25,-4,232,0
1262666,25,-3,233,0
1262678,24,-5,233,0
1262688,24,-6,231,0
1262699,26,-5,230,0
1262710,24,-5,229,0
1262721,23,-5,226,0
1262732,23,-6,227,0
1262743,23,-6,228,0
1262754,22,-4,229,0
1262766,20,-5,230,0
1262776,18,-5,232,0
1262787,17,-5,231,0
1262798,17,-5,233,0
1262809,16,-6,232,0
1262820,15,-7,232,0
1262832,14,-7,230,0
1262843,15,-7,230,0
1262854,12,-8,230,0
1262866,11,-8,232,0
1262876,13,-11,231,0
1262887,16,-7,231,0
1262898,14,-6,229,0
1262909,11,-4,229,0
1262920,7,-12,238,0
1262931,9,-9,239,0
1262942,12,-11,238,0
1262953,12,-10,236,0
1262964,17,-11,235,0
1262975,21,-10,229,0
1262986,20,-7,228,0
1262997,22,-3,231,0
1263008,22,-1,228,0
1263019,19,-2,234,0
1263030,16,-2,234,0
1263041,17,0,234,0
1263052,21,3,230,0
1263063,23,0,228,0
1263074,21,4,225,0
1263085,27,13,226,0
1263096,29,14,228,0
1263107,30,9,230,0
1263118,33,11,229,0
1263130,34,14,230,0
1263141,35,11,227,0
1263152,34,2,224,0
1263163,36,2,220,0
1263174,38,0,217,0
1263185,35,-5,217,0
1263196,33,-5,221,0
1263207,31,-3,224,0
1263218,33,1,230,0
1263229,31,6,233,0
1263240,28,7,232,0
1263251,27,6,233,0
1263262,26,11,230,0
1263273,26,9,228,0
1263284,24,11,226,0
1263295,23,10,225,0
1263306,23,10,226,0
1263317,20,8,226,0
1263328,14,7,226,0
1263339,6,6,227,0
1263350,1,6,226,0
1263361,-6,8,231,0
1263372,-11,6,233,0
1263383,-14,4,233,0
1263394,-16,3,234,0
1263405,-15,3,233,0
1263417,-15,1,233,0
1263427,-14,3,231,0
1263438,-10,0,228,0
1263449,-6,0,229,0
1263460,-6,1,227,0
1263471,-3,1,225,0
1263482,-2,0,226,0
1263493,-1,1,227,0
1263504,-2,1,226,0
1263515,-4,2,229,0
1263526,-4,4,231,0
1263537,-4,6,229,0
1263548,-5,6,227,0
1263559,-7,3,227,0
1263570,-8,5,227,0
1263581,-6,6,224,0
1263593,-6,8,222,0
1263603,-8,6,220,0
1263614,-7,6,222,0
1263625,-8,9,221,0
1263636,-10,11,225,0
1263647,-10,13,222,0
1263658,-7,18,222,0
1263669,-9,18,228,0
1263680,-9,14,231,0
1263692,-9,12,229,0
1263703,-8,10,225,0
1263713,-2,12,216,0
1263724,0,9,221,0
1263735,0,17,225,0
1263747,-2,25,228,1
1263757,0,34,227,0
1263769,24,54,219,0
1263779,16,41,258,0
1263791,7,10,276,0
1263801,-2,22,271,0
1263812,-33,7,274,0
1263823,-42,11,273,0
1263834,-39,33,294,0
1263845,-24,23,319,0
1263856,-3,22,329,0
1263867,16,21,328,0
1263878,41,26,322,0
1263889,62,29,284,0
1263900,76,25,268,0
1263911,80,20,238,0
1263922,85,16,210,0
1263933,94,8,190,0
1263944,97,0,172,0
1263955,96,-2,160,0
1263966,94,-4,152,0
1263978,88,0,150,0
1263988,82,3,154,0
1263999,74,11,162,0
1264010,65,17,181,0
1264021,51,17,205,0
1264032,41,17,235,0
1264043,36,17,258,0
1264054,33,20,275,0
1264066,32,15,264,0
1264076,33,11,255,0
1264087,39,3,245,0
1264098,42,1,235,0
1264109,40,1,219,0
1264120,38,-3,203,0
1264131,39,0,203,0
1264142,35,2,206,0
1264153,38,2,210,0
1264164,38,4,213,0
1264175,32,3,218,0
1264186,24,3,221,0
1264197,14,2,223,0
1264209,7,-2,223,0
1264219,3,-11,229,0
1264230,0,-5,225,0
1264241,-8,-14,217,0
1264252,-8,-13,213,0
1264263,-5,5,202,0
1264274,-9,-5,191,0
1264285,-13,-4,184,0
1264296,-4,-6,185,0
1264307,-4,-2,185,0
1264318,-6,-1,189,0
1264329,-7,0,196,0
1264341,-12,2,207,0
1264351,-14,1,218,0
1264362,-17,2,224,0
1264373,-18,5,229,0
1264384,-22,2,245,0
1264395,-18,1,254,0
1264406,-23,18,257,0
1264417,-33,11,258,0
1264428,-32,-6,259,0
1264440,-25,-15,250,1
1264450,-24,-7,245,0
1264461,-26,0,241,0
1264472,-30,0,244,0
1264483,-22,-4,258,0
1264494,37,-4,348,0
1264505,59,35,406,0
1264516,70,38,397,0
1264527,93,3,379,0
1264538,91,-1,332,0
1264549,119,-11,362,0
1264560,87,0,292,0
1264571,52,-12,223,0
1264582,29,-33,190,0
1264593,20,-31,168,0
1264604,18,-40,154,0
1264615,22,-37,152,0
1264626,28,-29,152,0
1264637,30,-15,155,0
1264648,35,-3,159,0
1264659,43,2,167,0
1264670,57,3,178,0
1264681,68,11,188,0
1264693,78,8,198,0
1264703,92,11,208,0
1264714,109,6,213,0
1264725,112,4,214,0
1264736,113,5,210,0
1264747,110,7,207,0
1264758,93,3,205,0
1264769,70,3,203,0
1264780,56,1,206,0
1264791,48,1,209,0
1264802,46,7,210,0
1264813,41,8,215,0
1264824,36,8,218,0
1264835,33,7,221,0
1264846,29,3,217,0
1264857,26,4,216,0
1264868,26,1,212,0
1264880,26,0,205,0
1264891,32,1,207,0
1264901,34,3,211,0
1264912,41,3,212,0
1264923,39,4,213,0
1264935,37,4,216,0
1264945,37,6,220,0
1264956,32,7,225,0
1264967,28,9,227,0
1264978,25,6,229,0
1264989,19,5,226,0
1265000,17,2,225,0
1265011,17,1,225,0
1265022,14,0,222,0
1265033,18,-4,219,0
1265044,27,-17,211,0
1265055,33,-19,212,0
1265066,35,-17,209,0
1265078,38,-12,211,0
1265088,39,-5,214,0
1265100,37,3,215,0
1265111,30,7,216,1
1265121,23,7,218,0
1265132,14,7,223,0
1265143,5,2,227,0
1265154,-2,-2,231,0
1265166,-7,2,236,0
1265176,9,21,231,0
1265187,25,40,265,0
1265198,17,-17,306,0
1265210,25,6,292,0
1265220,26,44,304,0
1265231,20,19,337,0
1265242,22,-28,346,0
1265253,17,-17,338,0
1265264,15,8,334,0
1265275,34,20,318,0
1265286,57,25,290,0
1265297,75,18,254,0
1265308,94,7,211,0
1265319,109,5,177,0
1265330,116,3,144,0
1265341,120,0,128,0
1265353,120,1,130,0
1265363,112,1,146,0
1265374,84,11,190,0
1265385,69,13,204,0
1265396,39,17,223,0
1265407,22,24,246,0
1265418,14,20,265,0
1265429,9,7,263,0
1265440,9,1,260,0
1265451,10,0,258,0
1265462,9,2,247,0
1265473,12,0,239,0
1265484,14,0,232,0
1265495,18,1,221,0
1265506,18,4,213,0
1265517,23,1,200,0
1265528,30,5,200,0
1265539,37,1,192,0
1265550,41,1,199,0
1265561,32,1,190,0
1265572,23,0,188,0
1265583,14,-1,192,0
1265594,9,-1,197,0
1265605,1,0,203,0
1265616,-12,1,208,0
1265628,-20,-4,205,0
1265638,-28,-8,206,0
1265649,-32,-15,206,0
1265660,-32,-21,202,0
1265671,-30,-22,200,0
1265682,-30,-22,204,0
1265693,-30,-19,211,0
1265704,-31,-26,240,0
1265715,-26,-37,257,0
1265726,-17,-6,250,0
1265737,-32,34,252,0
1265748,-64,61,260,0
1265759,-73,27,272,0
1265770,-60,-2,255,0
1265781,-53,-11,240,0
1265793,-40,-15,263,0
1265804,19,-28,337,1
1265814,63,0,387,0
1265825,68,23,377,0
1265836,81,-4,369,0
1265847,94,-3,339,0
1265858,114,9,372,0
1265869,66,-4,244,0
1265880,52,-27,199,0
1265892,46,-35,173,0
1265903,46,-47,161,0
1265913,42,-44,157,0
1265924,38,-32,156,0
1265935,34,-29,162,0
1265946,33,-24,175,0
1265957,37,-24,183,0
1265968,36,-12,186,0
1265979,41,-7,188,0
1265991,57,-4,193,0
1266001,72,-2,199,0
1266012,85,0,206,0
1266023,89,2,217,0
1266034,87,2,224,0
1266045,69,11,231,0
1266056,63,8,220,0
1266067,48,3,211,0
1266078,34,7,211,0
1266089,31,19,212,0
1266100,21,23,211,0
1266111,8,19,213,0
1266122,1,20,211,0
1266133,-5,12,208,0
1266144,-5,13,212,0
1266155,-6,12,210,0
1266166,-5,10,213,0
1266178,-6,12,219,0
1266189,0,17,224,0
1266199,9,12,220,0
1266211,11,18,220,0
1266221,12,19,217,0
1266232,13,17,217,0
1266243,14,14,215,0
1266255,10,14,220,0
1266266,8,12,223,0
1266278,10,9,224,0
1266288,11,10,222,0
1266300,10,10,223,0
1266310,16,9,220,0
1266321,20,10,216,0
1266332,24,13,212,0
1266343,30,15,214,0
1266354,35,12,213,0
1266366,35,12,216,0
1266376,37,6,217,0
1266387,38,5,219,0
1266398,38,3,218,0
1266409,34,3,220,0
1266420,30,7,224,0
1266431,21,8,230,0
1266442,10,14,239,0
1266453,-1,21,244,0
1266464,-13,27,252,0
1266475,-29,28,256,0
1266487,-45,28,254,1
1266497,-60,27,251,0
1266508,-61,28,238,0
1266519,-35,16,284,0
1266530,-20,-31,293,0
1266541,2,18,278,0
1266553,1,-3,291,0
1266563,18,-31,322,0
1266575,40,-23,332,0
1266586,66,-19,321,0
1266597,96,-10,306,0
1266608,124,-2,285,0
1266619,140,-2,254,0
1266630,151,-5,217,0
1266641,153,3,189,0
1266653,159,14,177,0
1266664,140,42,161,0
1266675,124,39,155,0
1266686,103,32,171,0
1266697,78,20,193,0
1266708,52,9,212,0
1266719,18,7,236,0
1266730,-15,9,259,0
1266741,-35,11,266,0
1266753,-38,5,263,0
1266763,-30,5,261,0
1266774,-15,5,257,0
1266785,-5,10,242,0
1266796,6,11,222,0
1266807,19,17,221,0
1266818,36,17,216,0
1266829,42,15,220,0
1266841,47,13,217,0
1266851,52,8,209,0
1266862,54,1,202,0
1266873,59,-1,194,0
1266884,48,3,196,0
1266895,39,6,202,0
1266906,26,4,201,0
1266917,17,0,204,0
1266928,10,-4,213,0
1266939,-3,-13,219,0
1266950,0,-2,215,0
1266961,-14,3,206,0
1266972,-23,0,207,0
1266983,-28,11,215,0
1266994,-17,2,216,0
1267005,-8,21,194,0
1267016,-15,47,183,0
1267028,-14,31,199,0
1267039,-5,16,215,0
1267050,-10,21,222,0
1267061,-17,17,232,0
1267072,-11,8,240,0
1267083,-1,11,243,0
1267094,-7,17,254,0
1267106,-3,0,272,1
1267116,1,6,262,0
1267128,-5,24,258,0
1267138,0,15,271,0
1267149,45,42,354,0
1267160,23,72,351,0
1267171,25,46,351,0
1267182,46,7,326,0
1267193,68,10,308,0
1267204,85,26,356,0
1267215,70,35,337,0
1267226,65,11,275,0
1267237,57,-23,234,0
1267248,49,-41,202,0
1267259,40,-53,165,0
1267270,31,-56,144,0
1267281,28,-56,141,0
1267293,30,-41,153,0
1267303,33,-7,171,0
1267314,33,8,182,0
1267325,41,20,191,0
1267336,54,27,206,0
1267347,65,26,217,0
1267358,76,22,218,0
1267369,86,12,214,0
1267380,90,8,216,0
1267392,94,7,216,0
1267403,83,4,214,0
1267413,68,-5,212,0
1267425,57,-8,209,0
1267435,45,0,215,0
1267446,40,2,219,0
1267457,40,1,218,0
1267468,32,2,217,0
1267479,28,4,219,0
1267491,22,6,221,0
1267501,18,8,218,0
1267512,14,7,217,0
1267523,12,6,217,0
1267535,13,4,217,0
1267546,14,6,211,0
1267557,16,4,211,0
1267568,13,8,213,0
1267579,9,13,218,0
1267591,9,17,225,0
1267601,7,21,233,0
1267612,7,23,237,0
1267623,4,23,238,0
1267634,5,22,230,0
1267646,6,20,223,0
1267656,7,17,215,0
1267667,8,16,212,0
1267678,10,16,211,0
1267689,15,16,212,0
1267700,21,9,216,0
1267711,25,-5,225,0
1267722,32,-7,228,0
1267733,39,-2,229,0
1267744,47,3,232,0
1267755,50,10,234,0
1267766,44,16,236,0
1267778,33,25,238,0
1267788,-5,38,233,0
1267800,-8,42,225,1
1267811,16,61,222,0
1267821,21,38,267,0
1267832,22,3,289,0
1267843,3,11,287,0
1267854,-11,24,280,0
1267866,-11,40,292,0
1267876,-6,28,316,0
1267887,2,7,307,0
1267898,6,7,286,0
1267909,17,13,290,0
1267920,46,22,274,0
1267931,69,17,250,0
1267943,89,11,231,1
1267953,116,-7,186,0
1267964,113,-15,163,0
1267975,105,-12,156,0
1267986,103,-16,153,0
1267997,102,-12,162,0
1268008,96,-1,172,0
1268019,76,9,184,0
1268030,59,10,206,0
1268041,43,9,231,0
1268053,29,9,258,0
1268063,17,11,282,0
1268074,17,8,296,0
1268085,20,11,293,0
1268096,26,14,282,0
1268108,44,4,257,0
1268119,50,1,238,0
1268130,48,-1,220,0
1268141,44,-1,209,0
1268153,41,2,210,0
1268163,42,5,210,0
1268174,43,8,209,0
1268185,41,10,211,0
1268196,44,9,208,0
1268207,43,9,206,0
1268218,45,12,208,0
1268229,48,8,208,0
1268240,43,7,207,0
1268253,24,7,208,0
1268263,14,8,208,0
1268274,4,8,210,0
1268285,-2,7,207,0
1268296,-8,4,206,0
1268307,-8,2,207,0
1268318,-6,3,206,0
1268329,-6,1,208,0
1268341,-6,-2,209,0
1268351,-2,1,214,0
1268362,0,3,221,0
1268373,4,8,229,0
1268384,17,3,211,0
1268395,19,33,216,0
1268406,3,33,238,0
1268417,-1,0,256,0
1268428,1,-4,250,0
1268440,-4,0,243,1
1268450,-11,0,244,0
1268461,-13,1,250,0
1268472,-22,3,246,0
1268483,-34,12,244,0
1268494,-39,8,255,0
1268505,-12,-5,277,0
1268516,49,14,373,0
1268528,25,88,344,0
1268538,15,29,334,0
1268549,30,-21,299,0
1268560,35,-2,267,0
1268571,48,2,289,0
1268582,75,18,320,0
1268593,68,3,287,0
1268604,59,-15,253,0
1268615,58,-30,206,0
1268626,56,-38,172,0
1268637,56,-38,146,0
1268648,52,-34,139,0
1268659,46,-27,137,0
1268670,41,-16,144,0
1268681,42,-10,158,0
1268693,42,-1,176,0
1268703,48,-1,194,0
1268714,60,2,218,0
1268725,67,6,235,0
1268736,72,3,240,0
1268747,66,-6,224,0
1268758,60,-8,218,0
1268769,57,-6,212,0
1268780,54,-13,209,0
1268793,47,-16,208,0
1268803,42,-15,212,0
1268814,47,-9,217,0
1268825,47,-2,220,0
1268836,46,0,220,0
1268847,44,2,219,0
1268858,40,0,215,0
1268869,40,-2,212,0
1268880,33,-2,211,0
1268891,19,-1,210,0
1268903,13,-2,208,0
1268913,6,-1,210,0
1268924,1,-1,213,0
1268935,-3,0,220,0
1268946,-9,1,227,0
1268957,-16,1,231,0
1268969,-20,2,234,0
1268979,-24,5,233,0
1268991,-24,6,228,0
1269001,-24,6,225,0
1269012,-25,9,222,0
1269023,-22,14,221,0
1269034,-16,15,222,0
1269045,-9,13,224,0
1269056,4,-6,212,0
1269067,10,-16,210,0
1269078,17,-25,209,0
1269089,22,-28,209,0
1269100,29,-29,209,0
1269111,33,-23,212,0
1269122,36,-15,216,0
1269133,40,-2,217,0
1269144,39,4,221,0
1269155,28,9,221,0
1269166,16,11,219,0
1269178,6,15,221,0
1269188,0,19,221,0
1269200,-5,24,229,1
1269210,-6,26,236,0
1269221,24,-12,289,0
1269232,17,-31,294,0
1269243,-6,3,285,0
1269254,-41,12,305,0
1269266,-48,17,324,0
1269276,-28,37,322,0
1269287,-11,24,317,0
1269298,7,3,305,0
1269309,27,10,300,0
1269320,48,13,291,0
1269331,74,8,277,0
1269342,103,9,256,0
1269353,120,13,239,0
1269364,129,2,216,0
1269375,132,0,188,0
1269386,108,-12,138,0
1269397,98,-14,141,0
1269408,83,-11,158,0
1269419,68,-2,184,0
1269430,58,-2,199,0
1269441,40,0,220,0
1269453,31,10,247,0
1269463,15,19,259,0
1269474,8,27,282,0
1269485,10,23,291,0
1269496,14,23,283,0
1269507,17,20,266,0
1269518,21,9,248,0
1269529,21,4,235,0
1269540,25,6,224,0
1269551,27,0,200,0
1269562,29,-2,194,0
1269573,34,-2,192,0
1269584,34,0,193,0
1269595,37,2,195,0
1269606,37,6,203,0
1269617,31,10,209,0
1269628,26,4,204,0
1269639,24,2,210,0
1269650,16,1,211,0
1269661,12,-1,205,0
1269672,10,-2,206,0
1269683,7,-1,209,0
1269694,3,-1,209,0
1269705,-2,-1,205,0
1269716,-14,-4,203,0
1269728,-17,-2,205,0
1269738,-21,-5,211,0
1269749,-23,-9,210,0
1269760,-20,-8,217,0
1269771,-18,-5,222,0
1269782,-16,5,232,0
1269793,-25,16,236,0
1269804,-24,8,248,0
1269815,-19,5,254,0
1269826,-21,6,258,0
1269837,-16,-5,269,0
1269848,-9,-18,267,0
1269859,0,-12,259,0
1269870,1,-12,251,0
1269881,49,-28,314,0
1269893,73,20,377,0
1269904,63,52,350,1
1269914,67,-5,333,0
1269925,64,-31,287,0
1269936,49,-25,261,0
1269947,66,-34,306,0
1269958,82,12,340,0
1269969,61,28,330,0
1269980,54,2,283,0
1269992,54,-4,211,0
1270003,44,-15,182,0
1270013,37,-33,155,0
1270024,36,-28,146,0
1270035,41,-33,149,0
1270046,36,-8,169,0
1270057,36,3,177,0
1270068,35,5,187,0
1270079,40,7,199,0
1270091,49,14,216,0
1270101,58,14,224,0
1270112,65,13,223,0
1270123,70,6,221,0
1270134,78,2,219,0
1270145,86,0,218,0
1270156,81,-7,214,0
1270167,78,-4,215,0
1270178,68,-6,213,0
1270189,62,-6,211,0
1270200,56,-8,214,0
1270211,55,-8,215,0
1270223,52,1,221,0
1270233,43,2,222,0
1270244,29,5,219,0
1270255,23,5,223,0
1270266,13,7,224,0
1270278,9,4,222,0
1270288,4,1,215,0
1270299,1,0,215,0
1270310,-3,1,215,0
1270321,-7,-1,221,0
1270332,-10,-2,225,0
1270343,-10,-1,227,0
1270354,-10,0,229,0
1270366,-8,2,231,0
1270376,-9,6,230,0
1270387,-10,6,228,0
1270398,-9,8,225,0
1270409,-8,11,225,0
1270420,-2,11,225,0
1270431,2,9,225,0
1270442,9,2,220,0
1270453,14,-3,219,0
1270464,18,-4,217,0
1270475,25,-16,217,0
1270486,32,-23,219,0
1270497,35,-24,225,0
1270508,35,-17,223,0
1270519,36,-12,221,0
1270530,37,-6,223,0
1270542,20,-1,218,1
1270553,8,2,213,0
1270563,2,6,212,0
1270574,-2,9,215,0
1270585,4,16,211,0
1270596,22,14,230,0
1270607,30,-26,258,0
1270618,45,-38,255,0
1270629,39,-9,255,0
1270640,13,-8,267,0
1270651,14,-20,286,0
1270662,24,-35,301,0
1270673,44,-25,305,0
1270684,67,-17,306,0
1270695,97,-12,301,0
1270706,127,-15,282,0
1270717,134,-5,270,0
1270728,130,6,260,0
1270739,110,18,250,0
1270750,85,12,238,0
1270761,65,3,216,0
1270772,50,2,196,0
1270783,39,0,175,0
1270794,26,-1,158,0
1270805,15,-7,151,0
1270816,13,-8,155,0
1270828,12,-12,169,0
1270838,21,-13,187,0
1270849,36,-13,200,0
1270860,50,-18,216,0
1270871,71,-20,239,0
1270882,74,-18,237,0
1270894,72,-22,228,0
1270904,69,-22,219,0
1270916,65,-21,219,0
1270926,58,-23,223,0
1270937,58,-18,228,0
1270948,51,-14,229,0
1270959,41,-13,233,0
1270970,34,-15,232,0
1270981,21,-16,230,0
1270993,11,-15,231,0
1271003,-2,-8,237,0
1271014,-14,-2,247,0
1271025,-24,0,250,0
1271036,-22,8,254,0
1271047,-16,13,253,0
1271058,-5,17,245,0
1271069,3,17,237,0
1271080,15,13,236,0
1271092,28,10,234,0
1271103,34,8,231,0
1271113,40,6,231,0
1271124,44,5,227,0
1271135,49,3,226,0
1271146,46,3,227,0
1271157,42,1,225,0
1271168,38,0,226,0
1271179,32,-1,228,0
1271192,22,-8,233,0
1271203,16,-11,230,0
1271213,10,-6,226,0
1271225,3,-4,222,0
1271235,-1,-1,220,0
1271246,-5,-4,217,0
1271257,-7,-4,216,0
1271268,-10,-5,216,0
1271279,-9,-6,217,0
1271291,-5,-4,217,0
1271301,-2,0,218,0
1271312,1,1,218,0
1271323,5,6,220,0
1271334,5,6,223,0
1271345,6,9,229,0
1271356,3,9,229,0
1271367,0,10,232,0
1271378,-1,8,233,0
1271389,-1,10,234,0
1271400,-2,12,232,0
1271411,-1,12,233,0
1271422,-1,13,232,0
1271433,0,15,231,0
1271444,-1,14,233,0
1271455,0,13,237,0
1271466,0,14,239,0
1271478,1,16,237,0
1271488,1,18,236,0
1271499,1,20,233,0
1271510,1,20,225,0
1271521,0,16,228,0
1271532,1,16,228,0
1271543,2,15,229,0
1271554,1,16,230,0
1271566,-1,19,228,0
1271576,-5,22,228,0
1271587,-10,25,225,0
1271598,-16,23,226,0
1271609,-20,23,228,0
1271621,-26,24,229,0
1271631,-32,23,232,0
1271642,-33,19,232,0
1271653,-35,22,235,0
1271664,-34,23,237,0
1271675,-34,24,239,0
1271686,-39,16,245,0
1271697,-36,20,246,0
1271708,-40,29,238,0
1271720,-45,28,231,0
1271731,-53,34,230,0
1271742,-62,28,228,0
1271753,-64,28,228,0
1271764,-66,34,225,0
1271776,-63,33,228,1
1271786,-54,35,235,0
1271797,-41,40,236,0
1271808,-25,40,239,0
1271819,1,31,246,0
1271830,81,48,311,0
1271841,102,45,291,0
1271853,134,43,303,0
1271863,146,47,297,0
1271874,142,71,304,0
1271885,132,63,265,0
1271896,103,15,206,0
1271907,75,-23,170,0
1271919,49,-42,153,0
1271929,27,-38,156,0
1271941,18,-37,159,1
1271951,18,-25,159,0
1271962,23,-17,168,0
1271973,30,-6,181,0
1271984,28,5,199,0
1271995,25,21,245,0
1272006,38,34,257,0
1272017,56,35,265,0
1272028,73,42,264,0
1272039,85,41,255,0
1272050,101,36,252,0
1272061,97,30,233,0
1272072,86,16,213,0
1272083,78,15,201,0
1272094,70,20,198,0
1272105,62,22,198,0
1272116,58,27,205,0
1272128,61,26,210,0
1272138,60,32,211,0
1272149,57,42,215,0
1272160,59,42,218,0
1272171,63,43,216,0
1272182,67,40,217,0
1272193,72,40,217,0
1272204,81,44,217,0
1272215,89,49,225,0
1272227,96,55,233,0
1272237,94,61,230,0
1272248,90,56,228,0
1272259,87,47,229,0
1272270,85,43,232,0
1272281,80,40,229,0
1272293,69,36,224,0
1272303,66,31,222,0
1272314,63,31,222,0
1272325,64,28,216,0
1272336,64,26,218,0
1272347,62,26,217,0
1272358,63,27,219,0
1272369,63,26,218,0
1272380,62,27,218,0
1272392,63,27,218,0
1272403,63,27,218,0
1272413,64,30,217,0
1272424,64,33,218,0
1272435,65,36,221,0
1272446,64,36,219,0
1272457,62,30,225,0
1272468,60,32,228,0
1272479,57,40,228,0
1272491,49,49,233,0
1272501,48,52,236,0
1272512,50,56,237,0
1272523,48,56,234,0
1272534,46,55,229,0
1272545,46,56,223,0
1272556,42,57,219,0
1272567,38,53,219,0
1272578,33,55,217,0
1272589,28,61,216,0
1272600,23,64,215,0
1272612,15,66,213,1
1272622,11,64,214,0
1272633,14,62,212,0
1272644,26,63,213,0
1272655,43,51,220,0
1272666,39,41,218,0
1272678,25,35,217,0
1272688,10,32,217,0
1272699,5,29,229,0
1272710,10,47,241,0
1272721,25,63,252,0
1272732,45,66,260,0
1272743,65,64,263,0
1272755,83,51,260,1
1272766,98,50,257,0
1272776,109,43,257,0
1272787,118,37,252,0
1272798,117,32,250,0
1272809,107,23,252,0
1272820,89,-3,245,0
1272831,76,-7,240,0
1272842,63,-13,232,0
1272853,58,-20,222,0
1272864,55,-20,221,0
1272875,52,-17,221,0
1272886,54,-16,223,0
1272897,55,-11,230,0
1272908,60,-2,245,0
1272919,63,4,254,0
1272930,65,7,256,0
1272941,67,6,257,0
1272953,70,4,257,0
1272963,69,1,252,0
1272974,67,-2,244,0
1272986,65,-7,222,0
1272996,65,-11,213,0
1273007,63,-7,206,0
1273018,63,-7,199,0
1273029,57,-3,196,0
1273040,53,1,199,0
1273051,52,5,201,0
1273062,53,11,201,0
1273073,56,13,203,0
1273084,56,16,211,0
1273095,52,13,214,0
1273106,45,8,217,0
1273117,37,7,214,0
1273128,30,10,211,0
1273139,23,13,212,0
1273150,14,15,221,0
1273161,8,14,220,0
1273172,5,14,222,0
1273183,1,18,221,0
1273194,0,19,222,0
1273205,-7,13,229,0
1273216,-8,7,232,0
1273229,0,29,230,0
1273239,1,29,216,0
1273250,-6,25,200,0
1273261,4,22,196,0
1273272,4,25,203,0
1273284,-1,20,209,0
1273294,-9,14,221,0
1273305,-11,13,225,0
1273316,-14,14,228,0
1273328,-17,14,230,0
1273338,-22,13,234,0
1273349,-25,8,239,0
1273361,-29,4,240,1
1273371,-30,0,242,0
1273382,-21,-2,248,0
1273393,-14,3,256,0
1273404,-8,0,263,0
1273416,-5,-1,265,0
1273426,3,0,268,0
1273437,42,-2,302,0
1273448,100,43,389,0
1273459,87,84,385,0
1273470,85,1,314,0
1273481,85,5,305,0
1273493,105,-8,332,0
1273503,77,-12,308,0
1273515,67,-24,260,1
1273525,55,-51,210,0
1273536,44,-39,185,0
1273547,50,-52,155,0
1273558,52,-41,146,0
1273569,48,-38,138,0
1273580,37,-30,142,0
1273592,31,-27,155,0
1273603,29,-12,172,0
1273614,43,0,199,0
1273625,60,3,210,0
1273636,75,2,216,0
1273647,87,0,224,0
1273658,93,-4,221,0
1273669,97,-7,214,0
1273680,87,-8,205,0
1273692,70,-8,201,0
1273703,60,-8,201,0
1273713,52,-9,204,0
1273724,51,-5,214,0
1273735,40,-1,214,0
1273746,33,-3,215,0
1273757,28,0,217,0
1273768,23,-2,214,0
1273779,13,-4,205,0
1273791,9,-7,203,0
1273801,4,-5,201,0
1273812,1,-4,203,0
1273823,1,-4,209,0
1273834,0,-1,213,0
1273845,1,-2,216,0
1273856,0,1,221,0
1273867,1,1,223,0
1273878,2,1,225,0
1273889,2,4,224,0
1273900,0,7,227,0
1273911,-2,11,224,0
1273922,-5,13,226,0
1273933,-3,9,223,0
1273944,1,2,220,0
1273955,6,-1,221,0
1273966,11,-9,221,0
1273978,16,-16,221,0
1273988,22,-18,217,0
1273999,24,-15,217,0
1274010,23,-5,218,0
1274021,21,4,220,0
1274032,15,18,225,0
1274043,2,30,227,0
1274054,-14,36,230,0
1274066,-33,36,232,1
1274076,-49,30,233,0
1274087,-61,25,234,0
1274098,-47,16,221,0
1274109,-34,-34,284,0
1274120,-27,-30,271,0
1274131,-29,-15,284,0
1274142,-26,-11,309,0
1274153,-6,12,308,0
1274164,12,21,306,0
1274175,28,-7,317,0
1274186,57,-18,318,0
1274197,81,-3,303,0
1274208,112,7,281,0
1274219,135,14,254,0
1274230,160,7,222,0
1274241,175,2,188,0
1274253,173,2,170,0
1274263,163,0,160,0
1274274,131,-2,163,0
1274285,109,-1,185,0
1274296,79,-8,201,0
1274307,58,-6,219,0
1274318,33,0,237,0
1274329,9,7,256,0
1274341,-2,7,273,0
1274351,-12,8,276,0
1274362,-19,5,266,0
1274373,-17,4,260,0
1274384,-15,7,250,0
1274395,-8,4,235,0
1274406,-2,2,217,0
1274417,5,4,201,0
1274428,12,3,191,0
1274439,23,1,190,0
1274450,27,2,196,0
1274461,32,1,195,0
1274472,33,6,199,0
1274483,35,9,209,0
1274494,31,9,220,0
1274505,27,7,222,0
1274516,21,5,226,0
1274528,19,4,228,0
1274538,16,2,231,0
1274549,10,2,229,0
1274560,5,2,227,0
1274571,1,1,225,0
1274582,-4,2,220,0
1274593,-7,1,212,0
1274604,-12,3,213,0
1274615,-14,2,219,0
1274626,-13,1,223,0
1274637,-13,8,228,0
1274648,-12,9,242,0
1274659,-7,2,248,0
1274670,-5,22,238,0
1274681,-14,25,244,0
1274693,-20,8,248,0
1274703,-21,0,244,0
1274714,-22,-4,236,0
1274725,-28,0,231,0
1274736,-36,1,235,0
1274747,-36,-3,235,0
1274758,-30,-10,239,0
1274770,65,-9,379,1
1274780,77,45,380,0
1274792,95,21,372,0
1274803,120,-22,357,0
1274813,137,-20,376,0
1274824,147,5,369,0
1274835,111,17,316,0
1274846,72,11,256,0
1274857,36,12,206,0
1274868,-3,50,167,0
1274879,-5,-113,187,0
1274891,-4,-7,132,0
1274901,8,-35,142,0
1274912,18,-45,137,0
1274923,30,-8,155,0
1274934,32,-9,177,0
1274945,44,-14,204,0
1274956,62,-9,223,0
1274967,73,-9,231,0
1274978,88,-12,226,0
1274989,94,-16,224,0
1275000,90,-18,223,0
1275011,83,-20,219,0
1275022,77,-15,210,0
1275033,66,-14,203,0
1275044,61,-6,199,0
1275055,61,-8,199,0
1275066,63,-5,204,0
1275078,66,-3,209,0
1275088,69,0,213,0
1275099,67,3,216,0
1275110,61,3,216,0
1275121,52,5,219,0
1275132,39,4,219,0
1275143,26,5,218,0
1275154,13,5,217,0
1275166,6,5,217,0
1275178,0,7,217,0
1275188,-8,6,219,0
1275199,-17,6,225,0
1275210,-19,6,231,0
1275221,-28,13,233,0
1275232,-27,9,239,0
1275243,-22,6,238,0
1275254,-19,2,227,0
1275266,-14,1,225,0
1275276,-13,1,223,0
1275287,-12,0,225,0
1275298,-9,-1,225,0
1275310,-5,-5,220,0
1275320,0,-8,214,0
1275331,1,-14,206,0
1275342,5,-14,204,0
1275353,9,-10,207,0
1275364,11,-5,216,0
1275375,15,0,219,0
1275387,16,6,222,1
1275398,14,9,223,0
1275408,8,9,224,0
1275419,-4,6,227,0
1275430,-5,6,227,0
1275441,14,11,218,0
1275453,4,-17,262,0
1275463,-5,-54,268,0
1275474,-12,-20,251,0
1275485,-32,-6,264,0
1275496,-27,0,283,0
1275507,-16,-7,293,0
1275518,-2,-27,299,0
1275529,12,-27,305,0
1275540,31,-11,314,0
1275551,53,-1,320,0
1275562,78,7,310,0
1275573,99,24,293,0
1275584,123,29,241,0
1275595,126,21,203,0
1275606,127,14,170,0
1275617,119,2,139,0
1275628,111,-10,128,0
1275639,97,-16,136,0
1275650,83,-21,152,0
1275661,70,-23,181,0
1275672,64,-17,206,0
1275683,50,-6,219,0
1275695,37,2,236,0
1275705,35,12,276,0
1275716,29,17,288,0
1275728,19,15,285,0
1275738,16,12,279,0
1275749,7,0,245,0
1275760,8,0,234,0
1275771,10,-1,221,0
1275782,12,0,214,0
1275793,15,1,208,0
1275804,19,2,208,0
1275815,23,1,203,0
1275826,29,0,205,0
1275837,31,0,198,0
1275848,25,1,188,0
1275859,20,2,188,0
1275870,12,0,190,0
1275881,2,1,191,0
1275893,-6,0,194,0
1275903,-19,-1,195,0
1275914,-37,-12,195,0
1275925,-40,-21,198,0
1275936,-36,-26,201,0
1275947,-36,-21,203,0
1275958,-34,-26,210,0
1275969,-30,-32,217,0
1275980,-26,-28,224,0
1275992,-23,-25,229,0
1276003,-19,-26,229,0
1276013,-22,-14,234,0
1276024,-21,-5,241,0
1276035,-37,49,268,0
1276046,-57,39,290,0
1276057,-62,13,285,0
1276068,-50,1,259,0
1276079,43,-45,302,0
1276091,96,-25,376,0
1276101,88,19,389,0
1276112,84,-21,375,0
1276123,84,-53,334,0
1276134,76,-38,302,0
1276145,60,-19,281,0
1276156,44,-35,265,0
1276167,31,-33,248,0
1276178,14,-20,221,0
1276190,7,2,151,1
1276200,22,-141,236,0
1276211,53,-39,143,0
1276222,61,-1,178,0
1276233,85,-38,163,0
1276244,94,-14,175,0
1276255,103,-5,185,0
1276266,106,0,190,0
1276278,107,-4,191,0
1276288,106,-3,203,0
1276299,111,-10,205,0
1276310,110,-4,214,0
1276321,102,-3,221,0
1276332,95,-3,221,0
1276343,89,2,217,0
1276354,86,5,208,0
1276366,81,1,205,0
1276376,74,7,207,0
1276387,65,14,215,0
1276398,62,15,220,0
1276409,55,18,229,0
1276420,48,20,231,0
1276431,40,19,226,0
1276442,32,16,222,0
1276453,24,12,220,0
1276464,19,13,221,0
1276475,13,14,220,0
1276486,11,15,222,0
1276497,11,11,221,0
1276508,5,13,223,0
1276519,5,11,225,0
1276530,4,9,229,0
1276541,7,12,232,0
1276553,6,8,227,0
1276563,8,3,223,0
1276574,3,8,219,0
1276585,6,6,225,0
1276596,6,5,227,0
1276607,1,3,227,0
1276618,-2,1,225,0
1276630,-4,1,222,0
1276640,-8,6,221,0
1276651,-12,8,222,0
1276662,-14,8,221,0
1276673,-12,7,225,0
1276684,-13,4,224,0
1276695,-18,0,225,0
1276706,-19,4,223,0
1276717,-22,4,223,0
1276728,-24,4,224,0
1276739,-24,1,228,0
1276750,-24,2,237,0
1276761,-29,3,244,0
1276772,-36,1,247,0
1276783,-46,0,248,0
1276794,-55,-4,243,0
1276805,-59,-1,245,0
1276817,-41,8,235,1
1276828,20,51,220,0
1276838,-13,-44,295,0
1276849,6,-122,295,0
1276860,-1,-55,267,0
1276871,-18,-16,283,0
1276882,-9,-2,332,0
1276893,33,1,338,0
1276904,68,9,321,0
1276916,114,41,284,0
1276926,128,29,251,0
1276937,134,21,210,0
1276948,138,21,169,0
1276959,139,20,140,0
1276970,130,22,130,0
1276981,122,27,136,0
1276993,102,28,159,0
1277004,81,30,183,0
1277014,57,24,193,0
1277025,42,16,206,0
1277036,26,6,221,0
1277047,14,11,245,0
1277058,14,20,260,0
1277069,30,17,272,0
1277081,46,4,264,0
1277092,51,3,256,0
1277103,55,9,256,0
1277113,55,9,244,0
1277124,55,12,231,0
1277135,52,15,221,0
1277147,47,13,219,0
1277157,39,12,220,0
1277168,27,8,213,0
1277179,22,7,216,0
1277191,9,3,208,0
1277201,1,2,204,0
1277212,-7,0,202,0
1277223,-11,-1,205,0
1277234,-12,-1,206,0
1277245,-6,6,198,0
1277256,-12,-13,195,0
1277267,-3,-18,196,0
1277278,-3,-7,190,0
1277289,-6,-1,185,0
1277300,-10,-4,183,0
1277312,-14,-5,188,0
1277323,-12,-3,191,0
1277334,-11,-3,205,0
1277345,-7,-6,218,0
1277356,-4,0,221,0
1277367,-3,5,224,0
1277378,-7,20,234,0
1277389,-13,14,258,0
1277400,-4,7,260,0
1277411,4,3,263,0
1277422,12,-3,265,0
1277433,18,-4,264,0
1277444,15,5,259,0
1277455,5,7,254,0
1277466,5,-6,262,0
1277478,55,-30,343,0
1277488,64,39,358,0
1277499,45,36,319,0
1277510,43,-33,291,0
1277522,33,-36,266,1
1277532,29,-25,257,0
1277543,54,-12,313,0
1277554,31,8,303,0
1277566,36,-20,248,0
1277576,31,-24,215,0
1277587,32,-27,188,0
1277598,38,-32,165,0
1277609,40,-38,150,0
1277621,41,-35,156,0
1277631,42,-30,160,0
1277642,45,-17,168,0
1277653,52,-12,179,0
1277664,60,-6,189,0
1277675,71,1,203,0
1277686,79,6,219,0
1277697,85,10,235,0
1277708,87,7,232,0
1277719,77,-3,217,0
1277730,72,-1,212,0
1277741,71,-5,208,0
1277753,62,-13,205,0
1277763,53,-15,207,0
1277774,41,-6,212,0
1277785,38,1,217,0
1277796,30,2,220,0
1277807,27,8,223,0
1277818,25,11,223,0
1277830,21,11,225,0
1277840,12,12,225,0
1277851,4,11,224,0
1277862,0,6,218,0
1277873,-6,4,214,0
1277884,-17,2,211,0
1277895,-22,1,215,0
1277906,-23,1,223,0
1277917,-22,2,227,0
1277928,-20,2,229,0
1277939,-18,5,231,0
1277950,-16,6,232,0
1277961,-12,7,230,0
1277972,-13,12,232,0
1277983,-11,15,232,0
1277994,-9,18,232,0
1278005,-5,16,230,0
1278016,0,9,221,0
1278028,4,5,213,0
1278038,8,-2,207,0
1278049,13,-20,204,0
1278060,17,-21,206,0
1278071,19,-20,211,0
1278082,24,-11,215,0
1278093,27,-3,220,0
1278105,24,3,224,0
1278115,10,7,224,0
1278126,-9,6,224,0
1278137,-26,7,218,0
1278149,-29,14,211,0
1278160,-7,24,214,1
1278170,-15,-4,259,0
1278181,-14,-32,265,0
1278193,-19,-2,258,0
1278204,-31,24,300,0
1278214,-20,34,312,0
1278225,-11,11,309,0
1278236,4,-3,299,0
1278247,16,0,302,0
1278258,38,-5,300,0
1278269,68,1,296,0
1278280,94,6,287,0
1278291,109,6,272,0
1278303,115,6,247,0
1278313,117,1,211,0
1278324,126,4,197,0
1278335,126,-1,169,0
1278346,122,-8,143,0
1278357,118,-16,126,0
1278369,103,-29,120,0
1278380,95,-27,135,0
1278392,85,-23,157,0
1278403,76,-20,184,0
1278413,67,-14,206,0
1278424,63,-4,228,0
1278435,53,9,252,0
1278446,52,22,275,0
1278457,58,30,296,0
1278468,41,33,301,0
1278479,24,36,300,0
1278491,13,33,297,0
1278502,7,30,292,0
1278512,4,23,274,0
1278523,5,13,256,0
1278534,8,6,226,0
1278545,10,9,225,0
1278556,10,12,226,0
1278567,13,12,229,0
1278578,15,10,227,0
1278589,15,12,224,0
1278600,10,11,216,0
1278611,5,7,210,0
1278622,2,7,207,0
1278633,1,2,203,0
1278644,0,2,202,0
1278655,-5,2,202,0
1278666,-11,2,200,0
1278678,-17,2,198,0
1278688,-19,1,197,0
1278699,-22,3,197,0
1278710,-22,4,202,0
1278721,-19,5,207,0
1278732,-16,5,210,0
1278743,-10,9,214,0
1278754,-4,12,217,0
1278766,1,9,215,0
1278776,3,14,225,0
1278787,1,10,244,0
1278798,1,11,244,0
1278809,-7,10,248,0
1278820,-12,3,253,0
1278831,-13,9,251,0
1278842,-21,29,258,0
1278853,-40,25,251,0
1278864,-43,13,255,0
1278875,-20,8,275,0
1278886,37,1,348,0
1278898,55,51,357,1
1278908,60,25,356,0
1278919,82,-22,345,0
1278930,114,-35,354,0
1278941,109,-7,344,0
1278953,83,4,303,0
1278963,59,-1,236,0
1278974,21,-7,190,0
1278985,-2,-13,203,0
1278996,11,-93,185,0
1279007,18,-4,170,0
1279018,32,-51,161,0
1279029,51,-24,169,0
1279041,58,-16,177,1
1279051,61,-5,182,0
1279063,66,-3,189,0
1279073,66,6,199,0
1279084,72,1,212,0
1279095,81,1,217,0
1279106,86,-4,210,0
1279117,91,-12,209,0
1279129,88,-13,216,0
1279139,79,-16,215,0
1279150,78,-17,210,0
1279161,76,-16,204,0
1279172,72,-14,203,0
1279183,60,-15,202,0
1279194,41,-6,214,0
1279205,39,-2,218,0
1279216,40,-1,224,0
1279228,46,1,226,0
1279238,42,4,229,0
1279249,34,2,228,0
1279260,26,-1,224,0
1279271,21,-1,220,0
1279282,16,0,217,0
1279293,16,-2,216,0
1279304,15,-3,211,0
1279315,13,-2,210,0
1279326,11,-2,216,0
1279337,10,-1,223,0
1279348,2,3,227,0
1279359,-1,8,234,0
1279370,-3,8,237,0
1279381,-5,10,234,0
1279393,-6,12,232,0
1279403,-5,9,230,0
1279414,-4,7,227,0
1279425,-1,4,223,0
1279436,0,2,224,0
1279447,3,-5,216,0
1279458,8,-12,217,0
1279469,13,-17,212,0
1279480,17,-20,207,0
1279492,20,-16,206,0
1279503,22,-7,212,0
1279513,23,0,216,0
1279524,15,9,224,0
1279535,6,9,225,0
1279546,0,13,226,0
1279557,-8,13,222,0
1279568,-3,16,208,0
1279580,7,19,217,0
1279592,0,-26,250,1
1279603,-1,-36,248,0
1279613,-11,-9,242,0
1279624,-14,6,265,0
1279635,-18,14,299,0
1279646,-13,3,308,0
1279657,1,-5,307,0
1279668,32,2,319,0
1279679,60,11,318,0
1279691,84,18,311,0
1279701,96,20,291,0
1279712,108,21,275,0
1279723,112,16,246,0
1279734,116,8,220,0
1279745,117,-4,189,0
1279756,113,-12,165,0
1279767,106,-21,146,0
1279778,97,-30,135,0
1279789,89,-35,133,0
1279800,80,-36,136,0
1279811,73,-35,151,0
1279822,68,-28,181,0
1279833,70,-9,212,0
1279844,64,2,230,0
1279855,55,15,254,0
1279867,54,19,282,0
1279878,47,22,298,0
1279888,36,25,300,0
1279899,23,24,288,0
1279910,13,19,273,0
1279921,12,13,259,0
1279932,10,4,247,0
1279943,7,0,236,0
1279954,12,-5,223,0
1279966,15,-1,220,0
1279976,21,-3,219,0
1279987,30,-2,215,0
1279998,33,5,217,0
1280009,33,5,215,0
1280020,35,5,210,0
1280031,29,5,207,0
1280042,24,6,205,0
1280053,18,7,204,0
1280064,10,3,206,0
1280075,2,3,207,0
1280086,0,1,208,0
1280097,-5,0,208,0
1280108,-8,-1,206,0
1280119,-8,0,206,0
1280130,-10,1,208,0
1280141,-8,2,208,0
1280153,-4,11,205,0
1280163,-2,11,206,0
1280174,0,14,205,0
1280185,1,18,214,0
1280196,-1,15,228,0
1280207,-3,11,234,0
1280218,-5,6,229,0
1280229,-4,3,228,0
1280240,-4,4,232,0
1280251,-4,6,238,0
1280262,-10,19,243,0
1280274,-19,20,247,1
1280284,-21,17,251,0
1280295,-20,24,251,0
1280306,-21,30,256,0
1280317,-25,21,252,0
1280328,4,-12,278,0
1280342,60,-22,367,0
1280353,80,29,392,0
1280363,91,24,374,0
1280374,109,-12,324,0
1280385,111,-22,296,0
1280396,115,-21,305,0
1280407,98,-6,280,0
1280418,72,-17,236,0
1280429,38,-31,217,0
1280440,23,-26,204,0
1280451,14,-17,193,0
1280462,16,-7,200,0
1280473,50,-76,152,0
1280485,54,-6,185,0
1280495,66,-42,180,0
1280506,66,-9,190,0
1280517,79,-1,198,0
1280528,84,7,204,0
1280539,85,1,210,0
1280550,85,-6,210,0
1280561,83,-12,217,0
1280572,82,-17,217,0
1280584,77,-16,214,0
1280595,76,-18,212,0
1280606,81,-17,212,0
1280617,86,-14,207,0
1280628,87,-17,204,0
1280639,77,-18,206,0
1280650,65,-14,213,0
1280661,57,-9,221,0
1280672,50,-4,227,0
1280683,52,-2,231,0
1280694,53,-4,229,0
1280705,49,-2,228,0
1280716,40,-1,228,0
1280728,34,-6,226,0
1280738,28,-5,218,0
1280749,24,-4,215,0
1280760,21,-5,217,0
1280771,20,-6,223,0
1280782,21,-7,226,0
1280793,23,-3,230,0
1280804,24,-1,229,0
1280815,26,-2,228,0
1280826,26,-3,227,0
1280837,25,0,229,0
1280848,23,-3,226,0
1280859,18,-7,227,0
1280870,15,-15,221,0
1280881,15,-15,219,0
1280893,12,-16,221,0
1280903,11,-17,221,0
1280914,10,-13,222,0
1280925,13,-11,225,0
1280936,22,-7,230,0
1280948,27,-8,237,0
1280958,29,-8,237,0
1280969,34,-7,235,0
1280980,38,-8,233,0
1280992,38,0,231,0
1281003,36,0,232,0
1281013,33,3,237,0
1281025,28,1,241,0
1281035,26,4,240,0
1281046,22,3,239,0
1281057,16,10,239,0
1281068,9,7,240,0
1281079,6,2,241,0
1281091,6,-3,232,0
1281101,1,-7,215,0
1281112,0,-10,213,0
1281123,1,-7,210,0
1281135,-2,-5,217,0
1281146,-6,0,222,0
1281157,-5,-2,224,0
1281168,0,-1,230,0
1281179,5,2,233,0
1281191,10,3,242,0
1281201,18,1,241,0
1281212,22,2,238,0
1281223,24,1,236,0
1281234,20,0,231,0
1281245,19,-2,230,0
1281256,13,-4,226,0
1281268,15,-4,226,1
1281279,13,-3,225,0
1281291,13,-9,216,0
1281301,21,-26,206,0
1281312,41,-49,204,0
1281323,56,-75,226,0
1281334,56,-68,244,0
1281345,47,-24,239,0
1281356,23,-2,233,0
1281367,3,-1,250,0
1281378,12,12,258,0
1281389,24,25,258,0
1281400,52,7,269,0
1281411,72,1,273,0
1281422,92,2,269,0
1281433,99,-1,260,0
1281444,101,-8,250,0
1281455,98,-12,236,0
1281466,85,-20,221,0
1281478,69,-30,211,0
1281488,65,-31,208,0
1281499,60,-26,207,0
1281510,52,-20,213,0
1281521,48,-22,214,0
1281532,41,-20,207,0
1281543,38,-18,204,0
1281554,38,-19,200,0
1281565,48,-36,198,0
1281576,56,-38,204,0
1281587,60,-32,213,0
1281598,64,-26,225,0
1281609,67,-22,229,0
1281620,75,-19,233,0
1281631,82,-26,233,0
1281642,90,-28,230,0
1281653,97,-26,227,0
1281664,98,-24,225,0
1281675,93,-28,220,0
1281686,88,-33,216,0
1281697,87,-33,222,0
1281708,85,-37,220,0
1281719,82,-34,216,0
1281730,84,-32,213,0
1281741,87,-31,209,0
1281753,90,-31,205,0
1281763,93,-29,205,0
1281774,90,-27,203,0
1281785,85,-31,202,0
1281796,85,-36,204,0
1281807,86,-40,203,0
1281818,87,-41,203,0
1281830,85,-40,200,0
1281840,84,-40,200,0
1281851,87,-38,201,0
1281862,91,-35,204,0
1281873,94,-31,207,0
1281884,93,-27,205,0
1281895,92,-40,203,0
1281906,92,-38,200,0
1281917,94,-39,197,0
1281928,98,-36,198,0
1281939,99,-28,200,0
1281950,99,-22,202,0
1281961,97,-18,206,0
1281972,97,-22,209,0
1281983,96,-30,209,0
1281994,97,-34,204,0
1282005,98,-34,206,0
1282016,97,-30,207,0
1282028,102,-24,205,0
1282038,108,-19,207,0
1282049,115,-18,207,0
1282060,121,-23,204,0
1282071,122,-24,200,0
1282082,126,-29,197,0
1282093,130,-28,194,0
1282104,132,-25,195,0
1282115,137,-18,198,0
1282126,143,-16,199,0
1282137,149,-16,199,0
1282149,155,-13,200,0
1282159,160,-14,199,0
1282170,163,-15,201,0
1282181,165,-13,200,0
1282193,165,-15,197,0
1282203,166,-18,196,0
1282214,165,-18,195,0
1282225,167,-18,196,0
1282236,168,-16,196,0
1282247,170,-15,198,0
1282258,173,-13,199,0
1282269,170,-12,198,0
1282280,163,-14,195,0
1282292,154,-14,192,0
1282303,146,-14,189,0
1282313,141,-13,189,0
1282325,136,-10,190,0
1282335,133,-11,190,0
1282346,132,-10,190,0
1282357,130,-13,192,0
1282368,129,-11,193,0
1282379,129,-12,195,0
1282391,133,-15,195,0
1282401,136,-16,194,0
1282412,141,-15,194,0
1282423,149,-15,196,0
1282434,155,-12,197,0
1282445,158,-15,196,0
1282456,158,-14,196,0
1282467,152,-13,194,0
1282478,147,-14,194,0
1282489,139,-13,193,0
1282500,136,-14,194,0
1282511,132,-16,193,0
1282522,130,-17,194,0
1282533,129,-14,193,0
1282544,129,-13,193,0
1282555,129,-11,193,0
1282566,129,-15,194,0
1282578,129,-14,193,0
1282588,130,-12,194,0
1282599,132,-14,197,0
1282610,134,-14,197,0
1282621,133,-14,198,0
1282632,132,-13,199,0
1282643,134,-14,198,0
1282654,134,-15,198,0
1282665,135,-12,198,0
1282676,135,-12,197,0
1282687,136,-13,196,0
1282698,136,-15,197,0
1282709,137,-14,198,0
1282720,138,-14,199,0
1282731,139,-15,200,0
1282742,141,-14,199,0
1282753,141,-13,199,0
1282764,144,-14,198,0
1282775,144,-13,197,0
1282786,144,-13,197,0
1282797,144,-13,196,0
1282808,141,-12,194,0
1282819,140,-15,196,0
1282830,138,-13,195,0
1282841,137,-11,193,0
1282853,134,-10,195,0
1282863,133,-11,196,0
1282874,130,-13,196,0
1282885,130,-12,198,0
1282896,128,-15,198,0
1282907,126,-15,199,0
1282918,127,-15,199,0
1282929,126,-14,199,0
1282940,124,-15,200,0
1282951,124,-14,199,0
1282962,126,-12,199,0
1282973,128,-11,200,0
1282984,129,-11,201,0
1282995,131,-11,200,0
1283006,131,-12,200,0
1283017,130,-13,197,0
1283028,131,-14,197,0
1283039,130,-12,196,0
1283050,129,-13,196,0
1283061,128,-10,196,0
1283072,128,-9,196,0
1283083,127,-11,196,0
1283094,127,-12,195,0
1283106,127,-12,197,0
1283117,127,-12,197,0
1283128,127,-10,200,0
1283139,129,-10,201,0
1283150,128,-10,202,0
1283161,131,-10,203,0
1283172,133,-12,205,0
1283183,136,-11,204,0
1283194,137,-9,203,0
1283205,139,-10,204,0
1283216,137,-10,203,0
1283228,137,-9,204,0
1283238,138,-7,201,0
1283249,139,-8,197,0
1283260,139,-8,196,0
1283271,139,-7,194,0
1283282,138,-7,193,0
1283293,136,-7,193,0
1283304,136,-5,196,0
1283315,133,-5,196,0
1283326,131,-4,198,0
1283337,131,-4,199,0
1283348,129,-4,198,0
1283359,128,-3,196,0
1283370,128,-2,190,0
1283381,126,-4,189,0
1283393,126,-4,191,0
1283403,127,-6,195,0
1283414,129,-6,198,0
1283425,131,-3,202,0
1283436,132,-2,202,0
1283447,135,-6,202,0
1283458,142,-6,196,0
1283469,145,-10,192,0
1283480,146,-11,190,0
1283492,142,-9,189,0
1283503,140,-9,192,0
1283513,137,-7,194,0
1283525,135,-7,198,0
1283535,139,-6,203,0
1283546,144,-6,205,0
1283557,147,-6,204,0
1283568,150,-5,200,0
1283579,148,-5,198,0
1283591,145,-5,197,0
1283601,140,-5,196,0
1283612,137,-6,197,0
1283623,134,-2,198,0
1283634,133,-2,197,0
1283645,135,-4,198,0
1283656,140,-7,199,0
1283667,144,-6,198,0
1283678,146,-3,197,0
1283689,147,-1,195,0
1283700,143,-2,191,0
1283711,142,-3,192,0
1283722,140,-2,192,0
1283733,137,-1,192,0
1283744,134,-1,191,0
1283755,132,-2,190,0
1283766,131,-5,189,0
1283778,129,-2,190,0
1283788,129,-1,190,0
1283799,129,-1,192,0
1283810,128,-2,196,0
1283821,129,-3,197,0
1283832,131,-4,197,0
1283843,134,-1,198,0
1283854,135,-1,198,0
1283865,139,-5,196,0
1283876,139,-5,198,0
1283887,139,-4,199,0
1283898,140,-4,200,0
1283909,141,-6,200,0
1283920,142,-5,200,0
1283931,144,-4,200,0
1283942,145,-5,197,0
1283953,145,-5,196,0
1283964,143,-4,194,0
1283975,142,-5,196,0
1283986,138,-4,194,0
1283997,134,-4,195,0
1284008,128,-5,195,0
1284019,125,-5,195,0
1284030,124,-3,199,0
1284041,128,-1,199,0
1284053,130,-1,201,0
1284063,132,0,200,0
1284074,134,-1,199,0
1284085,133,-3,199,0
1284096,131,-1,199,0
1284107,130,-3,197,0
1284118,129,-2,198,0
1284129,130,-2,198,0
1284140,133,0,200,0
1284151,135,1,200,0
1284162,136,0,199,0
1284173,138,-2,199,0
1284184,137,-1,197,0
1284195,134,0,196,0
1284206,133,0,196,0
1284217,130,0,194,0
1284228,130,-1,195,0
1284239,130,0,194,0
1284250,133,-1,195,0
1284261,136,-1,196,0
1284272,140,0,197,0
1284283,142,0,197,0
1284294,145,1,198,0
1284305,146,1,199,0
1284316,146,0,199,0
1284328,145,0,200,0
1284338,146,-3,199,0
1284349,147,-2,198,0
1284360,142,-1,194,0
1284371,140,-1,196,0
1284382,137,-1,196,0
1284393,134,0,196,0
1284404,132,0,197,0
1284416,131,-1,196,0
1284427,129,-2,196,0
1284437,131,-3,196,0
1284448,132,-1,195,0
1284459,132,-1,196,0
1284470,133,-1,197,0
1284481,132,0,198,0
1284493,130,1,199,0
1284503,130,0,200,0
1284514,129,0,198,0
1284525,128,0,197,0
1284536,129,-4,196,0
1284547,129,-6,194,0
1284558,129,-6,193,0
1284569,129,-3,194,0
1284580,130,-1,195,0
1284593,133,-1,195,0
1284603,133,-1,197,0
1284614,133,-2,197,0
1284625,133,-2,198,0
1284636,133,-2,199,0
1284647,135,-3,199,0
1284658,135,-1,201,0
1284669,136,0,204,0
1284680,137,0,203,0
1284692,136,0,200,0
1284703,135,0,199,0
1284713,133,-1,198,0
1284725,135,-5,197,0
1284735,134,-3,197,0
1284746,134,-3,198,0
1284757,134,-2,199,0
1284768,136,-3,199,0
1284779,136,-2,200,0
1284791,136,-2,200,0
1284801,136,-1,200,0
1284812,133,-1,200,0
1284823,132,0,197,0
1284834,130,0,198,0
1284845,128,0,198,0
1284856,128,0,199,0
1284867,131,1,199,0
1284878,133,2,200,0
1284889,134,3,198,0
1284900,133,4,197,0
1284911,134,3,197,0
1284922,133,3,195,0
1284933,132,2,194,0
1284944,132,1,194,0
1284955,133,1,194,0
1284966,134,1,195,0
1284978,135,2,198,0
1284988,137,0,196,0
1284999,139,3,196,0
1285010,140,2,194,0
1285021,140,1,195,0
1285032,140,1,193,0
1285043,138,1,193,0
1285054,137,2,194,0
1285065,136,1,195,0
1285076,133,2,196,0
1285087,133,2,195,0
1285098,133,1,195,0
1285109,132,0,195,0
1285120,133,-1,195,0
1285131,135,0,195,0
1285142,137,0,196,0
1285153,141,-1,195,0
1285164,143,0,195,0
1285176,146,1,197,0
1285186,146,1,196,0
1285197,143,3,198,0
1285208,140,3,199,0
1285219,136,2,199,0
1285230,134,2,199,0
1285241,132,3,198,0
1285253,131,3,196,0
1285263,132,2,196,0
1285274,131,2,195,0
1285285,134,1,195,0
1285296,139,1,194,0
1285307,142,2,194,0
1285318,145,2,194,0
1285329,146,2,195,0
1285340,144,1,193,0
1285351,139,1,195,0
1285362,137,0,193,0
1285373,135,0,194,0
1285384,133,0,193,0
1285395,135,0,193,0
1285406,136,1,194,0
1285417,135,0,195,0
1285428,137,0,195,0
1285439,138,1,196,0
1285450,141,0,195,0
1285461,143,0,197,0
1285472,143,0,195,0
1285483,143,0,196,0
1285494,141,0,197,0
1285505,138,1,198,0
1285516,139,1,197,0
1285528,138,1,199,0
1285538,139,2,199,0
1285549,138,2,200,0
1285560,138,1,199,0
1285571,138,1,198,0
1285582,138,2,197,0
1285593,138,2,199,0
1285604,138,2,196,0
1285615,141,2,196,0
1285626,141,2,196,0
1285637,143,2,195,0
1285648,142,0,195,0
1285659,141,1,196,0
1285670,142,0,195,0
1285681,143,0,193,0
1285693,146,0,191,0
1285703,145,0,193,0
1285714,146,0,193,0
1285725,148,1,194,0
1285736,149,1,193,0
1285747,148,2,194,0
1285758,145,3,194,0
1285769,141,2,194,0
1285780,138,3,192,0
1285791,135,3,192,0
1285803,132,4,194,0
1285813,130,2,195,0
1285825,130,3,194,0
1285835,129,1,195,0
1285847,131,1,195,0
1285857,132,0,195,0
1285868,133,0,193,0
1285879,133,0,191,0
1285891,132,0,193,0
1285901,132,-1,193,0
1285912,133,0,193,0
1285923,134,1,196,0
1285935,136,1,196,0
1285945,136,3,196,0
1285956,139,3,194,0
1285967,138,2,195,0
1285978,137,3,197,0
1285989,134,2,198,0
1286000,129,1,201,0
1286011,129,1,202,0
1286022,131,1,200,0
1286033,134,1,197,0
1286044,138,2,197,0
1286055,143,1,195,0
1286066,146,0,193,0
1286078,148,0,192,0
1286088,148,0,193,0
1286099,147,0,197,0
1286110,145,0,197,0
1286121,145,1,198,0
1286132,145,2,198,0
1286143,144,1,194,0
1286154,140,-1,192,0
1286165,137,-1,190,0
1286176,134,0,191,0
1286188,132,2,193,0
1286198,130,2,196,0
1286209,128,1,199,0
1286220,128,1,201,0
1286231,128,1,199,0
1286242,128,0,197,0
1286253,129,1,196,0
1286264,131,0,195,0
1286275,130,1,196,0
1286286,132,0,197,0
1286297,133,1,199,0
1286308,132,3,199,0
1286319,134,3,201,0
1286330,134,2,200,0
1286341,135,2,199,0
1286353,136,2,197,0
1286363,138,1,196,0
1286374,139,1,196,0
1286385,138,2,196,0
1286396,139,2,195,0
1286407,139,3,198,0
1286418,139,4,199,0
1286429,139,2,200,0
1286440,139,3,201,0
1286451,140,4,199,0
1286462,141,3,199,0
1286473,138,3,198,0
1286484,139,2,198,0
1286495,138,2,198,0
1286506,138,2,199,0
1286517,138,3,200,0
1286528,136,2,200,0
1286539,137,2,198,0
1286550,135,3,197,0
1286561,134,1,197,0
1286572,135,1,196,0
1286583,134,1,196,0
1286594,130,1,197,0
1286605,127,1,197,0
1286616,127,2,197,0
1286628,128,3,199,0
1286638,130,3,197,0
1286649,133,2,198,0
1286660,138,3,195,0
1286671,139,2,196,0
1286682,138,1,196,0
1286693,138,1,197,0
1286704,137,1,196,0
1286715,135,2,196,0
1286726,135,2,196,0
1286737,135,1,195,0
1286748,136,2,196,0
1286759,138,1,197,0
1286770,140,1,197,0
1286781,142,2,196,0
1286793,144,3,197,0
1286803,144,3,196,0
1286814,143,4,196,0
1286825,140,5,195,0
1286836,139,4,195,0
1286847,138,4,195,0
1286858,137,2,194,0
1286869,135,2,193,0
1286880,135,2,194,0
1286892,136,2,193,0
1286903,136,2,195,0
1286913,137,3,195,0
1286925,135,3,195,0
1286935,133,3,196,0
1286946,130,3,196,0
1286957,129,2,195,0
1286968,129,3,198,0
1286979,130,3,198,0
1286991,134,3,196,0
1287001,137,3,195,0
1287012,138,2,195,0
1287023,140,4,196,0
1287034,140,4,195,0
1287045,140,5,197,0
1287056,140,4,198,0
1287067,140,5,197,0
1287078,139,5,196,0
1287089,140,3,195,0
1287100,140,3,196,0
1287111,141,2,196,0
1287122,141,4,194,0
1287133,140,4,197,0
1287144,142,3,196,0
1287155,142,3,195,0
1287166,141,3,195,0
1287178,138,4,195,0
1287188,138,3,195,0
1287199,137,2,195,0
1287210,135,3,195,0
1287221,135,4,195,0
1287232,134,3,196,0
1287243,135,3,197,0
1287254,135,4,196,0
1287265,134,3,196,0
1287276,134,4,196,0
1287287,134,4,197,0
1287298,135,4,196,0
1287309,134,4,196,0
1287321,137,3,196,0
1287331,137,4,197,0
1287342,139,3,196,0
1287353,139,4,198,0
1287364,140,5,198,0
1287376,140,3,199,0
1287386,142,4,199,0
1287397,141,4,199,0
1287408,141,4,196,0
1287419,140,4,194,0
1287430,141,6,193,0
1287441,142,4,195,0
1287453,140,5,195,0
1287463,142,3,196,0
1287474,141,1,197,0
1287485,139,1,198,0
1287496,137,3,199,0
1287507,135,4,198,0
1287518,135,4,199,0
1287529,136,6,196,0
1287540,137,7,194,0
1287551,136,6,193,0
1287562,137,3,193,0
1287573,135,3,194,0
1287584,135,2,197,0
1287595,136,2,197,0
1287606,136,2,197,0
1287617,138,4,198,0
1287628,138,6,198,0
1287639,137,7,196,0
1287650,136,3,194,0
1287661,136,1,193,0
1287672,134,1,196,0
1287683,131,0,199,0
1287694,129,0,198,0
1287705,128,1,199,0
1287716,128,2,201,0
1287728,129,6,203,0
1287738,133,8,201,0
1287749,138,8,198,0
1287760,147,7,195,0
1287771,154,3,193,0
1287782,159,1,195,0
1287793,162,1,196,0
1287804,158,2,199,0
1287815,146,2,200,0
1287826,138,2,198,0
1287837,131,2,193,0
1287848,127,3,191,0
1287859,123,3,189,0
1287870,118,3,190,0
1287881,117,2,191,0
1287893,115,6,193,0
1287903,115,7,196,0
1287914,115,8,200,0
1287925,120,8,203,0
1287936,123,11,204,0
1287947,128,10,202,0
1287958,131,8,201,0
1287969,134,6,200,0
1287980,135,2,195,0
1287992,134,2,195,0
1288003,134,3,196,0
1288013,131,3,197,0
1288025,130,3,197,0
1288035,128,4,198,0
1288046,128,5,200,0
1288057,129,7,201,0
1288068,130,8,202,0
1288079,134,10,202,0
1288091,138,11,204,0
1288101,142,12,205,0
1288112,144,9,205,0
1288123,143,9,204,0
1288134,143,9,202,0
1288145,134,9,199,0
1288156,129,4,194,0
1288168,127,1,191,0
1288178,126,2,191,0
1288189,126,5,191,0
1288200,127,5,191,0
1288211,128,5,191,0
1288222,127,5,193,0
1288233,126,4,193,0
1288244,125,3,193,0
1288255,123,5,196,0
1288266,123,2,199,0
1288278,125,1,202,0
1288288,126,1,205,0
1288299,127,2,207,0
1288311,127,4,206,0
1288321,128,6,207,0
1288332,129,5,205,0
1288343,129,6,203,0
1288354,131,6,201,0
1288365,130,7,200,0
1288376,131,5,200,0
1288387,131,5,202,0
1288398,131,5,202,0
1288409,132,4,201,0
1288420,133,6,200,0
1288431,132,8,199,0
1288442,132,8,198,0
1288453,132,10,199,0
1288464,132,11,198,0
1288475,132,10,197,0
1288486,134,11,196,0
1288497,136,12,194,0
1288508,137,12,196,0
1288519,138,10,196,0
1288530,138,10,197,0
1288541,138,6,197,0
1288553,139,6,198,0
1288564,137,7,202,0
1288575,132,6,202,0
1288586,129,5,200,0
1288597,125,9,200,0
1288608,122,8,199,0
1288619,123,9,199,0
1288630,127,9,204,0
1288641,129,10,206,0
1288653,129,11,207,0
1288663,129,11,207,0
1288674,132,13,206,0
1288685,135,11,205,0
1288696,138,12,204,0
1288707,140,12,201,0
1288718,140,12,197,0
1288729,139,12,195,0
1288740,140,10,195,0
1288751,139,11,195,0
1288762,138,12,196,0
1288773,136,13,195,0
1288784,137,14,197,0
1288795,134,14,196,0
1288806,132,15,196,0
1288817,133,15,197,0
1288828,131,15,198,0
1288839,130,17,198,0
1288850,131,18,198,0
1288862,131,17,198,0
1288873,131,15,197,0
1288884,132,14,195,0
1288895,133,14,195,0
1288906,135,13,197,0
1288917,134,14,198,0
1288928,135,14,198,0
1288939,135,14,200,0
1288950,137,14,201,0
1288961,137,15,200,0
1288972,138,15,199,0
1288983,139,16,198,0
1288994,140,14,200,0
1289005,141,16,198,0
1289016,138,16,198,0
1289028,137,15,197,0
1289038,135,16,197,0
1289049,135,14,196,0
1289060,133,15,194,0
1289071,134,15,196,0
1289082,134,16,195,0
1289093,135,17,194,0
1289104,135,16,195,0
1289115,136,17,196,0
1289126,137,18,199,0
1289137,138,16,200,0
1289149,136,14,201,0
1289159,136,12,202,0
1289170,134,11,201,0
1289181,131,10,201,0
1289193,129,12,199,0
1289203,127,14,198,0
1289214,127,13,199,0
1289225,127,14,198,0
1289236,127,14,196,0
1289247,128,13,196,0
1289258,128,12,199,0
1289269,130,10,200,0
1289280,129,11,202,0
1289292,128,13,201,0
1289303,128,13,200,0
1289314,128,13,199,0
1289325,133,14,198,0
1289336,135,15,197,0
1289347,138,16,197,0
1289358,139,15,195,0
1289369,142,13,195,0
1289380,142,14,199,0
1289392,142,14,197,0
1289403,142,12,198,0
1289413,140,10,196,0
1289425,135,13,194,0
1289435,134,15,193,0
1289446,134,16,193,0
1289457,131,13,194,0
1289468,129,12,195,0
1289479,129,12,196,0
1289491,128,12,198,0
1289501,127,15,200,0
1289512,128,13,202,0
1289523,128,12,201,0
1289535,128,12,202,0
1289545,127,13,199,0
1289556,129,10,200,0
1289567,128,11,200,0
1289578,128,11,199,0
1289589,128,13,200,0
1289600,130,12,200,0
1289611,131,14,201,0
1289622,132,17,201,0
1289633,131,16,201,0
1289644,130,15,200,0
1289655,129,15,199,0
1289666,129,15,197,0
1289678,129,15,196,0
1289688,131,14,196,0
1289699,132,16,198,0
1289710,133,15,199,0
1289721,132,16,200,0
1289732,134,16,201,0
1289743,133,16,201,0
1289754,133,15,200,0
1289765,127,15,202,0
1289777,127,14,200,0
1289787,125,14,199,0
1289798,122,14,199,0
1289809,122,14,200,0
1289820,123,15,200,0
1289831,124,15,201,0
1289842,125,16,200,0
1289853,126,14,198,0
1289866,128,13,199,0
1289876,128,14,200,0
1289887,128,15,200,0
1289898,129,15,201,0
1289909,130,16,203,0
1289920,130,16,203,0
1289931,131,15,203,0
1289942,133,15,202,0
1289953,133,14,202,0
1289964,135,14,203,0
1289975,134,15,202,0
1289986,134,12,203,0
1289997,133,13,200,0
1290008,133,13,198,0
1290019,133,14,199,0
1290030,133,17,197,0
1290041,134,16,198,0
1290053,134,16,199,0
1290063,133,16,200,0
1290074,134,16,201,0
1290086,133,16,200,0
1290097,133,14,199,0
1290108,133,14,198,0
1290119,133,13,197,0
1290130,134,14,196,0
1290141,132,17,195,0
1290153,132,16,196,0
1290163,132,17,196,0
1290174,133,16,196,0
1290185,131,16,199,0
1290196,130,16,197,0
1290207,130,15,199,0
1290218,130,15,198,0
1290229,133,15,197,0
1290240,135,15,196,0
1290251,136,15,197,0
1290262,134,16,197,0
1290273,135,15,199,0
1290284,134,13,198,0
1290295,133,15,197,0
1290306,133,14,196,0
1290317,134,14,197,0
1290328,132,14,198,0
1290340,132,15,200,0
1290350,133,15,199,0
1290361,132,17,200,0
1290372,132,16,199,0
1290383,131,18,197,0
1290394,130,15,196,0
1290405,131,14,197,0
1290417,130,14,199,0
1290428,129,15,201,0
1290438,129,16,200,0
1290449,129,16,200,0
1290460,130,17,199,0
1290471,133,15,201,0
1290482,134,15,198,0
1290493,133,16,198,0
1290504,135,15,199,0
1290515,135,15,199,0
1290526,136,15,199,0
1290537,136,15,198,0
1290548,136,15,199,0
1290559,135,16,197,0
1290570,135,15,198,0
1290581,135,15,200,0
1290593,135,16,200,0
1290603,133,15,198,0
1290614,134,14,197,0
1290626,134,15,199,0
1290636,134,15,198,0
1290647,134,16,198,0
1290658,136,16,200,0
1290669,135,17,199,0
1290680,135,15,199,0
1290692,135,15,199,0
1290703,133,16,197,0
1290713,132,15,196,0
1290725,134,13,194,0
1290735,136,14,197,0
1290746,138,16,198,0
1290757,140,16,198,0
1290768,141,16,200,0
1290779,140,15,201,0
1290791,137,14,198,0
1290801,136,14,199,0
1290812,134,13,197,0
1290823,133,12,196,0
1290834,134,13,195,0
1290845,134,13,196,0
1290856,135,16,197,0
1290867,138,16,199,0
1290878,139,16,198,0
1290889,137,13,200,0
1290900,136,14,201,0
1290912,135,12,202,0
1290922,134,11,202,0
1290933,134,12,203,0
1290944,134,13,199,0
1290955,134,14,197,0
1290966,135,14,197,0
1290978,136,13,195,0
1290988,137,10,197,0
1290999,137,9,196,0
1291010,134,10,198,0
1291021,132,9,199,0
1291032,130,11,199,0
1291043,130,12,203,0
1291054,131,11,201,0
1291065,131,10,201,0
1291076,131,10,201,0
1291087,132,10,200,0
1291098,132,9,201,0
1291109,134,7,204,0
1291120,134,8,205,0
1291131,134,7,206,0
1291142,136,7,208,0
1291153,136,8,207,0
1291164,137,10,206,0
1291175,136,8,207,0
1291186,138,7,206,0
1291197,138,7,205,0
1291208,138,6,205,0
1291219,135,9,206,0
1291230,131,10,207,0
1291241,128,7,205,0
1291253,127,7,206,0
1291263,123,8,206,0
1291274,119,7,204,0
1291285,115,6,207,0
1291296,114,6,207,0
1291307,116,4,209,0
1291318,116,5,212,0
1291329,115,7,212,0
1291340,114,8,212,0
1291351,114,7,211,0
1291362,115,7,208,0
1291373,113,6,204,0
1291384,114,10,205,0
1291395,114,9,205,0
1291406,115,7,204,0
1291417,117,8,206,0
1291428,117,8,206,0
1291439,115,8,208,0
1291450,116,8,209,0
1291461,115,7,208,0
1291473,117,7,209,0
1291484,114,8,206,0
1291495,114,6,204,0
1291506,113,3,205,0
1291517,112,3,204,0
1291528,112,-1,204,0
1291539,109,-3,205,0
1291550,106,-2,205,0
1291561,105,-3,206,0
1291572,104,-2,207,0
1291583,103,-2,209,0
1291594,102,-3,212,0
1291605,100,-2,214,0
1291616,100,-2,214,0
1291628,100,-2,213,0
1291638,104,-3,211,0
1291649,106,-6,208,0
1291660,107,-5,207,0
1291671,109,-8,205,0
1291682,110,-10,205,0
1291693,106,-9,210,0
1291704,101,-9,212,0
1291715,95,-10,215,0
1291726,91,-9,217,0
1291737,86,-7,217,0
1291748,84,-7,220,0
1291759,82,-9,220,0
1291770,81,-8,221,0
1291781,83,-8,222,0
1291793,82,-11,220,0
1291803,81,-13,222,0
1291814,83,-15,220,0
1291825,83,-18,222,0
1291836,86,-17,221,0
1291847,86,-13,220,0
1291858,88,-14,219,0
1291869,89,-11,221,0
1291880,90,-8,221,0
1291892,91,-7,222,0
1291903,92,-7,221,0
1291913,92,-6,221,0
1291925,92,-5,221,0
1291935,92,-7,219,0
1291946,88,-8,219,0
1291957,84,-9,216,0
1291968,81,-8,214,0
1291979,78,-5,213,0
1291991,75,-4,212,0
1292001,73,-5,213,0
1292012,69,-3,214,0
1292023,67,-3,214,0
1292034,63,-4,216,0
1292045,63,-2,217,0
1292056,63,-7,217,0
1292067,64,-8,218,0
1292078,64,-7,218,0
1292089,65,-9,219,0
1292100,64,-10,221,0
1292111,63,-9,222,0
1292122,64,-8,220,0
1292133,64,-7,223,0
1292144,61,-7,225,0
1292155,60,-9,224,0
1292166,60,-7,224,0
1292178,59,-4,226,0
1292188,58,-6,228,0
1292199,58,-9,230,0
1292210,58,-10,227,0
1292221,60,-11,224,0
1292232,60,-9,223,0
1292243,59,-10,224,0
1292254,60,-8,224,0
1292265,61,-10,223,0
1292276,62,-10,223,0
1292287,61,-9,223,0
1292298,60,-9,221,0
1292309,58,-8,222,0
1292320,58,-8,222,0
1292331,59,-12,221,0
1292342,59,-9,220,0
1292353,61,-9,220,0
1292364,61,-10,225,0
1292375,59,-8,225,0
1292386,59,-8,226,0
1292397,56,-9,226,0
1292408,53,-8,230,0
1292419,51,-8,227,0
1292430,50,-9,228,0
1292441,47,-10,226,0
1292453,45,-12,225,0
1292463,45,-13,225,0
1292474,44,-13,224,0
1292485,43,-11,226,0
1292496,42,-10,226,0
1292507,43,-9,227,0
1292518,42,-6,231,0
1292529,44,-7,233,0
1292540,47,-4,232,0
1292551,49,-2,232,0
1292562,53,-1,230,0
1292573,59,1,229,0
1292584,62,1,226,0
1292595,65,0,224,0
1292606,67,-4,222,0
1292617,70,-5,219,0
1292628,69,-5,217,0
1292639,72,-7,217,0
1292650,71,-9,216,0
1292661,69,-13,220,0
1292672,66,-12,220,0
1292683,64,-12,224,0
1292694,60,-11,228,0
1292705,57,-12,229,0
1292716,58,-11,230,0
1292728,57,-10,229,0
1292738,55,-11,228,0
1292749,55,-16,228,0
1292761,57,-20,226,0
1292771,57,-22,225,0
1292782,58,-27,222,0
1292793,60,-33,218,0
1292804,64,-37,217,0
1292815,69,-35,217,0
1292826,76,-33,224,0
1292837,79,-34,231,0
1292848,84,-32,237,0
1292859,88,-29,241,0
1292870,87,-28,237,0
1292881,86,-28,236,0
1292893,85,-30,234,0
1292903,85,-30,231,0
1292914,82,-32,226,0
1292925,86,-33,218,0
1292936,86,-33,211,0
1292947,89,-33,212,0
1292958,93,-33,214,0
1292969,96,-33,218,0
1292980,96,-32,223,0
1292992,96,-30,229,0
1293003,93,-28,227,0
1293014,92,-31,228,0
1293025,88,-35,225,0
1293036,81,-33,221,0
1293047,77,-33,218,0
1293058,78,-34,219,0
1293069,75,-33,217,0
1293080,71,-29,217,0
1293092,63,-27,218,0
1293103,57,-26,218,0
1293113,49,-30,216,0
1293125,37,-31,207,0
1293135,30,-32,204,0
1293146,25,-33,204,0
1293157,20,-38,202,0
1293168,17,-45,196,0
1293180,13,-50,193,0
1293192,11,-51,193,0
1293203,11,-52,197,0
1293213,15,-53,201,0
1293225,19,-52,200,0
1293235,23,-53,202,0
1293246,29,-52,201,0
1293257,34,-50,199,0
1293268,42,-48,196,0
1293279,47,-48,196,0
1293291,51,-46,195,0
1293301,54,-46,194,0
1293312,58,-43,194,0
1293323,65,-44,199,0
1293334,72,-49,207,0
1293345,78,-59,215,0
1293356,80,-62,225,0
1293367,80,-66,237,0
1293379,81,-61,263,1
1293389,80,-36,310,0
1293400,66,-7,346,0
1293411,59,-5,341,0
1293422,54,-27,316,0
1293433,55,-48,302,0
1293444,62,-33,299,0
1293455,77,-18,301,0
1293466,87,-17,287,0
1293478,78,-30,267,0
1293488,66,-77,227,0
1293499,62,-76,200,0
1293510,53,-59,172,0
1293521,44,-51,152,0
1293532,37,-46,149,0
1293543,37,-52,157,0
1293554,45,-55,161,0
1293565,54,-41,165,0
1293576,69,-16,187,0
1293587,89,-1,205,0
1293598,101,5,221,0
1293609,104,7,235,0
1293620,95,13,233,0
1293631,86,16,228,0
1293642,79,17,227,0
1293653,64,22,232,0
1293664,59,23,230,0
1293675,55,22,229,0
1293687,48,20,226,0
1293698,39,16,227,0
1293709,29,15,227,0
1293720,21,14,226,0
1293731,18,11,229,0
1293742,20,12,235,0
1293753,33,13,237,0
1293764,50,6,220,0
1293775,51,5,219,0
1293786,61,-5,219,0
1293797,78,-8,226,0
1293808,109,-12,226,0
1293819,114,-9,226,0
1293830,117,-2,230,0
1293841,114,-1,231,0
1293853,106,-1,228,0
1293863,89,-2,227,0
1293874,69,-3,223,0
1293885,48,0,224,0
1293896,29,0,224,0
1293907,14,2,227,0
1293918,2,5,226,0
1293929,-11,4,223,0
1293940,-22,1,218,0
1293951,-23,0,220,0
1293962,-18,3,228,0
1293973,-2,7,227,0
1293984,12,-2,238,0
1293995,19,8,230,0
1294006,21,19,229,0
1294017,23,25,234,0
1294028,14,29,236,0
1294039,2,29,237,0
1294050,-6,25,238,0
1294061,-13,21,241,0
1294072,-15,19,240,0
1294084,-17,8,234,0
1294095,-15,5,227,0
1294106,-16,4,219,0
1294117,-14,2,212,0
1294128,-10,4,215,0
1294139,-5,10,220,0
1294150,0,11,224,0
1294161,2,17,234,0
1294172,2,21,240,0
1294183,2,16,240,0
1294194,1,11,235,0
1294205,-2,6,231,0
1294216,-8,-1,226,0
1294228,-12,-2,221,0
1294238,-17,-3,218,0
1294249,-20,-1,219,0
1294260,-23,0,220,0
1294271,-25,2,220,0
1294282,-23,0,223,0
1294293,-20,-1,223,0
1294304,-17,-1,226,0
1294315,-14,-4,231,0
1294326,-14,-9,238,0
1294337,-16,-14,237,0
1294349,-19,-17,238,1
1294359,-15,-10,238,0
1294370,21,14,229,0
1294381,16,-6,263,0
1294393,6,-66,285,0
1294403,6,-43,262,0
1294414,-27,-38,251,0
1294425,-33,-30,265,0
1294436,-14,-2,282,0
1294448,16,-11,315,0
1294459,28,-7,320,0
1294470,40,5,331,0
1294481,50,20,326,0
1294493,58,31,307,0
1294503,66,42,278,0
1294514,83,40,251,0
1294525,100,39,216,0
1294536,113,36,181,0
1294547,113,32,154,0
1294558,104,31,140,0
1294569,94,30,140,0
1294580,84,27,151,0
1294592,67,24,182,0
1294603,60,21,195,0
1294613,58,17,208,0
1294625,53,22,218,0
1294635,42,29,232,0
1294646,31,25,236,0
1294657,20,13,236,0
1294668,14,2,243,0
1294679,16,-2,250,0
1294691,19,-1,254,0
1294701,20,4,255,0
1294712,24,3,246,0
1294723,28,2,238,0
1294734,30,1,235,0
1294745,33,-1,224,0
1294756,30,-1,209,0
1294767,29,0,208,0
1294778,24,-3,203,0
1294789,19,-6,200,0
1294800,16,-9,202,0
1294811,14,-8,200,0
1294822,10,-8,202,0
1294833,15,-9,204,0
1294844,14,-11,199,0
1294855,10,-10,197,0
1294866,10,-9,200,0
1294878,15,-5,204,0
1294888,13,-3,208,0
1294899,12,-2,208,0
1294911,12,-1,212,0
1294921,8,-1,218,0
1294932,9,-3,221,0
1294943,7,0,223,0
1294954,3,5,231,0
1294965,-1,3,233,0
1294976,-9,-1,236,0
1294987,-11,-2,245,0
1294998,-10,-7,248,0
1295009,-5,-11,249,0
1295020,-2,-11,249,0
1295031,-2,-8,254,0
1295042,0,-12,258,0
1295053,3,-16,263,0
1295064,11,-17,272,0
1295076,63,-36,317,1
1295086,99,39,398,0
1295097,91,-14,363,0
1295108,87,-20,318,0
1295119,75,-27,304,0
1295130,66,-30,305,0
1295141,41,-28,257,0
1295153,24,-31,212,0
1295163,14,-42,203,0
1295174,-9,-34,162,0
1295185,5,-100,225,0
1295197,34,-38,163,0
1295207,43,-19,161,0
1295218,59,-11,158,0
1295229,62,1,171,0
1295240,63,3,181,0
1295251,67,-1,190,0
1295262,71,-10,200,0
1295273,80,-16,199,0
1295284,99,-21,200,0
1295296,111,-23,200,0
1295308,118,-25,197,0
1295318,115,-22,196,0
1295329,104,-16,199,0
1295340,91,-11,202,0
1295351,73,-9,203,0
1295362,53,-3,202,0
1295373,42,-1,212,0
1295384,35,3,223,0
1295395,21,6,229,0
1295406,3,-3,225,0
1295417,0,-7,219,0
1295428,-1,-12,211,0
1295439,-1,-12,206,0
1295450,-1,-12,202,0
1295461,4,-12,200,0
1295472,13,-13,199,0
1295483,20,-8,203,0
1295494,21,-3,208,0
1295505,25,1,215,0
1295516,25,6,223,0
1295528,20,5,229,0
1295538,17,6,233,0
1295549,14,7,231,0
1295560,10,8,229,0
1295571,6,6,226,0
1295582,4,6,225,0
1295593,5,3,222,0
1295604,10,-3,221,0
1295615,18,-10,219,0
1295626,22,-17,220,0
1295637,25,-20,219,0
1295648,18,-14,216,0
1295659,14,-6,221,0
1295670,5,3,224,0
1295681,-5,11,225,0
1295693,-18,10,224,0
1295703,-25,5,231,0
1295715,-31,8,243,1
1295725,-32,10,250,0
1295736,-3,-7,283,0
1295747,2,-46,300,0
1295758,1,-26,296,0
1295769,-20,-10,307,0
1295780,-10,7,315,0
1295792,8,1,320,0
1295803,27,-14,325,0
1295813,45,-9,327,0
1295825,69,1,322,0
1295836,105,9,300,0
1295847,132,14,269,0
1295858,150,9,233,0
1295869,162,12,200,0
1295880,161,14,182,0
1295892,141,9,152,0
1295903,126,6,156,0
1295913,106,3,172,0
1295925,74,9,185,0
1295935,39,5,195,0
1295946,7,8,213,0
1295957,-7,12,238,0
1295968,-16,7,246,0
1295979,-15,5,249,0
1295992,-7,1,257,0
1296003,-1,-3,245,0
1296013,5,-9,231,0
1296025,13,-7,225,0
1296035,24,-1,219,0
1296046,33,-1,214,0
1296057,38,-2,207,0
1296068,41,0,204,0
1296079,42,4,204,0
1296091,39,3,200,0
1296101,38,1,198,0
1296112,30,0,197,0
1296123,25,-4,200,0
1296134,15,-8,204,0
1296145,4,-7,203,0
1296156,-4,-4,207,0
1296167,-9,-8,204,0
1296178,-19,-7,198,0
1296189,-22,-12,197,0
1296200,-30,-13,190,0
1296211,-32,-15,193,0
1296222,-31,-14,202,0
1296233,-32,-11,208,0
1296244,-34,-10,214,0
1296255,-37,-7,218,0
1296266,-35,-2,230,0
1296278,-29,0,236,0
1296288,-32,25,252,0
1296299,-50,36,270,0
1296310,-59,14,273,0
1296321,-59,-3,270,0
1296332,-51,-3,267,0
1296344,-15,-17,294,1
1296354,60,-39,393,0
1296365,71,11,420,0
1296376,75,-34,385,0
1296387,87,-21,380,0
1296398,89,-5,355,0
1296409,72,-6,278,0
1296420,64,-39,220,0
1296431,47,-33,185,0
1296442,57,-39,178,0
1296453,60,-35,159,0
1296464,60,-28,151,0
1296475,58,-18,151,0
1296486,56,-24,156,0
1296497,53,-25,164,0
1296508,45,-26,166,0
1296519,43,-27,172,0
1296531,69,-18,190,0
1296541,91,-15,199,0
1296553,106,-8,210,0
1296563,113,-11,208,0
1296574,111,-11,214,0
1296585,98,-6,213,0
1296597,77,-2,211,0
1296607,58,1,207,0
1296618,40,5,209,0
1296629,27,11,210,0
1296640,21,10,208,0
1296651,15,12,206,0
1296662,16,7,214,0
1296673,16,3,216,0
1296684,13,0,217,0
1296695,11,-1,215,0
1296706,14,0,215,0
1296717,14,0,209,0
1296728,14,-1,207,0
1296739,17,0,205,0
1296750,24,2,211,0
1296761,30,2,215,0
1296772,35,5,221,0
1296783,31,4,225,0
1296794,22,7,227,0
1296805,16,9,235,0
1296816,15,12,241,0
1296828,14,11,237,0
1296838,18,6,233,0
1296849,21,6,230,0
1296860,25,4,222,0
1296871,24,3,220,0
1296882,23,3,217,0
1296893,18,1,216,0
1296904,13,5,218,0
1296916,4,9,220,0
1296926,3,9,222,0
1296937,4,13,225,0
1296948,1,21,227,0
1296959,-4,23,228,0
1296970,-17,23,227,0
1296981,-27,22,227,0
1296993,-41,22,227,0
1297003,-56,17,231,0
1297014,-55,10,229,0
1297025,-19,-14,288,0
1297037,-19,-83,300,1
1297047,-28,-50,272,0
1297058,-48,-7,279,0
1297069,-37,-6,303,0
1297080,8,-22,297,0
1297092,44,-15,291,0
1297103,96,-1,273,0
1297113,156,8,248,0
1297125,199,19,231,0
1297135,214,34,226,0
1297146,207,42,233,0
1297157,199,47,223,0
1297168,183,48,206,0
1297179,152,41,208,0
1297191,79,29,224,0
1297201,35,19,229,0
1297212,-1,1,226,0
1297223,-37,-10,226,0
1297234,-60,-7,236,0
1297245,-67,-10,236,0
1297256,-64,-2,242,0
1297267,-54,4,245,0
1297278,-38,17,246,0
1297291,-17,25,246,0
1297301,0,27,240,0
1297312,13,25,239,0
1297323,23,23,234,0
1297334,33,14,218,0
1297345,46,9,204,0
1297356,50,10,197,0
1297367,48,7,193,0
1297378,44,-1,193,0
1297389,41,-2,198,0
1297400,38,3,206,0
1297411,35,6,209,0
1297422,25,-3,212,0
1297433,27,-2,212,0
1297444,15,5,206,0
1297455,9,9,204,0
1297466,7,25,206,0
1297478,5,22,202,0
1297488,3,25,205,0
1297499,13,21,193,0
1297510,19,42,187,0
1297521,15,38,212,0
1297532,18,38,222,0
1297543,13,46,228,0
1297554,3,44,234,0
1297565,0,33,246,0
1297576,-5,21,251,0
1297587,-4,10,256,0
1297599,-6,10,257,0
1297610,-6,3,255,0
1297621,-1,1,249,0
1297632,2,-2,248,0
1297643,8,-6,243,0
1297654,4,3,241,0
1297665,-5,7,237,0
1297676,-13,13,243,0
1297687,-16,15,245,0
1297698,-8,20,250,0
1297709,64,70,326,0
1297720,37,118,338,0
1297732,58,80,314,1
1297742,87,51,307,0
1297753,125,60,246,0
1297764,179,115,305,0
1297775,131,103,322,0
1297786,104,61,247,0
1297797,113,12,195,0
1297808,105,-3,183,0
1297819,64,1,194,0
1297830,56,7,177,0
1297841,49,24,165,0
1297853,41,45,167,0
1297863,39,65,177,0
1297874,40,84,193,0
1297885,45,91,205,0
1297897,57,93,216,0
1297907,74,93,216,0
1297918,96,94,207,0
1297929,120,99,203,0
1297940,128,100,203,0
1297951,136,89,196,0
1297962,133,83,185,0
1297973,126,74,177,0
1297984,101,67,174,0
1297995,96,70,181,0
1298006,93,74,190,0
1298017,93,76,196,0
1298028,94,80,205,0
1298039,97,82,210,0
1298050,103,85,215,0
1298061,105,88,219,0
1298073,106,89,220,0
1298083,108,87,217,0
1298094,108,85,214,0
1298105,107,81,213,0
1298116,105,75,215,0
1298128,101,69,219,0
1298138,94,67,219,0
1298149,73,74,195,0
1298160,78,73,209,0
1298171,71,62,206,0
1298182,72,70,207,0
1298193,78,70,210,0
1298204,84,72,213,0
1298215,91,73,210,0
1298226,98,72,209,0
1298237,101,71,206,0
1298248,101,69,205,0
1298259,99,71,198,0
1298270,95,73,197,0
1298281,90,79,197,0
1298293,78,82,201,0
1298303,75,82,206,0
1298314,70,80,212,0
1298325,69,78,210,0
1298336,69,79,213,0
1298347,72,79,212,0
1298358,75,79,209,0
1298369,80,79,204,0
1298380,86,79,206,0
1298392,88,78,211,0
1298403,91,79,215,0
1298413,94,81,217,0
1298425,95,82,220,0
1298435,95,81,219,0
1298446,92,80,219,0
1298457,90,81,217,0
1298468,86,80,218,0
1298479,80,79,216,0
1298491,78,79,213,0
1298501,74,81,215,0
1298512,72,81,211,0
1298523,71,78,212,0
1298534,68,78,214,0
1298545,67,78,218,0
1298556,66,77,222,0
1298567,65,73,222,0
1298578,61,69,220,0
1298589,56,69,217,0
1298600,55,70,217,0
1298611,56,70,215,0
1298622,57,70,212,0
1298634,56,65,212,1
1298644,54,41,210,0
1298655,53,32,203,0
1298666,46,33,202,0
1298678,43,15,204,0
1298688,49,-14,205,0
1298699,54,-44,205,0
1298710,53,-61,212,0
1298721,51,-42,234,0
1298732,55,-13,253,0
1298743,63,-3,268,0
1298754,66,0,268,0
1298765,62,-2,256,0
1298776,55,0,254,0
1298787,50,1,255,0
1298798,44,6,258,0
1298809,24,0,251,0
1298820,9,-10,249,0
1298831,2,-24,243,0
1298842,0,-26,241,0
1298853,6,-24,236,0
1298864,15,-22,238,0
1298875,25,-27,241,0
1298886,36,-35,242,0
1298897,45,-37,243,0
1298908,47,-36,235,0
1298919,46,-32,227,0
1298930,42,-28,220,0
1298941,35,-19,215,0
1298953,28,-16,208,0
1298963,25,-13,204,0
1298974,27,-14,207,0
1298985,28,-13,206,0
1298996,30,-11,208,0
1299007,35,-11,213,0
1299018,32,-8,217,0
1299029,26,-8,216,0
1299040,21,-8,218,0
1299051,15,-6,219,0
1299062,7,-2,222,0
1299073,3,-2,223,0
1299084,1,-1,228,0
1299095,-1,2,231,0
1299106,-5,3,233,0
1299118,-6,7,237,0
1299128,-9,13,238,0
1299139,-15,15,237,0
1299150,-18,17,241,0
1299161,-18,18,243,0
1299172,-15,19,241,0
1299183,-14,17,240,0
1299194,-12,15,236,0
1299205,-11,13,231,0
1299216,-9,9,229,0
1299228,-7,7,227,0
1299238,-9,6,225,0
1299249,-9,5,228,0
1299260,-12,4,233,0
1299272,-13,4,237,0
1299282,-13,4,243,0
1299293,-12,3,249,0
1299304,-2,-2,257,0
1299315,14,-4,271,0
1299327,32,-2,297,1
1299337,64,-20,335,0
1299348,75,10,343,0
1299359,63,6,325,0
1299370,61,-17,315,0
1299381,62,-7,294,0
1299393,46,0,261,0
1299404,23,-17,214,0
1299414,6,-36,182,0
1299425,-1,-47,170,0
1299436,6,-50,172,0
1299447,2,-17,147,0
1299458,11,-126,217,0
1299469,48,-63,178,0
1299480,35,-37,196,0
1299492,40,-18,194,0
1299503,46,-11,206,0
1299513,61,-11,213,0
1299525,71,-7,222,0
1299535,82,-15,223,0
1299546,87,-13,214,0
1299557,93,-19,205,0
1299568,74,-22,207,0
1299579,56,-20,212,0
1299591,40,-20,216,0
1299601,28,-16,220,0
1299612,20,-18,221,0
1299623,16,-16,222,0
1299634,17,-9,219,0
1299645,20,-8,219,0
1299656,23,-2,217,0
1299667,18,0,214,0
1299678,24,1,217,0
1299689,29,4,215,0
1299700,31,8,217,0
1299711,31,6,214,0
1299722,31,4,211,0
1299733,28,1,207,0
1299744,21,1,210,0
1299755,14,1,212,0
1299766,6,3,219,0
1299778,1,4,221,0
1299788,-1,8,230,0
1299799,2,10,236,0
1299810,10,6,229,0
1299821,14,4,224,0
1299832,15,3,220,0
1299843,17,2,216,0
1299854,21,0,214,0
1299865,23,-1,216,0
1299876,25,-1,217,0
1299887,27,-3,218,0
1299898,29,-6,219,0
1299909,27,-6,219,0
1299920,26,-6,219,0
1299931,26,-4,216,0
1299943,22,-6,215,0
1299953,19,-3,219,0
1299964,14,3,224,0
1299975,2,17,242,0
1299986,-6,18,246,0
1299998,-18,17,245,1
1300008,-25,15,244,0
1300019,5,32,221,0
1300031,0,33,278,0
1300041,-9,-32,311,0
1300053,-19,-21,294,0
1300063,-31,-3,283,0
1300074,-22,27,306,0
1300085,-8,11,331,0
1300096,20,-11,330,0
1300107,35,-6,316,0
1300119,73,21,285,0
1300130,95,16,260,0
1300141,110,16,233,0
1300153,126,10,199,0
1300163,133,7,170,0
1300174,136,8,145,0
1300185,132,9,134,0
1300196,124,15,138,0
1300207,112,19,144,0
1300218,98,18,158,0
1300229,83,17,184,0
1300240,56,7,211,0
1300251,31,4,246,0
1300262,18,2,275,0
1300273,12,5,288,0
1300284,3,0,267,0
1300295,3,5,264,0
1300306,7,9,255,0
1300317,14,13,245,0
1300328,22,14,236,0
1300340,25,12,225,0
1300350,29,12,218,0
1300361,21,15,213,0
1300372,27,6,216,0
1300383,30,1,212,0
1300394,30,2,209,0
1300405,28,3,211,0
1300417,24,3,206,0
1300428,25,1,204,0
1300438,24,3,209,0
1300449,15,0,203,0
1300460,14,-1,202,0
1300471,10,0,201,0
1300482,6,-2,198,0
1300493,1,-3,196,0
1300504,-2,-1,193,0
1300515,-10,0,193,0
1300526,-12,-3,194,0
1300537,-14,-2,196,0
1300548,-11,-5,199,0
1300559,-4,-5,209,0
1300570,-5,1,219,0
1300581,-11,3,225,0
1300593,-15,2,234,0
1300603,-14,-9,238,0
1300614,-8,13,270,0
1300625,-13,12,276,0
1300636,-18,5,268,0
1300647,-23,1,253,0
1300658,-25,4,246,0
1300670,3,-1,270,1
1300680,61,19,389,0
1300692,36,109,377,0
1300703,30,32,389,0
1300713,39,-16,344,0
1300725,53,-11,344,0
1300735,62,-1,371,0
1300746,38,11,336,0
1300757,36,-24,260,0
1300768,28,-26,214,0
1300779,34,-48,168,0
1300791,43,-54,149,0
1300801,51,-46,147,0
1300812,54,-30,150,0
1300823,61,-19,155,0
1300834,65,-11,162,0
1300845,69,-2,171,0
1300856,78,0,182,0
1300867,93,3,197,0
1300878,103,0,206,0
1300889,110,-3,210,0
1300900,114,-7,211,0
1300911,111,-7,217,0
1300922,103,-9,215,0
1300933,92,-5,219,0
1300944,50,-15,206,0
1300955,33,-11,205,0
1300966,22,-11,206,0
1300978,17,-7,211,0
1300988,16,-1,224,0
1300999,15,5,234,0
1301010,21,8,233,0
1301021,17,3,228,0
1301032,12,3,222,0
1301043,9,0,214,0
1301054,10,-2,210,0
1301065,11,-4,209,0
1301076,10,-7,207,0
1301087,6,-6,208,0
1301098,1,-1,218,0
1301110,0,0,223,0
1301121,1,2,227,0
1301132,0,4,234,0
1301143,0,7,235,0
1301154,-2,10,233,0
1301165,-2,10,228,0
1301176,-2,10,224,0
1301187,0,12,223,0
1301198,-1,13,218,0
1301209,8,2,221,0
1301220,18,-4,215,0
1301231,26,-13,214,0
1301242,26,-18,212,0
1301253,30,-21,206,0
1301265,32,-11,206,0
1301276,30,-1,207,0
1301287,19,6,212,0
1301298,5,5,215,0
1301309,-11,4,218,0
1301320,-22,9,214,0
1301331,-7,21,197,0
1301342,1,23,235,0
1301354,-8,-37,261,1
1301364,-10,-17,257,0
1301375,-33,0,271,0
1301386,-44,1,311,0
1301397,-18,29,322,0
1301408,12,7,323,0
1301419,30,6,333,0
1301430,43,2,324,0
1301441,62,4,314,0
1301453,81,12,300,0
1301463,87,18,275,0
1301474,93,12,255,0
1301486,92,9,222,0
1301496,95,1,188,0
1301507,98,-5,161,0
1301518,99,-17,138,0
1301529,97,-27,124,0
1301540,93,-33,117,0
1301551,90,-31,123,0
1301562,86,-28,136,0
1301573,86,-10,186,0
1301584,78,-3,208,0
1301595,67,1,237,0
1301606,62,11,258,0
1301617,55,20,277,0
1301628,49,24,292,0
1301639,48,23,302,0
1301650,35,26,294,0
1301661,29,20,279,0
1301672,30,12,265,0
1301683,25,8,245,0
1301694,19,8,233,0
1301705,14,13,239,0
1301716,11,9,236,0
1301728,16,9,233,0
1301738,20,10,225,0
1301749,15,14,222,0
1301760,12,12,215,0
1301771,9,7,203,0
1301782,8,4,198,0
1301793,3,3,194,0
1301804,-1,1,195,0
1301815,-4,-1,194,0
1301826,-6,-3,194,0
1301837,-8,-2,192,0
1301848,-11,-1,189,0
1301859,-17,-1,186,0
1301870,-19,-1,185,0
1301881,-19,-2,187,0
1301893,-18,-3,192,0
1301903,-15,1,207,0
1301914,-11,4,212,0
1301925,-3,8,220,0
1301937,-3,14,231,0
1301948,-1,5,244,0
1301959,2,7,255,0
1301970,0,21,253,0
1301981,-12,22,253,0
1301993,-17,10,261,0
1302003,-19,5,254,0
1302014,-27,14,249,0
1302025,-40,17,248,0
1302036,-42,15,249,0
1302047,13,-6,295,0
1302059,64,72,396,1
1302069,74,25,396,0
1302081,90,-2,365,0
1302092,123,1,367,0
1302103,146,5,401,0
1302113,113,8,332,0
1302125,77,-8,239,0
1302135,54,-29,194,0
1302146,30,-48,169,0
1302157,19,-51,147,0
1302169,19,-52,136,0
1302180,27,-48,133,0
1302192,29,-40,133,0
1302203,31,-6,156,0
1302213,40,0,176,0
1302225,56,2,201,0
1302235,73,8,224,0
1302246,94,9,233,0
1302257,109,2,233,0
1302268,115,-4,229,0
1302279,110,-11,219,0
1302291,98,-9,218,0
1302301,86,-7,212,0
1302312,70,-9,207,0
1302323,53,-7,207,0
1302334,45,-6,211,0
1302345,44,1,207,0
1302356,45,3,211,0
1302367,41,0,216,0
1302378,39,0,216,0
1302389,33,-4,212,0
1302400,29,-9,213,0
1302411,32,-10,213,0
1302422,34,-11,215,0
1302433,35,-12,210,0
1302444,35,-18,210,0
1302455,35,-14,210,0
1302466,29,-10,213,0
1302478,20,-10,217,0
1302488,15,-10,224,0
1302499,4,-7,229,0
1302510,-2,-4,233,0
1302521,-11,-7,239,0
1302532,-22,2,232,0
1302543,-23,2,227,0
1302554,-21,3,225,0
1302565,-14,7,223,0
1302576,-5,4,225,0
1302587,2,2,221,0
1302598,10,-1,219,0
1302609,15,-2,217,0
1302620,19,-3,217,0
1302631,23,-6,214,0
1302643,26,-7,218,1
1302653,25,-12,220,0
1302664,24,-12,214,0
1302675,24,-14,212,0
1302686,23,-8,212,0
1302697,22,-7,215,0
1302708,18,-5,220,0
1302719,15,-1,221,0
1302730,20,4,219,0
1302741,33,7,231,0
1302753,27,-26,254,0
1302763,24,-34,249,0
1302774,8,-10,241,0
1302785,-13,13,256,0
1302796,-15,5,286,0
1302807,3,-8,300,0
1302818,12,-2,307,0
1302829,18,11,311,0
1302840,35,29,315,0
1302851,57,39,307,0
1302862,89,50,281,0
1302873,100,46,264,0
1302884,103,33,247,0
1302895,103,22,229,0
1302906,98,11,204,0
1302917,89,-2,184,0
1302928,81,-14,166,0
1302939,77,-24,155,0
1302950,72,-27,148,0
1302961,69,-26,145,0
1302972,68,-23,144,0
1302983,67,-20,147,0
1302994,70,-18,161,0
1303005,73,-12,178,0
1303016,78,-7,192,0
1303028,88,7,233,0
1303038,85,12,248,0
1303049,71,11,264,0
1303060,65,6,275,0
1303071,54,16,280,0
1303082,42,17,278,0
1303093,34,11,272,0
1303104,30,14,266,0
1303115,26,16,259,0
1303126,27,13,254,0
1303137,28,12,245,0
1303149,28,8,243,0
1303159,33,9,245,0
1303170,38,8,244,0
1303181,43,4,235,0
1303193,44,2,224,0
1303203,44,2,217,0
1303214,43,1,213,0
1303225,42,3,211,0
1303236,42,6,213,0
1303247,40,6,219,0
1303258,36,0,229,0
1303269,45,3,234,0
1303280,37,3,230,0
1303292,40,5,232,0
1303303,37,9,236,0
1303313,36,12,240,0
1303325,30,6,244,0
1303335,33,10,244,0
1303346,32,16,236,0
1303357,33,24,221,0
1303368,34,25,223,0
1303379,38,16,221,0
1303391,41,19,218,0
1303401,41,23,217,0
1303412,38,22,213,0
1303423,36,22,214,0
1303434,38,24,212,0
1303445,37,21,203,0
1303456,32,20,198,0
1303467,28,21,195,0
1303478,24,21,193,0
1303489,21,17,194,0
1303500,18,11,193,0
1303511,16,6,193,0
1303523,32,6,198,1
1303533,48,10,209,0
1303544,85,21,236,0
1303555,131,59,313,0
1303567,129,97,354,0
1303578,109,70,326,0
1303588,105,26,287,0
1303599,93,10,258,0
1303610,79,8,224,0
1303622,67,-2,205,0
1303632,62,-1,193,0
1303643,50,2,180,0
1303654,44,5,192,0
1303665,35,11,206,0
1303676,30,11,205,0
1303687,49,26,203,0
1303698,65,34,205,0
1303709,83,43,204,0
1303720,96,45,207,0
1303731,106,43,204,0
1303742,114,37,208,0
1303753,124,36,211,0
1303764,129,35,212,0
1303775,128,33,217,0
1303786,125,32,218,0
1303797,119,30,216,0
1303808,118,31,215,0
1303819,106,31,208,0
1303830,99,31,208,0
1303841,96,31,209,0
1303853,90,31,212,0
1303863,87,32,219,0
1303874,84,41,218,0
1303885,82,45,224,0
1303896,80,49,222,0
1303907,79,49,221,0
1303918,84,45,221,0
1303930,91,49,216,0
1303941,95,49,212,0
1303953,98,42,209,0
1303963,100,46,208,0
1303974,100,48,208,0
1303985,101,46,209,0
1303996,103,48,207,0
1304007,107,49,204,0
1304018,110,49,202,0
1304029,109,50,203,0
1304040,105,48,206,0
1304051,104,51,206,0
1304062,98,53,209,0
1304073,95,57,210,0
1304084,92,59,210,0
1304095,90,60,212,0
1304106,89,61,207,0
1304117,87,63,204,0
1304128,87,62,205,0
1304139,89,63,205,0
1304150,92,64,207,0
1304161,92,64,207,0
1304172,91,62,208,0
1304183,93,65,209,0
1304194,90,66,207,0
1304205,88,65,204,0
1304217,91,67,205,0
1304228,94,68,205,0
1304238,100,68,207,0
1304249,103,71,207,0
1304260,106,74,207,0
1304271,108,76,205,0
1304282,112,78,201,0
1304293,114,84,194,0
1304304,119,84,193,0
1304315,122,81,191,0
1304326,123,79,202,0
1304337,123,78,206,0
1304348,119,74,209,0
1304359,114,67,211,0
1304370,112,69,212,0
1304381,107,78,202,0
1304393,102,77,198,0
1304403,100,76,201,0
1304414,98,75,204,0
1304425,97,74,206,0
1304436,96,69,211,0
1304447,89,62,216,0
1304458,91,59,218,0
1304469,93,64,214,0
1304480,90,66,211,0
1304492,89,72,214,0
1304503,92,77,212,0
1304513,89,76,212,0
1304525,93,72,213,0
1304535,95,68,211,0
1304546,98,67,209,0
1304557,103,69,212,0
1304568,100,77,206,0
1304579,95,75,206,0
1304591,96,75,207,0
1304601,95,79,204,0
1304612,94,79,205,0
1304623,98,75,206,0
1304634,102,77,203,0
1304645,101,78,201,0
1304656,102,75,200,0
1304667,102,79,196,0
1304678,101,81,193,0
1304689,100,81,189,0
1304700,99,82,192,0
1304712,94,69,204,0
1304722,96,59,220,0
1304733,101,61,224,0
1304744,100,66,225,0
1304755,95,71,216,0
1304766,91,75,211,0
1304778,89,74,205,0
1304788,88,70,206,0
1304799,89,68,207,0
1304810,90,73,205,0
1304821,91,74,203,0
1304832,93,71,205,0
1304843,91,76,207,0
1304854,88,78,209,0
1304865,83,73,210,0
1304876,84,68,218,0
1304887,86,68,221,0
1304898,88,74,214,0
1304909,88,77,210,0
1304920,89,78,203,0
1304931,92,78,199,0
1304942,93,76,199,0
1304953,95,73,201,0
1304964,98,70,203,0
1304975,101,69,203,0
1304986,101,71,202,0
1304997,101,72,204,0
1305008,99,74,208,0
1305019,96,80,207,0
1305030,94,75,208,0
1305041,95,76,207,0
1305053,94,74,207,0
1305063,94,71,207,0
1305074,94,70,209,0
1305085,94,72,206,0
1305096,91,73,205,0
1305107,91,73,204,0
1305118,91,73,207,0
1305129,90,73,208,0
1305140,89,73,209,0
1305151,86,72,211,0
1305162,87,68,213,0
1305173,83,70,212,0
1305184,83,69,213,0
1305195,83,68,211,0
1305206,81,67,209,0
1305217,82,70,205,0
1305228,81,70,206,0
1305239,81,69,205,0
1305250,80,69,207,0
1305261,78,70,204,0
1305272,76,69,205,0
1305283,75,65,205,0
1305294,76,64,201,0
1305305,77,64,202,0
1305317,73,60,202,1
1305328,71,59,203,0
1305338,68,50,206,0
1305349,68,38,199,0
1305360,67,15,180,0
1305371,66,-13,171,0
1305382,62,-28,176,0
1305393,46,-16,187,0
1305404,22,2,213,0
1305416,7,31,248,0
1305426,9,56,264,0
1305437,20,62,267,0
1305448,36,56,260,0
1305459,50,44,253,0
1305470,60,37,249,0
1305481,64,38,249,0
1305493,61,34,262,0
1305504,54,27,276,0
1305514,47,23,295,0
1305525,41,12,299,0
1305536,31,1,296,0
1305547,23,-1,292,0
1305558,19,-6,287,0
1305569,20,-12,276,0
1305580,24,-20,262,0
1305592,30,-20,251,0
1305603,33,-19,237,0
1305613,36,-16,218,0
1305625,37,-17,203,0
1305635,33,-14,194,0
1305646,30,-9,194,0
1305657,30,-7,189,0
1305668,26,-3,190,0
1305679,26,-3,190,0
1305691,24,-5,191,0
1305701,18,-5,197,0
1305712,17,-4,205,0
1305723,14,0,209,0
1305734,9,2,211,0
1305745,6,6,212,0
1305756,3,9,214,0
1305767,1,13,218,0
1305778,-3,17,220,0
1305789,-10,18,219,0
1305800,-15,22,227,0
1305811,-16,24,231,0
1305822,-17,29,236,0
1305833,-16,28,237,0
1305844,-13,26,236,0
1305855,-8,22,235,0
1305866,-6,21,232,0
1305878,-5,18,230,0
1305888,-6,16,227,0
1305899,-6,16,227,0
1305910,-4,13,227,0
1305921,-4,11,224,0
1305932,-4,9,226,0
1305943,-4,10,224,0
1305954,-3,10,222,0
1305965,0,2,222,0
1305976,3,4,223,0
1305987,0,7,228,0
1305998,-1,8,233,0
1306009,-1,6,236,0
1306020,-2,10,237,0
1306031,-6,12,241,0
1306043,-8,7,245,1
1306053,-14,3,247,0
1306065,-14,4,251,0
1306075,-17,4,254,0
1306086,11,-2,286,0
1306097,74,20,376,0
1306108,66,75,370,0
1306119,66,23,333,0
1306130,85,12,304,0
1306141,89,-6,305,0
1306153,74,-21,290,0
1306163,55,-24,250,0
1306174,27,-51,218,0
1306185,6,-12,163,0
1306196,-3,-169,213,0
1306207,44,-62,140,0
1306218,25,-53,157,0
1306229,30,-40,145,0
1306240,20,-29,169,0
1306251,28,-27,186,0
1306263,36,-21,202,0
1306273,45,-25,209,0
1306284,61,-18,218,0
1306295,74,-23,215,0
1306306,81,-28,214,0
1306317,72,-34,199,0
1306328,58,-31,194,0
1306340,48,-20,197,0
1306350,37,-11,207,0
1306361,34,-5,213,0
1306372,42,-3,216,0
1306384,37,-12,213,0
1306395,30,-6,215,0
1306406,27,-5,218,0
1306417,27,-6,213,0
1306428,28,-7,209,0
1306439,35,-2,204,0
1306450,35,-6,195,0
1306461,38,-9,200,0
1306472,38,-3,209,0
1306483,35,-1,212,0
1306494,32,1,214,0
1306505,22,5,221,0
1306516,16,2,226,0
1306528,14,2,229,0
1306538,13,6,230,0
1306549,12,6,231,0
1306560,18,7,229,0
1306572,22,5,224,0
1306582,26,1,217,0
1306593,27,0,212,0
1306604,26,-5,213,0
1306615,25,-8,214,0
1306626,20,-4,217,0
1306637,13,-3,216,0
1306648,7,-1,217,0
1306659,2,-1,218,0
1306670,0,3,221,0
1306681,-4,7,230,0
1306693,-13,16,240,0
1306704,-26,18,251,1
1306714,-38,12,253,0
1306725,-31,8,243,0
1306736,0,15,243,0
1306747,-26,-27,293,0
1306758,-12,-34,290,0
1306769,-19,-6,291,0
1306780,-35,-20,305,0
1306792,-16,14,304,0
1306803,-2,-16,317,0
1306813,20,-28,328,0
1306824,41,-10,319,0
1306836,73,20,312,0
1306847,101,35,284,0
1306858,124,38,253,0
1306869,137,28,219,0
1306880,146,10,187,0
1306892,153,1,157,0
1306903,147,-4,147,0
1306913,131,-7,145,0
1306924,118,-17,149,0
1306935,103,-20,159,0
1306946,68,-19,190,0
1306957,54,-18,207,0
1306968,36,-9,225,0
1306980,22,3,249,0
1306991,16,11,259,0
1307001,9,10,272,0
1307012,13,6,281,0
1307023,11,9,274,0
1307034,11,13,264,0
1307045,8,10,245,0
1307056,13,7,231,0
1307067,15,3,214,0
1307078,13,0,206,0
1307089,16,-2,202,0
1307100,20,2,213,0
1307111,28,0,214,0
1307122,32,1,218,0
1307133,31,4,217,0
1307144,28,1,212,0
1307155,23,-1,207,0
1307166,18,-1,206,0
1307178,13,1,210,0
1307188,8,1,203,0
1307199,5,-1,194,0
1307210,-1,-1,188,0
1307221,-7,-4,181,0
1307232,-12,-10,180,0
1307243,-11,-14,187,0
1307254,-10,-9,188,0
1307265,-14,-4,188,0
1307276,-25,1,214,0
1307287,-28,2,225,0
1307298,-30,4,233,0
1307309,-27,11,235,0
1307320,-24,30,247,0
1307331,-29,41,262,0
1307342,-35,25,274,0
1307353,-34,7,269,0
1307364,-32,1,268,0
1307375,-29,1,263,0
1307386,-32,2,264,0
1307397,-34,4,266,0
1307409,-30,-1,275,1
1307419,20,-33,327,0
1307430,66,-9,415,0
1307441,78,-18,372,0
1307453,79,-26,340,0
1307463,85,-12,336,0
1307474,108,-8,340,0
1307485,96,-3,280,0
1307496,56,-11,226,0
1307507,16,38,138,0
1307518,18,-135,230,0
1307529,34,-17,136,0
1307541,40,-22,153,1
1307551,53,-53,134,0
1307562,49,-19,141,0
1307573,50,-25,151,0
1307584,50,-22,171,0
1307596,60,-15,206,0
1307606,73,-17,210,0
1307617,88,-18,215,0
1307628,95,-21,218,0
1307639,94,-19,224,0
1307650,87,-14,223,0
1307661,78,-6,216,0
1307672,69,-10,204,0
1307683,62,-13,198,0
1307694,57,-8,202,0
1307705,51,-7,204,0
1307716,47,-1,209,0
1307728,44,2,213,0
1307738,42,1,217,0
1307749,41,4,212,0
1307760,37,1,214,0
1307771,18,1,211,0
1307782,9,0,210,0
1307793,8,-1,211,0
1307804,6,0,213,0
1307815,3,1,218,0
1307826,1,2,224,0
1307837,-2,2,229,0
1307848,-5,1,231,0
1307859,-9,3,231,0
1307871,-11,2,230,0
1307881,-8,0,226,0
1307893,-6,-3,222,0
1307904,-7,-4,218,0
1307914,-5,-7,217,0
1307925,-2,-8,216,0
1307936,-1,-1,224,0
1307947,0,0,225,0
1307958,2,-3,220,0
1307969,2,-6,217,0
1307980,1,-7,213,0
1307992,-1,-8,214,0
1308003,-4,-7,217,0
1308013,-8,-2,222,0
1308024,-14,-1,225,0
1308035,-20,-6,228,0
1308046,-24,-5,230,0
1308057,-27,-5,233,0
1308068,-29,-1,238,0
1308079,-12,8,236,0
1308091,-6,7,260,0
1308101,-20,-42,265,0
1308113,-43,-33,266,1
1308123,-58,-50,292,0
1308134,-58,-29,322,0
1308145,-41,-2,333,0
1308156,-7,20,339,0
1308167,39,35,337,0
1308178,76,54,328,0
1308189,108,62,303,0
1308200,129,60,264,0
1308211,148,38,225,0
1308222,158,24,181,0
1308233,159,11,149,0
1308244,145,6,133,0
1308255,124,2,127,0
1308266,71,9,166,0
1308278,49,15,188,0
1308288,28,16,200,0
1308299,8,23,217,0
1308310,6,26,240,0
1308321,10,28,260,0
1308332,15,23,261,0
1308343,24,15,257,0
1308354,37,4,250,0
1308365,43,-1,239,0
1308376,43,-1,231,0
1308387,41,0,228,0
1308398,40,0,222,0
1308409,39,-1,215,0
1308420,36,-2,204,0
1308431,28,1,208,0
1308442,22,-1,205,0
1308453,16,0,211,0
1308464,12,-1,216,0
1308475,7,-4,216,0
1308486,3,-9,216,0
1308497,0,-10,217,0
1308508,-1,-9,210,0
1308519,-1,-7,198,0
1308530,0,-8,187,0
1308541,-3,-11,182,0
1308553,-5,-19,182,0
1308563,-5,-22,178,0
1308574,-7,-18,178,0
1308585,-12,-13,188,0
1308596,-24,-14,217,0
1308608,-27,-6,234,0
1308618,-37,6,235,0
1308629,-50,13,243,0
1308640,-59,11,255,0
1308651,-60,13,269,0
1308662,-60,28,276,0
1308673,-60,27,282,0
1308684,-47,19,282,0
1308695,-36,13,271,0
1308707,-18,13,264,1
1308717,17,6,272,0
1308728,83,22,342,0
1308739,77,76,374,0
1308750,75,54,383,0
1308761,102,14,326,0
1308772,81,17,318,0
1308783,48,17,307,0
1308794,34,-1,259,0
1308805,24,-27,212,0
1308816,23,-45,187,0
1308828,20,-52,163,0
1308838,15,-58,156,0
1308849,11,-55,159,0
1308860,16,-48,162,0
1308871,23,-35,167,0
1308882,34,-18,172,0
1308893,45,-9,181,0
1308904,56,4,190,0
1308916,71,19,197,0
1308926,91,29,205,0
1308937,95,22,202,0
1308948,94,13,204,0
1308959,88,8,209,0
1308970,80,6,214,0
1308981,71,7,216,0
1308993,67,7,214,0
1309004,58,4,207,0
1309014,52,-3,207,0
1309025,40,-4,207,0
1309036,29,-1,211,0
1309047,26,1,223,0
1309058,23,3,228,0
1309069,24,1,231,0
1309080,25,1,226,0
1309092,18,0,221,0
1309103,18,1,217,0
1309113,19,0,216,0
1309124,23,3,212,0
1309135,25,5,213,0
1309146,28,5,211,0
1309157,30,8,213,0
1309168,31,16,214,0
1309179,26,20,222,0
1309191,25,20,230,0
1309201,22,21,234,0
1309212,22,21,236,0
1309223,22,22,235,0
1309234,22,23,232,0
1309245,24,20,227,0
1309256,26,18,223,0
1309267,28,5,220,0
1309278,29,0,221,0
1309289,31,-13,225,0
1309300,31,-22,223,0
1309311,31,-21,220,0
1309322,29,-15,219,0
1309333,27,-10,221,0
1309344,21,-1,225,0
1309355,13,1,225,0
1309366,3,7,225,0
1309378,-8,15,226,0
1309389,-15,22,221,1
1309399,-17,31,219,0
1309410,2,45,215,0
1309421,21,62,248,0
1309432,32,-9,308,0
1309443,12,-10,311,0
1309454,7,14,308,0
1309466,20,32,311,0
1309478,30,12,306,0
1309488,37,2,292,0
1309499,34,4,273,0
1309510,40,9,257,0
1309521,60,11,235,0
1309533,80,3,210,0
1309544,98,5,185,0
1309555,101,8,156,0
1309566,117,6,149,0
1309578,108,13,154,0
1309588,95,22,168,0
1309599,87,27,188,0
1309610,65,25,212,0
1309621,50,21,245,0
1309632,33,24,275,0
1309644,13,31,291,0
1309654,11,24,299,0
1309665,15,22,309,0
1309676,21,16,299,0
1309687,33,12,278,0
1309698,44,16,255,0
1309709,49,17,232,0
1309720,50,16,228,0
1309731,43,16,230,0
1309742,42,13,229,0
1309753,35,12,224,0
1309764,27,12,215,0
1309775,24,15,213,0
1309786,23,17,207,0
1309797,22,15,202,0
1309808,23,14,201,0
1309819,20,12,198,0
1309830,17,13,201,0
1309841,15,18,203,0
1309853,16,14,197,0
1309863,17,10,195,0
1309874,18,11,193,0
1309885,15,10,197,0
1309896,24,3,206,0
1309907,28,10,209,0
1309918,25,29,215,0
1309929,15,43,224,0
1309940,17,45,233,0
1309951,33,27,238,0
1309962,34,31,224,0
1309973,6,36,223,0
1309984,-9,14,234,0
1309995,-6,4,236,0
1310006,-13,8,238,0
1310017,-22,7,235,0
1310028,-24,11,232,0
1310039,-23,19,230,0
1310050,-27,33,232,0
1310061,-26,28,257,0
1310072,29,25,336,0
1310084,33,81,381,1
1310094,24,58,387,0
1310105,52,27,356,0
1310116,44,33,314,0
1310128,55,17,316,0
1310138,61,0,317,0
1310149,58,-2,292,0
1310160,66,-40,234,0
1310171,52,-55,207,0
1310182,50,-64,180,0
1310193,47,-73,155,0
1310204,49,-67,145,0
1310215,51,-59,145,0
1310226,52,-31,156,0
1310237,54,-23,170,0
1310248,62,-15,184,0
1310259,73,-14,194,0
1310270,83,-11,205,0
1310281,93,-10,214,0
1310293,90,-11,223,0
1310304,81,-14,226,0
1310314,68,-17,221,0
1310325,59,-18,215,0
1310336,47,-18,214,0
1310347,32,-11,213,0
1310358,23,-2,215,0
1310369,18,1,214,0
1310380,21,6,218,0
1310392,17,3,216,0
1310403,17,0,216,0
1310413,15,0,214,0
1310424,17,0,214,0
1310435,16,1,212,0
1310446,19,0,208,0
1310457,21,-1,208,0
1310468,23,-1,208,0
1310479,23,0,211,0
1310491,24,1,219,0
1310501,22,2,223,0
1310512,22,4,228,0
1310524,19,9,230,0
1310535,14,13,236,0
1310546,13,12,232,0
1310557,14,8,225,0
1310568,13,8,218,0
1310579,14,3,215,0
1310591,17,0,214,0
1310601,22,-9,211,0
1310612,28,-17,213,0
1310623,33,-20,214,0
1310634,40,-20,218,0
1310645,42,-11,223,0
1310656,38,1,226,0
1310668,28,14,228,0
1310679,14,19,229,0
1310691,-21,13,227,0
1310701,-37,15,223,0
1310712,-39,16,216,0
1310723,-9,31,220,0
1310734,-14,8,277,0
1310745,-9,-19,291,0
1310756,-5,-3,294,0
1310767,0,0,302,0
1310779,12,39,317,1
1310789,18,42,329,0
1310800,29,5,331,0
1310811,40,-1,328,0
1310822,48,5,304,0
1310833,72,4,274,0
1310844,113,0,215,0
1310855,132,-1,191,0
1310866,133,1,180,0
1310878,126,1,163,0
1310888,123,3,159,0
1310899,113,11,167,0
1310911,92,14,182,0
1310921,71,15,194,0
1310932,55,18,212,0
1310943,35,17,231,0
1310954,14,16,246,0
1310965,-7,23,265,0
1310976,-7,19,281,0
1310987,-7,11,280,0
1310998,0,8,268,0
1311009,9,4,234,0
1311020,12,2,221,0
1311031,22,0,220,0
1311042,31,-1,214,0
1311053,40,-1,215,0
1311064,51,-6,208,0
1311075,60,-3,199,0
1311086,68,-3,191,0
1311097,69,-1,196,0
1311108,67,-1,197,0
1311119,65,-1,202,0
1311130,59,-3,203,0
1311141,45,-5,204,0
1311153,28,-5,209,0
1311163,11,-6,209,0
1311174,-12,-7,203,0
1311185,-21,-7,200,0
1311196,-27,-4,197,0
1311207,-29,-3,195,0
1311218,-31,-3,196,0
1311229,-32,-1,198,0
1311240,-32,2,203,0
1311251,-29,4,207,0
1311262,-22,5,211,0
1311273,-15,5,218,0
1311284,-11,9,237,0
1311295,-8,3,256,0
1311306,-3,-2,258,0
1311317,-5,9,257,0
1311328,-15,17,261,0
1311339,-33,17,274,0
1311350,-34,18,269,0
1311361,-33,20,263,0
1311372,-13,12,280,0
1311383,56,1,377,0
1311394,73,79,394,0
1311405,68,47,384,0
1311417,93,-24,354,1
1311428,123,-21,353,0
1311438,122,10,334,0
1311449,84,18,282,0
1311460,53,47,189,0
1311471,52,-127,233,0
1311482,40,4,173,0
1311493,40,-56,153,0
1311505,41,-22,147,0
1311515,40,-17,153,0
1311526,40,-25,166,0
1311537,39,-20,182,0
1311548,45,-18,191,0
1311559,57,-15,201,0
1311570,73,-17,206,0
1311581,89,-22,211,0
1311593,99,-18,217,0
1311603,104,-14,223,0
1311614,96,-12,217,0
1311625,76,-14,212,0
1311636,57,-10,211,0
1311647,36,-5,204,0
1311659,24,0,205,0
1311669,26,7,209,0
1311680,27,8,212,0
1311692,29,4,217,0
1311703,26,2,221,0
1311713,24,0,219,0
1311724,21,0,216,0
1311735,18,1,216,0
1311746,18,1,214,0
1311757,20,1,210,0
1311768,17,0,210,0
1311779,12,1,213,0
1311791,6,-2,222,0
1311801,1,-2,226,0
1311812,-2,-2,233,0
1311823,-5,2,235,0
1311834,-11,2,227,0
1311845,-14,2,225,0
1311856,-17,3,221,0
1311867,-17,4,218,0
1311878,-16,5,218,0
1311889,-9,2,217,0
1311900,-2,-1,217,0
1311911,7,-3,218,0
1311922,13,-5,214,0
1311933,17,-6,214,0
1311944,18,-4,213,0
1311955,16,-1,216,0
1311966,13,1,218,0
1311978,12,1,222,0
1311988,7,1,223,0
1311999,0,-3,227,0
1312010,-8,-4,233,0
1312021,-21,0,237,0
1312032,-28,7,240,0
1312043,-19,15,243,0
1312055,-2,25,259,1
1312065,-16,-23,291,0
1312076,-7,-32,282,0
1312087,-8,-3,266,0
1312098,-19,-15,274,0
1312109,-12,-3,300,0
1312120,5,4,309,0
1312131,31,2,303,0
1312142,53,5,296,0
1312153,77,9,288,0
1312164,117,7,255,0
1312175,119,1,224,0
1312186,127,2,195,0
1312197,127,1,168,0
1312208,119,1,151,0
1312219,106,0,150,0
1312230,90,3,163,0
1312241,75,7,179,0
1312253,62,9,200,0
1312263,49,13,219,0
1312274,31,13,230,0
1312285,10,25,245,0
1312296,-1,34,273,0
1312307,-1,25,283,0
1312318,3,23,279,0
1312329,20,11,260,0
1312341,22,16,251,0
1312351,26,21,244,0
1312362,32,17,228,0
1312373,37,6,211,0
1312384,42,4,204,0
1312395,45,2,196,0
1312406,43,5,194,0
1312417,39,8,193,0
1312428,32,6,191,0
1312439,29,3,195,0
1312450,26,3,195,0
1312461,24,1,199,0
1312472,22,-8,205,0
1312483,20,-16,217,0
1312494,19,-12,209,0
1312506,15,-10,204,0
1312516,13,-7,200,0
1312528,10,-5,199,0
1312538,8,-3,209,0
1312549,4,-3,220,0
1312560,3,-2,222,0
1312571,1,0,222,0
1312582,-6,4,220,0
1312593,-11,8,226,0
1312604,-16,6,230,0
1312615,-17,2,235,0
1312626,-15,18,247,0
1312637,-27,25,255,0
1312648,-21,6,264,0
1312660,-13,-3,247,1
1312670,-1,-11,267,0
1312681,14,-12,276,0
1312693,24,-15,273,0
1312703,27,-14,264,0
1312714,43,-13,262,0
1312725,91,25,333,0
1312736,48,95,343,0
1312747,33,33,306,0
1312758,61,-20,307,0
1312769,65,-12,292,0
1312780,55,-2,269,0
1312792,61,0,289,0
1312804,45,23,308,0
1312814,30,16,254,0
1312825,29,-7,204,0
1312836,21,-20,183,0
1312847,18,-20,157,0
1312858,26,-30,145,0
1312869,32,-33,147,0
1312880,40,-27,156,0
1312892,47,-16,165,0
1312903,47,-5,176,0
1312913,50,4,195,0
1312924,52,20,216,0
1312935,61,25,230,0
1312946,66,24,240,0
1312957,65,20,240,0
1312968,63,10,219,0
1312979,66,8,211,0
1312991,67,1,205,0
1313001,69,0,202,0
1313012,68,0,206,0
1313023,61,-3,208,0
1313034,55,-6,210,0
1313045,53,-6,216,0
1313056,52,-1,225,0
1313067,54,3,232,0
1313078,49,2,226,0
1313089,42,0,223,0
1313100,35,0,220,0
1313111,22,1,216,0
1313122,10,0,215,0
1313133,-2,-5,214,0
1313144,-4,-5,214,0
1313155,-3,-4,211,0
1313166,-5,-3,215,0
1313178,-2,-8,215,0
1313188,-1,-6,218,0
1313199,-1,-4,223,0
1313210,0,-1,229,0
1313221,-3,2,234,0
1313232,-5,4,233,0
1313243,-7,7,231,0
1313254,-8,5,228,0
1313265,-3,9,222,0
1313276,0,11,220,0
1313287,4,8,218,0
1313298,12,8,218,0
1313309,17,6,220,0
1313320,24,1,223,0
1313331,28,0,222,0
1313342,30,-1,222,0
1313353,30,-2,222,0
1313364,28,-13,223,0
1313375,24,-11,220,0
1313387,20,0,215,1
1313397,14,11,214,0
1313408,11,16,214,0
1313419,12,15,216,0
1313430,17,16,218,0
1313441,32,19,224,0
1313453,33,0,251,0
1313463,23,-13,267,0
1313474,6,-19,291,0
1313485,-6,-3,312,0
1313496,-7,11,321,0
1313507,10,22,318,0
1313518,32,45,315,0
1313529,55,63,314,0
1313540,74,62,299,0
1313551,93,54,271,0
1313562,122,44,246,0
1313573,136,29,213,0
1313584,139,13,182,0
1313595,134,-5,149,0
1313606,115,-23,137,0
1313617,94,-25,134,0
1313628,56,-15,148,0
1313639,41,-2,166,0
1313650,30,3,190,0
1313661,17,13,218,0
1313672,10,26,252,0
1313683,10,34,280,0
1313694,16,33,292,0
1313706,25,28,290,0
1313716,34,32,289,0
1313728,37,32,277,0
1313738,41,26,267,0
1313749,42,32,258,0
1313760,43,34,250,0
1313771,47,33,244,0
1313782,48,28,234,0
1313793,48,25,221,0
1313804,53,31,230,0
1313815,55,31,229,0
1313826,56,32,225,0
1313837,57,31,223,0
1313848,57,31,222,0
1313859,60,28,222,0
1313870,63,23,224,0
1313881,64,20,224,0
1313893,62,16,225,0
1313903,51,13,222,0
1313914,38,9,223,0
1313925,26,0,229,0
1313936,34,7,231,0
1313947,27,14,229,0
1313958,18,25,231,0
1313969,16,23,238,0
1313980,13,32,243,0
1313991,23,51,236,0
1314003,36,60,235,0
1314013,44,49,218,0
1314024,43,44,209,0
1314035,40,41,224,0
1314046,43,35,242,0
1314057,48,31,252,0
1314068,49,27,248,0
1314079,44,17,247,0
1314091,40,8,243,0
1314101,36,3,238,0
1314113,22,8,229,1
1314123,-7,26,208,0
1314134,-17,34,192,0
1314145,-17,40,182,0
1314156,0,39,182,0
1314167,54,35,220,0
1314178,63,76,268,0
1314189,31,109,255,0
1314200,60,78,247,0
1314211,84,65,259,0
1314222,71,94,283,0
1314233,55,65,282,0
1314244,42,32,262,0
1314255,42,-1,243,0
1314266,46,-25,219,0
1314278,55,-33,224,0
1314288,71,-36,207,0
1314299,77,-22,203,0
1314310,83,-1,196,0
1314321,87,8,194,0
1314332,83,11,192,0
1314343,82,15,190,0
1314354,80,10,198,0
1314365,79,5,211,0
1314376,81,2,220,0
1314387,77,8,228,0
1314398,72,18,228,0
1314409,72,20,222,0
1314420,61,21,219,0
1314431,49,17,220,0
1314442,43,21,215,0
1314453,27,12,219,0
1314464,22,17,227,0
1314475,19,26,228,0
1314486,28,30,227,0
1314497,38,32,224,0
1314508,43,33,221,0
1314519,44,35,221,0
1314530,47,36,224,0
1314541,48,38,226,0
1314553,52,35,225,0
1314563,57,34,223,0
1314574,61,34,218,0
1314585,64,34,220,0
1314596,66,33,218,0
1314607,70,32,217,0
1314618,67,34,219,0
1314629,65,33,219,0
1314640,65,36,222,0
1314651,63,38,225,0
1314662,60,42,229,0
1314674,57,47,232,0
1314684,52,47,234,0
1314695,47,49,238,0
1314706,46,48,237,0
1314717,43,48,234,0
1314728,44,34,232,0
1314739,44,24,234,0
1314750,44,24,229,0
1314761,44,17,233,0
1314772,46,22,234,0
1314783,42,44,220,0
1314794,38,54,218,0
1314806,35,50,216,0
1314817,37,43,215,0
1314828,37,41,217,0
1314839,36,43,219,0
1314850,35,46,219,0
1314862,29,49,216,1
1314872,16,51,217,0
1314884,6,49,218,0
1314895,0,54,219,0
1314906,3,62,222,0
1314917,21,74,259,0
1314928,22,54,291,0
1314939,9,43,301,0
1314950,4,44,288,0
1314961,13,53,296,0
1314972,39,41,295,0
1314983,62,21,293,0
1314994,68,14,290,0
1315006,77,15,278,0
1315016,87,12,267,0
1315028,99,10,255,0
1315038,109,1,234,0
1315049,117,-8,216,0
1315060,122,-16,199,0
1315071,123,-26,183,0
1315082,115,-11,172,0
1315093,103,-6,170,0
1315104,93,-1,173,0
1315115,82,0,182,0
1315126,78,-1,199,0
1315137,76,-7,220,0
1315149,73,-5,235,0
1315159,68,1,254,0
1315170,62,13,267,0
1315181,55,13,272,0
1315193,50,8,270,0
1315203,46,11,270,0
1315214,49,17,261,0
1315225,52,14,243,0
1315236,58,7,227,0
1315247,52,7,210,0
1315258,45,8,213,0
1315269,44,6,212,0
1315280,42,7,215,0
1315292,41,7,219,0
1315303,38,9,216,0
1315313,33,7,210,0
1315324,28,8,206,0
1315335,24,11,203,0
1315346,22,13,202,0
1315357,21,11,202,0
1315368,17,10,199,0
1315379,13,9,200,0
1315391,8,7,204,0
1315401,4,6,205,0
1315412,2,1,204,0
1315423,0,2,205,0
1315434,-3,3,204,0
1315445,-2,4,207,0
1315456,-2,6,210,0
1315467,-4,4,215,0
1315478,0,2,214,0
1315489,4,3,212,0
1315500,7,5,218,0
1315511,11,5,226,0
1315522,15,6,232,0
1315533,15,7,235,0
1315544,13,8,241,0
1315556,3,12,254,0
1315567,-7,16,263,0
1315579,-19,15,275,1
1315589,-27,13,276,0
1315600,-37,18,271,0
1315611,-26,21,274,0
1315622,54,-13,361,0
1315633,83,66,418,0
1315644,60,71,366,0
1315655,75,-12,315,0
1315666,80,-17,268,0
1315678,93,-20,262,0
1315688,118,-42,284,0
1315699,113,-29,248,0
1315710,93,-30,223,0
1315721,69,-120,236,0
1315732,72,-5,167,0
1315743,63,-7,170,0
1315754,53,-16,158,0
1315765,46,-3,171,0
1315776,43,-11,183,0
1315788,44,-12,192,0
1315798,56,-17,191,0
1315809,78,-16,203,0
1315820,104,-21,207,0
1315831,122,-25,204,0
1315842,127,-28,197,0
1315853,117,-29,194,0
1315865,99,-22,197,0
1315875,88,-12,200,0
1315886,68,1,205,0
1315897,58,5,208,0
1315908,51,11,216,0
1315919,44,15,225,0
1315930,37,11,221,0
1315941,30,6,216,0
1315953,25,2,212,0
1315963,19,0,207,0
1315974,14,-4,203,0
1315985,16,-5,199,0
1315996,20,-5,200,0
1316007,21,-4,206,0
1316018,25,-2,214,0
1316029,25,0,224,0
1316040,23,0,229,0
1316051,22,0,230,0
1316062,9,-1,227,0
1316073,5,-1,225,0
1316084,0,0,221,0
1316095,-1,-3,225,0
1316106,0,-10,224,0
1316117,-1,-3,224,0
1316128,-1,-4,224,0
1316139,0,-5,226,0
1316150,0,0,227,0
1316161,0,-1,225,0
1316172,1,-2,224,0
1316183,2,-2,224,0
1316194,4,-4,220,0
1316206,8,-4,222,0
1316216,7,-5,222,0
1316228,12,-12,236,0
1316238,8,-8,236,0
1316249,-1,-12,234,0
1316260,-10,-13,235,0
1316272,-20,-7,237,1
1316282,-13,5,235,0
1316293,-2,12,245,0
1316304,-25,-59,276,0
1316315,-18,-55,259,0
1316326,-35,-25,251,0
1316337,-49,-21,272,0
1316348,-34,-7,286,0
1316359,-12,13,291,0
1316370,13,2,299,0
1316381,80,21,308,0
1316393,107,28,290,0
1316403,133,31,266,0
1316414,146,28,231,0
1316425,155,25,191,0
1316436,159,23,167,0
1316447,149,16,159,0
1316458,136,16,169,0
1316469,121,16,182,0
1316480,94,16,207,0
1316491,69,19,231,0
1316503,32,18,227,0
1316513,5,21,235,0
1316524,-5,20,250,0
1316535,-10,35,265,0
1316546,-9,17,255,0
1316557,-4,7,249,0
1316568,-3,7,242,0
1316579,3,3,231,0
1316591,14,1,223,0
1316601,19,1,213,0
1316612,26,-2,207,0
1316623,31,-1,202,0
1316636,31,0,195,0
1316646,34,3,194,0
1316657,29,6,194,0
1316668,26,12,196,0
1316679,24,11,200,0
1316691,25,8,202,0
1316701,25,3,204,0
1316712,21,1,206,0
1316723,18,-3,200,0
1316734,13,-2,196,0
1316745,7,-5,195,0
1316756,0,-8,194,0
1316767,-7,-15,196,0
1316778,-10,-14,201,0
1316789,-12,-13,207,0
1316800,-12,-13,216,0
1316812,-10,-13,222,0
1316822,-8,-15,230,0
1316833,-12,-7,239,0
1316844,-16,0,250,0
1316855,-17,2,258,0
1316866,-45,51,275,0
1316878,-61,3,282,0
1316888,-51,-23,281,0
1316899,-36,-14,274,0
1316911,-21,-4,275,0
1316921,16,-19,304,0
1316932,79,-8,404,0
1316943,85,25,402,0
1316955,87,-16,378,1
1316965,83,-23,345,0
1316976,52,-11,301,0
1316987,29,-9,261,0
1316998,27,-20,260,0
1317009,15,-27,233,0
1317020,16,-25,203,0
1317031,45,-35,176,0
1317042,52,-30,173,0
1317053,69,-31,168,0
1317064,76,-19,171,0
1317075,80,-9,176,0
1317086,76,-5,185,0
1317097,76,-16,190,0
1317108,72,-13,191,0
1317119,69,-16,194,0
1317130,75,-14,198,0
1317141,85,-15,203,0
1317153,94,-15,208,0
1317163,92,-14,208,0
1317174,87,-12,205,0
1317185,79,-4,202,0
1317196,62,6,194,0
1317207,56,7,193,0
1317218,51,12,201,0
1317229,44,16,210,0
1317240,34,11,214,0
1317251,29,13,225,0
1317262,24,9,226,0
1317273,16,7,224,0
1317284,7,3,221,0
1317295,3,0,218,0
1317306,1,0,211,0
1317317,-2,0,211,0
1317328,-3,-2,209,0
1317339,-4,-1,215,0
1317350,-5,2,215,0
1317361,0,2,223,0
1317372,1,4,229,0
1317383,3,4,230,0
1317394,1,8,230,0
1317406,1,7,226,0
1317417,0,7,224,0
1317428,1,6,226,0
1317438,1,5,225,0
1317449,1,7,227,0
1317460,2,5,223,0
1317471,3,1,215,0
1317482,5,-6,211,0
1317493,6,-12,206,0
1317504,6,-14,206,0
1317515,3,-6,212,0
1317526,1,2,220,0
1317537,-3,7,222,0
1317548,-10,11,222,0
1317561,-18,12,225,1
1317571,-32,9,230,0
1317582,-35,9,233,0
1317593,-7,14,225,0
1317604,-17,-18,279,0
1317615,-16,-54,289,0
1317626,-15,-39,282,0
1317637,-26,-38,284,0
1317648,-7,-15,279,0
1317659,10,-7,293,0
1317670,50,-25,319,0
1317681,77,1,318,0
1317693,111,14,309,0
1317703,132,18,293,0
1317715,149,12,259,0
1317726,161,8,225,0
1317737,163,3,193,0
1317748,156,-6,171,0
1317759,141,-12,162,0
1317770,124,-14,162,0
1317781,99,-6,172,0
1317793,65,-1,186,0
1317803,32,-1,199,0
1317814,11,-2,227,0
1317825,0,5,265,0
1317836,0,1,265,0
1317847,5,2,270,0
1317858,6,-1,254,0
1317869,7,-5,235,0
1317880,7,-3,227,0
1317892,11,-4,223,0
1317903,13,-2,211,0
1317913,16,0,200,0
1317924,25,-3,200,0
1317935,34,-6,200,0
1317946,36,-6,199,0
1317957,35,-7,193,0
1317968,34,-11,189,0
1317979,34,-11,188,0
1317991,29,-13,192,0
1318001,24,-11,192,0
1318012,20,-8,193,0
1318023,12,-5,196,0
1318034,8,-9,194,0
1318045,3,-11,192,0
1318056,0,-11,192,0
1318067,-2,-13,197,0
1318078,-6,-15,204,0
1318089,-7,-12,210,0
1318100,-10,-4,216,0
1318111,-14,-1,222,0
1318122,-17,0,226,0
1318133,-22,-1,230,0
1318144,-23,-1,234,0
1318155,-24,9,251,0
1318166,-38,48,259,0
1318178,-48,25,263,0
1318189,-50,3,266,0
1318200,-40,-15,263,0
1318211,-23,-11,260,0
1318222,4,-23,274,0
1318234,65,-58,357,1
1318244,95,2,413,0
1318255,87,8,403,0
1318266,87,-21,356,0
1318278,70,-16,319,0
1318288,66,-28,309,0
1318299,64,-24,297,0
1318310,41,-29,234,0
1318321,34,-34,201,0
1318332,34,-39,172,0
1318343,37,15,156,0
1318354,58,-106,168,0
1318365,60,4,145,0
1318376,76,-31,165,0
1318387,91,-33,166,0
1318398,92,-1,179,0
1318409,95,-8,187,0
1318420,99,4,203,0
1318431,105,2,208,0
1318442,112,0,212,0
1318453,117,-7,215,0
1318464,116,-12,216,0
1318475,101,-9,209,0
1318486,95,-4,203,0
1318497,86,1,198,0
1318508,81,6,198,0
1318519,73,11,203,0
1318530,69,19,211,0
1318541,61,22,217,0
1318553,48,27,223,0
1318563,41,22,227,0
1318574,32,21,231,0
1318585,23,18,226,0
1318596,16,15,224,0
1318607,7,11,221,0
1318618,0,6,215,0
1318629,2,3,214,0
1318641,1,6,224,0
1318651,6,4,228,0
1318662,8,10,233,0
1318673,8,10,236,0
1318684,9,12,233,0
1318695,6,12,231,0
1318706,1,13,228,0
1318717,1,12,226,0
1318728,0,10,219,0
1318739,-5,9,221,0
1318750,-9,8,218,0
1318761,-11,7,215,0
1318772,-14,4,214,0
1318783,-17,5,214,0
1318794,-24,5,211,0
1318806,-25,0,212,0
1318816,-24,-2,208,0
1318828,-25,-3,209,0
1318838,-25,-3,212,0
1318849,-26,1,220,0
1318860,-30,2,225,0
1318871,-31,1,234,0
1318882,-31,4,245,0
1318894,-37,8,252,1
1318904,-37,7,252,0
1318916,-26,11,251,0
1318926,-21,5,263,0
1318937,-27,-43,284,0
1318948,-27,-47,279,0
1318959,-32,-27,268,0
1318970,-13,-16,307,0
1318981,10,-20,325,0
1318993,39,-7,327,0
1319003,57,3,315,0
1319014,83,17,317,0
1319025,108,11,292,0
1319036,119,16,256,0
1319047,119,13,220,0
1319058,113,10,182,0
1319069,114,5,160,0
1319080,109,9,153,0
1319091,96,17,159,0
1319103,80,20,176,0
1319113,63,25,197,0
1319124,35,22,210,0
1319135,-5,20,242,0
1319146,-4,28,258,0
1319157,1,22,249,0
1319168,14,20,246,0
1319179,22,9,238,0
1319191,22,0,233,0
1319201,24,-1,233,0
1319212,26,-2,228,0
1319223,31,-1,219,0
1319234,32,2,212,0
1319245,35,1,212,0
1319256,35,-8,210,0
1319267,30,-8,204,0
1319278,25,-6,206,0
1319289,16,-5,203,0
1319300,3,-6,212,0
1319311,-3,-7,213,0
1319322,-11,-6,210,0
1319333,-16,-8,207,0
1319344,-17,-10,200,0
1319355,-22,-13,194,0
1319366,-27,-13,192,0
1319378,-29,-15,189,0
1319388,-31,-15,185,0
1319399,-34,-14,187,0
1319410,-36,-12,194,0
1319421,-37,-18,197,0
1319432,-35,-13,200,0
1319443,-36,-7,206,0
1319454,-36,-5,219,0
1319465,-37,-3,226,0
1319476,-39,-1,233,0
1319487,-39,-1,240,0
1319498,-40,-5,248,0
1319509,-39,-12,251,0
1319520,-35,-19,250,0
1319531,-24,-16,254,0
1319542,-21,4,260,0
1319553,-22,-3,277,0
1319564,-20,-16,282,0
1319575,-19,-16,274,0
1319587,17,-25,284,1
1319597,88,-27,414,0
1319608,111,78,397,0
1319619,111,18,382,0
1319630,89,-23,352,0
1319641,105,-4,368,0
1319653,82,16,322,0
1319663,27,10,233,0
1319674,-5,9,181,0
1319685,-1,-90,185,0
1319696,-6,10,142,0
1319707,24,-61,131,0
1319718,27,-44,125,0
1319729,49,-37,141,0
1319740,71,-18,163,0
1319751,82,-7,180,0
1319762,91,-6,190,0
1319773,105,-12,204,0
1319784,112,-9,204,0
1319795,118,-11,201,0
1319806,122,-13,205,0
1319817,120,-12,209,0
1319828,112,-11,208,0
1319839,105,-8,201,0
1319850,97,-9,196,0
1319861,86,-6,197,0
1319872,73,-1,201,0
1319884,65,1,203,0
1319894,57,2,207,0
1319906,45,1,213,0
1319917,34,0,216,0
1319928,21,3,224,0
1319938,9,6,233,0
1319949,1,8,237,0
1319960,-7,4,227,0
1319971,-8,3,220,0
1319982,-8,1,214,0
1319993,-6,-1,211,0
1320004,-6,3,216,0
1320015,-3,3,224,0
1320026,-4,9,226,0
1320037,-1,6,231,0
1320048,0,5,234,0
1320059,2,2,230,0
1320070,3,1,224,0
1320081,4,-1,221,0
1320093,5,-2,220,0
1320103,6,-5,219,0
1320114,8,-7,216,0
1320125,13,-9,216,0
1320136,12,-8,217,0
1320147,12,-5,218,0
1320158,13,-3,217,0
1320169,10,-3,213,0
1320180,9,-5,210,0
1320192,5,-2,211,0
1320203,3,-2,213,0
1320213,0,0,216,0
1320224,-4,-1,219,0
1320235,-12,-8,224,0
1320247,-20,-13,226,1
1320257,-26,-10,230,0
1320268,-31,-2,234,0
1320279,-20,12,232,0
1320291,-8,-20,288,0
1320301,2,-51,272,0
1320312,0,-23,254,0
1320323,-4,2,266,0
1320334,-2,13,300,0
1320345,12,-15,317,0
1320356,27,-33,320,0
1320367,43,-21,325,0
1320378,64,8,331,0
1320389,82,18,314,0
1320401,98,16,285,0
1320411,110,13,247,0
1320422,121,8,202,0
1320433,125,4,166,0
1320444,119,3,141,0
1320455,98,3,135,0
1320466,84,10,152,0
1320478,68,14,177,0
1320488,48,11,196,0
1320499,27,19,218,0
1320510,21,22,243,0
1320521,29,24,267,0
1320532,35,24,280,0
1320543,41,27,280,0
1320554,43,21,270,0
1320565,42,9,256,0
1320576,38,7,249,0
1320587,29,11,240,0
1320598,27,5,234,0
1320609,32,1,229,0
1320620,31,1,217,0
1320631,38,-2,215,0
1320642,41,-1,211,0
1320653,44,-1,207,0
1320664,38,-1,204,0
1320675,30,-2,201,0
1320686,25,-3,201,0
1320697,19,-1,204,0
1320708,12,-2,207,0
1320719,7,-3,206,0
1320730,0,-5,206,0
1320741,-7,-8,202,0
1320753,-11,-4,198,0
1320763,-21,-8,197,0
1320774,-25,-7,201,0
1320785,-14,-21,208,0
1320796,2,-8,190,0
1320807,0,17,195,0
1320818,0,11,219,0
1320829,2,4,237,0
1320840,7,9,240,0
1320851,3,16,242,0
1320862,-2,21,251,0
1320873,-9,23,266,0
1320884,-12,10,272,0
1320895,-12,9,267,0
1320907,-17,24,260,1
1320917,-29,22,254,0
1320928,-9,6,276,0
1320939,57,8,388,0
1320950,43,8,358,0
1320961,45,-8,327,0
1320972,39,20,284,0
1320983,48,8,306,0
1320994,64,-25,331,0
1321006,42,-4,296,0
1321016,48,-20,244,0
1321028,45,-62,201,0
1321038,44,-52,175,0
1321049,49,-62,152,0
1321060,49,-57,144,0
1321071,49,-55,137,0
1321082,49,-37,142,0
1321093,49,-26,152,0
1321104,49,-14,168,0
1321115,64,0,211,0
1321126,71,6,226,0
1321137,76,4,233,0
1321149,79,0,232,0
1321159,73,-4,224,0
1321170,67,-6,216,0
1321181,62,-5,209,0
1321193,56,-8,206,0
1321203,52,-8,203,0
1321214,46,-3,202,0
1321225,43,0,204,0
1321236,40,-1,210,0
1321247,27,2,215,0
1321258,20,2,222,0
1321269,15,2,221,0
1321280,10,-1,221,0
1321292,9,0,221,0
1321303,9,-3,217,0
1321313,8,-1,214,0
1321324,8,-2,210,0
1321335,9,0,212,0
1321346,10,1,214,0
1321357,8,4,220,0
1321368,10,4,228,0
1321379,8,11,233,0
1321391,6,15,237,0
1321401,4,16,238,0
1321412,1,18,236,0
1321423,0,18,232,0
1321434,1,15,228,0
1321445,1,9,220,0
1321456,6,2,216,0
1321467,11,-5,209,0
1321478,14,-13,206,0
1321489,18,-22,208,0
1321500,24,-24,208,0
1321511,28,-20,213,0
1321522,32,-9,220,0
1321533,33,1,227,0
1321544,27,6,229,0
1321555,16,7,230,0
1321566,2,5,228,0
1321578,-12,7,221,0
1321588,-21,7,214,0
1321600,-8,9,204,1
1321610,4,-30,266,0
1321621,4,-24,267,0
1321632,-15,-7,266,0
1321643,-15,-4,296,0
1321654,-2,15,302,0
1321665,8,13,300,0
1321676,20,0,302,0
1321687,36,4,300,0
1321698,54,3,288,0
1321709,77,0,281,0
1321720,101,1,271,0
1321731,110,2,255,0
1321742,117,1,230,0
1321753,118,3,206,0
1321764,121,-4,180,0
1321775,122,-20,143,0
1321786,108,-22,140,0
1321797,93,-22,151,0
1321808,84,-21,172,0
1321819,81,-16,187,0
1321830,74,-2,202,0
1321841,65,6,226,0
1321853,62,15,252,0
1321863,55,19,273,0
1321874,56,19,287,0
1321885,56,22,288,0
1321896,50,19,280,0
1321907,45,16,270,0
1321918,36,13,259,0
1321929,29,12,251,0
1321940,24,5,244,0
1321951,25,7,237,0
1321962,28,6,234,0
1321973,32,3,227,0
1321984,32,4,224,0
1321995,31,4,216,0
1322006,27,6,211,0
1322017,24,2,202,0
1322028,23,1,198,0
1322039,21,1,195,0
1322050,20,1,193,0
1322061,16,2,193,0
1322072,12,1,191,0
1322083,8,0,190,0
1322094,1,-1,189,0
1322106,-9,-1,190,0
1322116,-10,1,193,0
1322128,-9,2,191,0
1322138,-9,0,183,0
1322149,-3,5,187,0
1322160,-1,12,208,0
1322171,3,14,231,0
1322182,13,13,239,0
1322193,16,16,239,0
1322204,20,20,239,0
1322215,18,27,247,0
1322226,10,34,258,0
1322237,0,38,264,0
1322249,-6,31,265,1
1322259,-15,32,265,0
1322270,3,11,283,0
1322281,64,-9,359,0
1322293,95,41,417,0
1322303,109,26,407,0
1322314,134,-19,381,0
1322325,116,-12,331,0
1322336,82,3,270,0
1322347,55,-12,241,0
1322358,29,-29,220,0
1322369,5,-29,212,0
1322380,-6,-33,197,0
1322392,-6,-35,181,0
1322403,4,-34,173,0
1322413,30,-34,173,0
1322424,59,-33,171,0
1322435,93,-18,179,0
1322446,102,-9,183,0
1322457,105,64,217,0
1322468,119,-43,183,0
1322479,112,19,210,0
1322491,130,-40,196,0
1322501,124,-17,208,0
1322512,123,-25,207,0
1322523,117,-24,204,0
1322534,109,-22,205,0
1322545,97,-20,201,0
1322556,91,-15,198,0
1322567,83,-12,200,0
1322578,84,-11,200,0
1322589,71,-4,212,0
1322600,50,8,241,0
1322611,43,7,244,0
1322622,40,2,244,0
1322633,38,-2,239,0
1322644,38,-5,236,0
1322655,37,-7,230,0
1322666,34,-10,221,0
1322678,39,-15,215,0
1322688,39,-12,216,0
1322699,42,-9,215,0
1322710,42,-10,222,0
1322721,47,-2,224,0
1322732,51,-2,225,0
1322743,54,-1,228,0
1322754,54,1,229,0
1322765,53,2,234,0
1322776,47,7,237,0
1322787,44,10,238,0
1322798,42,8,239,0
1322809,35,7,236,0
1322820,35,3,238,0
1322831,27,3,237,0
1322842,25,0,233,0
1322854,21,0,231,0
1322864,18,0,233,0
1322875,17,0,231,0
1322886,17,3,230,0
1322897,18,6,234,0
1322908,19,6,237,0
1322919,22,6,236,0
1322930,23,8,233,0
1322941,24,9,228,0
1322953,23,9,226,0
1322963,25,8,223,0
1322974,25,10,224,0
1322985,23,13,229,0
1322996,21,13,227,0
1323008,19,13,227,0
1323019,16,12,228,0
1323030,11,16,224,0
1323041,11,21,225,0
1323053,10,18,223,1
1323063,23,1,222,0
1323074,40,-39,238,0
1323085,64,-40,225,0
1323096,53,-47,208,0
1323107,41,-63,207,0
1323118,28,-71,209,0
1323129,25,-49,201,0
1323140,16,-23,205,0
1323151,13,-2,216,0
1323162,14,12,235,0
1323174,20,14,249,0
1323185,30,14,255,0
1323196,40,12,254,0
1323207,47,7,251,0
1323218,55,-1,247,0
1323229,63,-14,239,0
1323240,67,-13,237,0
1323251,68,-17,235,0
1323262,71,-21,230,0
1323273,71,-16,226,0
1323284,70,-12,227,0
1323295,71,-11,227,0
1323306,71,-8,226,0
1323317,71,-7,225,0
1323328,68,-11,222,0
1323339,68,-18,221,0
1323350,68,-26,221,0
1323361,71,-32,226,0
1323372,77,-31,227,0
1323383,81,-27,222,0
1323395,87,-19,221,0
1323406,89,-15,222,0
1323417,88,-13,219,0
1323428,86,-12,223,0
1323439,81,-18,227,0
1323450,75,-26,231,0
1323461,73,-28,234,0
1323472,67,-26,232,0
1323483,60,-23,230,0
1323494,51,-20,224,0
1323506,42,-12,214,0
1323516,31,-7,210,0
1323528,20,-3,205,0
1323538,13,-4,206,0
1323549,9,-17,219,0
1323560,12,-20,227,0
1323571,16,-31,230,0
1323582,22,-25,241,0
1323593,26,-26,239,0
1323604,29,-30,237,0
1323615,35,-32,231,0
1323626,42,-32,224,0
1323637,45,-27,214,0
1323648,50,-29,210,0
1323659,49,-27,205,0
1323670,48,-26,201,0
1323681,44,-29,198,0
1323693,39,-28,195,0
1323703,33,-28,196,0
1323714,16,-34,200,0
1323725,9,-34,206,0
1323736,6,-25,217,0
1323747,3,-11,226,0
1323758,1,-3,234,0
1323770,2,-5,241,1
1323780,14,-12,252,0
1323792,30,-11,262,0
1323803,48,-7,285,0
1323813,59,-6,319,0
1323824,63,-1,348,0
1323835,64,-2,341,0
1323846,61,-11,296,0
1323857,57,-18,241,0
1323868,51,-22,206,0
1323879,41,-29,170,0
1323891,38,-25,169,0
1323901,39,-19,184,0
1323912,39,-15,194,0
1323923,35,-13,205,0
1323934,33,-10,219,0
1323945,34,-9,225,0
1323956,36,-12,230,0
1323967,37,-14,229,0
1323978,42,-18,231,0
1323989,46,-24,234,0
1324000,50,-27,236,0
1324011,50,-28,238,0
1324022,52,-28,236,0
1324033,50,-27,233,0
1324044,48,-26,226,0
1324055,46,-24,226,0
1324066,45,-23,228,0
1324078,45,-23,225,0
1324088,45,-24,225,0
1324099,45,-24,226,0
1324110,45,-23,225,0
1324121,42,-23,227,0
1324132,41,-22,227,0
1324143,40,-22,227,0
1324154,41,-21,226,0
1324165,43,-21,224,0
1324176,44,-21,222,0
1324187,47,-19,222,0
1324198,49,-18,222,0
1324209,54,-17,226,0
1324220,55,-17,227,0
1324232,56,-16,230,0
1324243,60,-18,229,0
1324254,58,-17,231,0
1324265,58,-18,231,0
1324276,60,-19,231,0
1324287,58,-19,230,0
1324298,56,-20,229,0
1324309,56,-21,226,0
1324320,54,-20,226,0
1324331,53,-20,223,0
1324342,52,-19,223,0
1324353,50,-18,227,0
1324364,50,-16,227,0
1324375,50,-15,227,0
1324386,48,-13,227,0
1324397,48,-12,226,0
1324408,46,-11,225,0
1324419,43,-12,225,0
1324430,41,-11,226,0
1324441,40,-10,229,0
1324453,41,-11,230,0
1324463,43,-12,231,0
1324474,43,-12,229,0
1324485,43,-13,227,0
1324496,45,-14,227,0
1324507,47,-12,226,0
1324518,50,-9,227,0
1324529,49,-9,225,0
1324540,52,-6,228,0
1324551,52,-7,228,0
1324562,53,-7,228,0
1324573,54,-5,225,0
1324584,55,-7,222,0
1324595,55,-8,222,0
1324606,58,-10,221,0
1324617,58,-8,223,0
1324628,59,-8,227,0
1324639,59,-8,230,0
1324650,56,-10,230,0
1324661,55,-11,227,0
1324672,56,-13,224,0
1324684,55,-11,221,0
1324694,54,-12,224,0
1324706,53,-9,231,0
1324716,52,-10,226,0
1324728,50,-12,225,0
1324738,52,-11,224,0
1324749,51,-12,223,0
1324760,51,-8,230,0
1324771,50,-6,233,0
1324782,49,-8,230,0
1324793,50,-10,229,0
1324804,51,-9,228,0
1324815,54,-11,227,0
1324826,56,-11,225,0
1324837,59,-12,224,0
1324848,59,-12,225,0
1324859,59,-13,223,0
1324870,58,-11,223,0
1324881,59,-11,224,0
1324893,58,-11,227,0
1324903,59,-10,230,0
1324914,58,-11,229,0
1324925,56,-10,230,0
1324936,56,-10,226,0
1324947,56,-11,227,0
1324958,55,-11,227,0
1324969,53,-14,225,0
1324980,51,-11,225,0
1324992,51,-12,222,0
1325003,51,-12,225,0
1325013,55,-11,226,0
1325024,55,-11,225,0
1325035,54,-10,227,0
1325046,54,-9,226,0
1325057,54,-9,228,0
1325068,55,-10,228,0
1325079,54,-11,226,0
1325091,56,-10,224,0
1325101,53,-13,222,0
1325112,51,-11,223,0
