timestamp,accX,accY,accZ,step
1527721,49,3,229,0
1527732,51,4,227,0
1527743,51,2,226,0
1527753,49,4,231,0
1527764,50,2,229,0
1527775,50,3,229,0
1527785,49,2,226,0
1527796,51,2,228,0
1527807,50,6,228,0
1527818,51,6,226,0
1527829,50,6,229,0
1527840,50,5,228,0
1527851,49,4,227,0
1527862,51,4,227,0
1527873,50,5,227,0
1527884,50,5,227,0
1527895,49,6,228,0
1527906,50,4,229,0
1527917,47,3,229,0
1527928,44,2,227,0
1527939,41,1,226,0
1527950,40,2,229,0
1527961,39,2,230,0
1527972,40,1,233,0
1527983,43,2,232,0
1527994,45,4,230,0
1528005,46,4,229,0
1528017,49,1,225,0
1528028,51,1,226,0
1528038,52,2,225,0
1528049,52,2,226,0
1528060,52,1,226,0
1528071,50,1,225,0
1528082,48,1,226,0
1528093,47,1,226,0
1528104,47,1,227,0
1528115,45,2,229,0
1528126,45,1,229,0
1528137,45,2,229,0
1528149,45,3,229,0
1528160,48,4,230,0
1528171,50,1,226,0
1528182,49,1,224,0
1528193,49,1,226,0
1528204,49,2,227,0
1528215,49,2,227,0
1528226,48,2,229,0
1528237,50,2,227,0
1528248,50,1,226,0
1528259,50,1,226,0
1528270,49,1,225,0
1528281,47,1,226,0
1528293,46,2,228,0
1528303,45,3,228,0
1528314,44,1,229,0
1528325,44,3,229,0
1528336,43,1,228,0
1528347,42,0,228,0
1528358,40,1,228,0
1528369,40,1,229,0
1528380,38,1,228,0
1528392,36,1,228,0
1528403,35,1,226,0
1528413,34,1,226,0
1528424,34,1,228,0
1528435,37,-1,230,0
1528446,40,0,232,0
1528457,40,1,233,0
1528468,44,1,235,0
1528479,45,1,230,0
1528491,47,2,229,0
1528501,47,-2,225,0
1528512,48,-2,229,0
1528523,48,-3,230,0
1528534,50,-2,230,0
1528545,49,-1,231,0
1528556,48,5,227,0
1528567,46,12,226,0
1528578,47,11,226,0
1528589,48,7,229,0
1528600,47,7,235,0
1528611,49,8,235,0
1528622,47,9,233,0
1528633,45,10,231,0
1528644,45,12,228,0
1528655,42,8,229,0
1528666,45,6,230,0
1528678,45,8,227,0
1528688,45,6,225,0
1528699,47,7,223,0
1528710,47,8,223,0
1528721,49,7,225,0
1528732,50,7,224,0
1528743,51,8,224,0
1528754,52,6,226,0
1528765,57,5,227,0
1528776,57,7,226,0
1528787,56,7,227,0
1528798,56,4,226,0
1528809,51,8,225,0
1528820,48,9,225,0
1528831,45,11,226,0
1528842,40,11,229,0
1528853,40,11,230,0
1528864,39,11,230,0
1528875,38,11,230,0
1528886,36,11,228,0
1528897,35,6,227,0
1528908,33,6,227,0
1528919,31,6,227,0
1528930,30,2,227,0
1528941,29,3,230,0
1528952,30,7,230,0
1528963,31,5,230,0
1528975,33,2,232,0
1528986,35,4,233,0
1528996,37,2,234,0
1529007,39,0,231,0
1529018,39,0,228,0
1529029,37,0,227,0
1529040,34,2,226,0
1529051,33,4,227,0
1529062,32,3,227,0
1529073,31,4,230,0
1529084,32,4,230,0
1529095,34,5,230,0
1529106,34,2,230,0
1529117,35,5,228,0
1529128,35,5,229,0
1529139,35,4,228,0
1529150,34,2,230,0
1529161,37,3,230,0
1529172,34,5,230,0
1529183,35,4,230,0
1529194,33,5,231,0
1529205,29,6,231,0
1529217,28,6,231,0
1529227,27,6,230,0
1529238,28,3,230,0
1529249,26,5,229,0
1529260,26,4,229,0
1529271,28,3,230,0
1529282,29,4,230,0
1529293,30,4,231,0
1529304,30,2,232,0
1529315,31,2,231,0
1529326,29,4,230,0
1529337,29,5,231,0
1529348,28,5,232,0
1529359,25,3,231,0
1529370,23,2,231,0
1529381,26,2,229,0
1529393,27,1,230,0
1529403,29,2,228,0
1529414,30,3,230,0
1529425,33,2,228,0
1529436,34,0,228,0
1529447,38,-2,227,0
1529458,38,0,226,0
1529469,37,0,227,0
1529480,34,1,228,0
1529492,33,1,228,0
1529503,25,2,228,0
1529513,22,2,229,0
1529524,21,1,228,0
1529535,20,1,230,0
1529546,20,2,230,0
1529557,22,1,229,0
1529568,23,1,231,0
1529579,23,1,231,0
1529591,22,4,230,0
1529601,22,4,232,0
1529612,21,1,233,0
1529623,22,1,231,0
1529634,23,1,229,0
1529645,23,-1,228,0
1529656,25,-3,229,0
1529667,26,0,230,0
1529678,29,1,231,0
1529689,31,1,233,0
1529700,34,0,232,0
1529711,36,1,230,0
1529722,37,2,232,0
1529733,34,0,227,0
1529744,31,0,227,0
1529754,27,-1,227,0
1529764,24,0,227,0
1529774,21,4,228,0
1529784,17,8,230,0
1529794,15,8,232,0
1529805,12,6,232,0
1529817,11,3,232,0
1529827,11,2,228,0
1529838,8,1,230,0
1529849,8,2,230,0
1529860,7,4,233,0
1529871,7,8,230,0
1529882,10,7,230,0
1529893,12,5,229,0
1529904,14,3,231,0
1529916,8,7,231,0
1529926,4,8,230,0
1529937,3,10,229,0
1529948,5,9,225,0
1529959,7,5,226,0
1529971,11,6,226,0
1529981,16,6,224,0
1529993,19,4,227,0
1530003,23,7,227,0
1530014,26,8,227,0
1530025,26,10,230,0
1530036,26,9,229,0
1530047,23,7,230,0
1530058,19,8,230,0
1530069,15,9,229,0
1530080,8,10,229,0
1530092,5,12,230,0
1530102,2,14,229,0
1530113,2,13,229,0
1530124,0,13,226,0
1530135,0,14,227,0
1530146,-2,13,226,0
1530157,-4,13,226,0
1530168,-5,15,229,0
1530179,-7,13,230,0
1530191,-7,13,228,0
1530201,-5,13,225,0
1530212,-2,13,225,0
1530223,0,16,226,0
1530234,1,14,227,0
1530245,5,12,221,0
1530256,3,14,223,0
1530267,2,14,222,0
1530278,1,13,222,0
1530289,1,14,226,0
1530300,1,13,226,0
1530311,2,11,226,0
1530322,4,11,224,0
1530333,6,9,225,0
1530344,9,10,223,0
1530355,9,11,222,0
1530366,11,9,223,0
1530377,10,8,220,0
1530388,9,7,220,0
1530399,8,8,219,0
1530410,5,12,221,0
1530421,2,17,221,0
1530432,0,21,218,0
1530443,-1,18,221,0
1530454,1,26,222,0
1530465,0,28,232,0
1530477,-1,36,238,0
1530487,-2,38,238,0
1530498,-2,41,240,0
1530509,-5,49,237,0
1530520,-7,55,241,0
1530531,4,56,241,0
1530543,7,48,259,1
1530553,-1,20,284,0
1530564,0,39,275,0
1530575,-21,49,261,0
1530586,-53,40,268,0
1530598,-39,40,266,0
1530609,-19,34,270,0
1530620,0,34,285,0
1530631,18,34,300,0
1530642,36,28,303,0
1530653,49,18,299,0
1530664,64,12,284,0
1530675,78,7,262,0
1530686,88,5,233,0
1530697,99,-3,210,0
1530708,102,-9,188,0
1530719,92,-8,180,0
1530730,74,-9,179,0
1530741,64,-2,180,0
1530752,55,1,186,0
1530763,47,4,203,0
1530774,36,7,222,0
1530785,23,11,239,0
1530796,18,19,257,0
1530807,15,22,261,0
1530818,13,25,258,0
1530829,16,24,260,0
1530840,30,18,253,0
1530851,40,13,243,0
1530862,49,7,227,0
1530873,59,2,210,0
1530884,67,1,196,0
1530895,70,1,188,0
1530907,69,3,192,0
1530917,65,4,195,0
1530928,60,6,203,0
1530939,48,4,209,0
1530950,40,4,216,0
1530961,27,3,218,0
1530972,15,2,216,0
1530983,6,1,215,0
1530994,2,-2,212,0
1531005,-1,-3,214,0
1531017,-4,-7,214,0
1531027,-8,-6,205,0
1531038,-9,-2,198,0
1531049,-11,0,195,0
1531060,-14,-1,198,0
1531071,-17,-3,210,0
1531082,-19,-3,211,0
1531093,-22,0,211,0
1531104,-25,1,215,0
1531115,-24,-1,223,0
1531126,-23,0,227,0
1531137,-24,2,232,0
1531149,-25,2,241,0
1531159,-28,4,245,0
1531170,-29,12,253,0
1531181,-36,15,260,0
1531193,-42,4,264,0
1531203,-46,-2,277,0
1531214,-40,-9,293,0
1531226,-35,-15,289,1
1531236,-39,-2,277,0
1531247,-12,-17,296,0
1531259,43,-16,393,0
1531269,57,59,384,0
1531280,41,18,345,0
1531292,37,-16,301,0
1531302,22,-2,259,0
1531313,34,3,262,0
1531324,71,-15,293,0
1531335,65,9,274,0
1531346,59,0,250,0
1531357,72,-24,213,0
1531368,67,-14,193,0
1531379,72,-32,168,0
1531391,74,-30,153,0
1531401,60,-22,141,0
1531412,55,-28,146,0
1531423,61,-22,163,0
1531434,67,-14,185,0
1531445,75,-9,198,0
1531456,82,-2,206,0
1531467,92,-5,211,0
1531478,96,-4,211,0
1531489,92,-2,210,0
1531500,82,-2,210,0
1531511,77,-2,208,0
1531522,77,-3,207,0
1531533,64,0,205,0
1531544,55,-2,207,0
1531555,45,-1,211,0
1531566,34,3,222,0
1531577,32,6,224,0
1531588,29,6,222,0
1531599,23,5,217,0
1531610,18,5,212,0
1531621,11,7,212,0
1531632,5,8,210,0
1531643,1,6,210,0
1531654,-1,5,210,0
1531665,-4,6,214,0
1531676,-4,9,221,0
1531687,-3,11,226,0
1531698,-5,12,232,0
1531709,-1,13,235,0
1531720,-1,11,234,0
1531731,-1,6,231,0
1531742,1,0,220,0
1531754,5,0,219,0
1531764,10,0,217,0
1531775,11,0,214,0
1531786,11,0,214,0
1531797,14,0,214,0
1531808,15,-1,215,0
1531819,12,0,217,0
1531830,8,3,220,0
1531841,2,8,223,0
1531852,-2,15,224,0
1531863,-14,14,224,0
1531874,-18,18,225,0
1531885,-29,21,221,0
1531897,-50,18,224,1
1531907,-50,16,223,0
1531918,-15,19,205,0
1531929,-27,-15,261,0
1531940,-16,-49,273,0
1531952,-6,-12,258,0
1531962,-11,-2,264,0
1531973,-9,9,306,0
1531984,-1,-11,333,0
1531995,18,-29,347,0
1532006,40,-7,353,0
1532017,79,16,357,0
1532028,115,24,333,0
1532039,144,26,305,0
1532050,154,18,266,0
1532061,156,12,225,0
1532072,138,6,173,0
1532083,126,6,164,0
1532094,104,1,162,0
1532105,77,1,164,0
1532117,56,6,172,0
1532128,26,8,189,0
1532138,1,10,208,0
1532149,-21,18,233,0
1532160,-22,18,252,0
1532171,-9,12,258,0
1532182,10,3,260,0
1532193,25,5,254,0
1532205,31,5,237,0
1532217,32,1,208,0
1532228,37,2,201,0
1532238,39,2,196,0
1532249,42,4,198,0
1532260,46,3,193,0
1532271,48,4,194,0
1532282,46,3,195,0
1532293,45,0,199,0
1532304,43,-6,203,0
1532315,32,-13,211,0
1532326,29,-4,210,0
1532337,25,2,211,0
1532348,11,-10,209,0
1532359,7,-5,211,0
1532370,4,-3,205,0
1532381,0,-4,201,0
1532393,-7,-10,201,0
1532403,-4,-12,202,0
1532414,-7,-7,195,0
1532425,-12,-2,197,0
1532436,-16,-1,207,0
1532447,-18,-1,220,0
1532458,-17,2,234,0
1532469,-19,26,240,0
1532480,-27,35,254,0
1532491,-36,30,266,0
1532503,-42,15,268,0
1532513,-39,-1,264,0
1532525,-32,0,267,1
1532535,-38,6,265,0
1532546,-40,3,269,0
1532557,60,15,403,0
1532568,63,48,375,0
1532579,59,-5,354,0
1532591,42,-14,295,0
1532601,61,-9,301,0
1532612,117,-20,350,0
1532623,97,3,314,0
1532634,71,-21,260,0
1532645,70,-33,211,0
1532656,59,-31,184,0
1532667,53,-36,164,0
1532678,53,-36,148,0
1532689,44,-30,139,0
1532700,35,-28,148,0
1532711,37,-27,164,0
1532722,39,-20,175,0
1532733,64,-12,195,0
1532744,80,-10,201,0
1532755,102,-9,210,0
1532766,110,-7,213,0
1532778,106,-5,211,0
1532788,96,-8,207,0
1532799,83,-1,202,0
1532810,67,0,203,0
1532821,58,4,207,0
1532832,44,5,212,0
1532843,35,7,220,0
1532855,31,10,223,0
1532866,33,7,225,0
1532878,21,9,220,0
1532888,10,5,217,0
1532899,2,5,215,0
1532911,0,4,219,0
1532921,3,5,217,0
1532932,4,1,214,0
1532943,8,0,209,0
1532954,13,0,211,0
1532965,14,2,213,0
1532976,15,4,223,0
1532987,11,5,231,0
1532998,3,4,233,0
1533009,5,2,231,0
1533020,4,2,233,0
1533031,5,-1,224,0
1533043,13,0,219,0
1533053,14,4,225,0
1533064,15,5,226,0
1533075,14,3,223,0
1533086,17,1,216,0
1533098,17,2,208,0
1533108,16,0,203,0
1533119,21,1,202,0
1533130,22,0,205,0
1533141,20,4,211,0
1533153,14,9,218,0
1533163,9,8,227,0
1533174,1,14,232,0
1533185,-7,12,240,0
1533196,-18,16,246,0
1533207,-26,14,242,0
1533219,-29,25,235,1
1533229,-9,23,231,0
1533240,-33,-37,279,0
1533251,-24,-52,275,0
1533263,-24,-20,264,0
1533273,-27,-3,270,0
1533284,-19,7,301,0
1533295,6,1,321,0
1533306,35,3,323,0
1533317,53,7,325,0
1533328,73,24,317,0
1533339,93,44,301,0
1533351,110,59,280,0
1533361,119,58,251,0
1533372,130,38,214,0
1533383,122,17,150,0
1533394,110,3,132,0
1533405,93,-2,131,0
1533417,68,1,143,0
1533428,47,7,176,0
1533438,29,-3,209,0
1533449,15,-5,238,0
1533460,8,-1,255,0
1533471,5,8,263,0
1533482,7,3,266,0
1533493,25,0,258,0
1533505,39,-2,243,0
1533515,37,1,232,0
1533526,38,6,237,0
1533537,35,11,235,0
1533548,25,11,212,0
1533559,22,11,211,0
1533570,21,8,216,0
1533581,18,3,217,0
1533593,19,-2,208,0
1533603,20,-2,210,0
1533614,16,1,213,0
1533625,10,-1,205,0
1533636,6,0,200,0
1533647,3,-1,201,0
1533658,-2,-2,202,0
1533669,-3,-2,204,0
1533680,-1,-3,203,0
1533692,0,-1,203,0
1533703,0,-4,200,0
1533713,0,0,201,0
1533724,-4,1,204,0
1533735,-10,2,212,0
1533746,-18,0,219,0
1533757,-24,-3,226,0
1533768,-29,-2,234,0
1533779,-32,-8,241,0
1533791,-27,-4,243,0
1533803,-22,0,244,0
1533814,-14,-4,246,1
1533824,-13,-2,258,0
1533835,-4,-11,277,0
1533846,1,-12,286,0
1533857,2,-2,278,0
1533868,49,10,331,0
1533879,41,60,362,0
1533891,50,24,355,0
1533901,80,11,358,0
1533912,76,8,329,0
1533923,85,15,326,0
1533934,83,48,366,0
1533945,51,45,311,0
1533956,27,25,227,0
1533967,13,-25,171,0
1533978,7,-34,153,0
1533989,6,-43,132,0
1534000,4,-37,129,0
1534011,9,-35,140,0
1534022,11,-25,155,0
1534033,9,16,188,0
1534044,20,38,207,0
1534055,41,47,229,0
1534066,54,56,244,0
1534078,56,50,240,0
1534088,64,40,229,0
1534099,72,32,216,0
1534110,75,24,207,0
1534121,74,22,200,0
1534132,76,20,206,0
1534143,70,16,209,0
1534154,62,10,212,0
1534165,52,12,213,0
1534176,44,8,211,0
1534187,39,7,214,0
1534198,21,14,222,0
1534209,9,15,221,0
1534220,2,11,222,0
1534231,0,15,219,0
1534242,1,13,217,0
1534253,0,11,217,0
1534264,-2,13,214,0
1534275,0,11,209,0
1534286,0,16,210,0
1534297,5,14,219,0
1534308,10,14,223,0
1534319,15,12,221,0
1534330,19,15,222,0
1534341,17,21,228,0
1534353,17,25,228,0
1534363,14,25,227,0
1534374,14,27,223,0
1534385,15,22,223,0
1534396,18,23,223,0
1534407,21,20,225,0
1534418,28,19,225,0
1534429,34,16,226,0
1534440,42,11,227,0
1534451,45,6,230,0
1534462,49,3,230,0
1534473,54,3,232,0
1534484,54,6,227,0
1534496,52,7,223,1
1534506,44,9,219,0
1534517,32,17,220,0
1534528,23,24,226,0
1534539,2,23,238,0
1534550,1,24,239,0
1534561,10,34,233,0
1534572,33,64,237,0
1534583,44,56,267,0
1534594,53,27,294,0
1534605,50,-8,293,0
1534616,31,-3,298,0
1534628,4,0,310,0
1534638,-1,11,318,0
1534649,8,37,311,0
1534660,23,51,298,0
1534671,43,51,282,0
1534682,70,48,265,0
1534693,94,36,247,0
1534704,128,5,189,0
1534715,127,-7,160,0
1534726,118,-22,141,0
1534737,106,-32,130,0
1534748,94,-28,136,0
1534759,73,-23,146,0
1534770,52,-6,159,0
1534781,28,8,184,0
1534793,11,16,223,0
1534803,0,39,270,0
1534814,-6,43,296,0
1534826,-2,43,303,0
1534836,5,36,305,0
1534847,13,18,280,0
1534858,20,4,259,0
1534869,23,4,248,0
1534880,39,0,218,0
1534892,44,2,215,0
1534903,43,11,223,0
1534913,42,17,228,0
1534924,38,22,237,0
1534935,33,21,232,0
1534946,28,19,223,0
1534957,18,25,225,0
1534968,12,21,222,0
1534979,8,19,218,0
1534991,6,20,216,0
1535001,6,19,215,0
1535012,4,18,212,0
1535023,8,14,206,0
1535034,4,15,205,0
1535045,17,18,203,0
1535056,20,26,205,0
1535067,19,33,212,0
1535078,21,37,220,0
1535089,24,42,227,0
1535100,33,38,228,0
1535112,35,36,235,1
1535122,34,46,228,0
1535133,17,47,235,0
1535144,17,39,236,0
1535155,10,44,235,0
1535166,1,45,238,0
1535178,-4,40,241,0
1535188,-10,43,237,0
1535199,-21,46,234,0
1535210,-31,47,227,0
1535221,-33,57,224,0
1535232,-36,59,220,0
1535243,-25,50,226,0
1535254,2,61,258,0
1535265,6,110,290,0
1535276,21,91,295,0
1535287,65,54,344,0
1535298,92,81,385,0
1535309,96,73,380,0
1535320,91,40,334,0
1535331,82,-5,258,0
1535342,72,-32,213,0
1535353,68,-42,169,0
1535364,61,-44,144,0
1535375,56,-27,144,0
1535387,60,-17,154,0
1535397,63,1,163,0
1535408,74,17,185,0
1535419,83,29,204,0
1535430,85,27,220,0
1535441,83,22,237,0
1535453,87,14,240,0
1535463,92,4,232,0
1535474,75,1,227,0
1535485,55,2,226,0
1535496,44,0,221,0
1535507,38,1,220,0
1535518,37,1,220,0
1535529,34,4,223,0
1535540,32,8,229,0
1535551,13,19,224,0
1535562,9,24,223,0
1535573,5,29,217,0
1535584,6,28,216,0
1535595,11,32,216,0
1535606,18,35,215,0
1535617,20,34,216,0
1535628,24,31,219,0
1535639,32,34,224,0
1535650,40,35,229,0
1535661,47,34,230,0
1535672,55,33,231,0
1535683,58,34,232,0
1535694,56,32,231,0
1535705,54,31,231,0
1535716,47,34,227,0
1535728,46,30,225,0
1535738,41,33,223,0
1535749,42,35,220,0
1535760,42,33,222,0
1535771,43,39,226,0
1535782,42,39,229,0
1535793,40,40,230,0
1535804,35,41,230,0
1535815,31,43,227,0
1535826,23,45,225,0
1535837,14,48,224,0
1535848,5,56,224,0
1535859,0,59,228,0
1535870,-2,66,231,0
1535881,2,69,227,0
1535893,7,67,224,0
1535904,18,68,222,0
1535916,37,69,220,1
1535926,52,55,242,0
1535937,57,29,266,0
1535948,49,23,272,0
1535959,48,33,283,0
1535970,58,37,295,0
1535982,71,37,291,0
1535993,77,37,290,0
1536003,80,26,307,0
1536014,78,28,301,0
1536025,86,13,283,0
1536036,106,-3,241,0
1536048,116,-14,224,0
1536058,118,-24,204,0
1536069,115,-31,190,0
1536080,103,-30,173,0
1536092,93,-24,165,0
1536103,77,-21,167,0
1536114,66,-19,177,0
1536124,61,-15,193,0
1536135,51,-13,209,0
1536146,38,-11,227,0
1536157,27,-13,244,0
1536168,16,-7,264,0
1536180,16,-1,274,0
1536191,20,-4,267,0
1536201,25,-2,247,0
1536212,32,-8,230,0
1536223,36,-4,221,0
1536234,42,-1,221,0
1536245,50,-2,216,0
1536256,54,0,214,0
1536267,57,0,209,0
1536278,52,0,207,0
1536289,50,2,209,0
1536300,49,4,209,0
1536311,42,8,201,0
1536322,42,2,195,0
1536333,45,1,195,0
1536344,42,2,199,0
1536355,38,8,204,0
1536366,23,8,207,0
1536378,13,9,210,0
1536388,5,8,211,0
1536399,1,6,214,0
1536410,-4,4,212,0
1536422,-9,4,214,0
1536433,-6,3,214,0
1536444,-2,2,212,0
1536455,-1,5,211,0
1536466,4,9,217,0
1536478,6,16,223,0
1536488,4,18,229,0
1536499,1,14,230,0
1536510,-6,12,230,0
1536522,-16,13,244,1
1536532,-19,16,239,0
1536543,-24,23,233,0
1536554,-21,26,229,0
1536565,0,20,254,0
1536576,58,18,353,0
1536587,57,89,371,0
1536598,40,42,375,0
1536609,86,-13,387,0
1536620,119,6,400,0
1536631,107,6,374,0
1536642,94,-29,291,0
1536653,63,-42,228,0
1536664,48,-30,186,0
1536676,20,-34,133,0
1536687,10,-35,135,0
1536698,12,-27,144,0
1536709,22,-22,157,0
1536720,37,-21,170,0
1536731,51,-12,184,0
1536742,65,-7,198,0
1536753,81,-10,207,0
1536764,84,-15,209,0
1536775,71,-17,209,0
1536786,62,-13,218,0
1536797,52,-6,221,0
1536808,40,-1,220,0
1536819,33,-4,215,0
1536830,25,-2,210,0
1536841,20,0,209,0
1536853,19,3,211,0
1536863,24,4,211,0
1536875,28,2,207,0
1536885,29,-2,206,0
1536896,29,0,202,0
1536907,26,0,202,0
1536918,23,0,206,0
1536929,22,-2,203,0
1536940,17,-2,208,0
1536951,11,-1,214,0
1536962,5,1,220,0
1536973,2,1,223,0
1536984,0,5,228,0
1536995,0,5,230,0
1537006,1,9,236,0
1537017,0,11,235,0
1537028,1,10,233,0
1537039,6,9,235,0
1537050,10,9,232,0
1537061,11,7,228,0
1537072,12,5,222,0
1537083,7,7,217,0
1537095,5,8,215,0
1537105,5,10,216,0
1537116,3,9,216,0
1537128,0,13,218,0
1537138,-6,11,213,0
1537149,-9,8,213,0
1537160,-19,10,216,0
1537171,-24,9,220,0
1537182,-38,10,236,0
1537193,-46,8,244,0
1537205,-51,10,245,1
1537215,-18,22,227,0
1537226,-3,28,261,0
1537237,-40,-57,308,0
1537248,0,-42,271,0
1537259,11,18,236,0
1537270,3,1,274,0
1537281,18,-10,334,0
1537293,46,-7,333,0
1537303,71,2,329,0
1537314,110,18,316,0
1537325,141,22,291,0
1537336,151,13,253,0
1537347,161,24,196,0
1537358,155,33,189,0
1537369,141,40,178,0
1537380,126,36,168,0
1537391,106,31,178,0
1537403,79,26,201,0
1537413,41,23,223,0
1537424,10,17,246,0
1537435,-11,16,261,0
1537446,-22,21,272,0
1537457,-25,31,277,0
1537468,-15,25,266,0
1537479,-7,10,248,0
1537491,-6,11,219,0
1537501,2,7,211,0
1537512,7,20,214,0
1537523,11,15,208,0
1537534,14,15,202,0
1537545,18,12,200,0
1537556,23,10,197,0
1537567,23,6,191,0
1537578,32,3,197,0
1537589,33,5,196,0
1537600,29,2,193,0
1537611,23,1,195,0
1537622,19,2,200,0
1537633,16,1,200,0
1537644,12,0,200,0
1537655,6,-4,199,0
1537666,-1,-5,200,0
1537678,-14,-5,204,0
1537688,-15,-5,204,0
1537700,-17,0,203,0
1537711,-20,1,207,0
1537722,-23,1,215,0
1537733,-23,5,232,0
1537744,-33,9,242,0
1537755,-33,4,244,0
1537766,-29,7,243,0
1537778,-24,14,241,0
1537788,-28,41,255,0
1537799,-28,30,267,0
1537811,-21,15,270,1
1537821,-10,12,271,0
1537832,63,31,360,0
1537843,69,52,369,0
1537854,67,17,367,0
1537865,71,5,347,0
1537876,91,3,368,0
1537887,84,15,363,0
1537898,59,11,307,0
1537909,30,-9,230,0
1537921,13,-9,192,0
1537931,15,-32,178,0
1537942,15,-38,163,0
1537953,22,-47,150,0
1537964,29,-38,151,0
1537975,37,-28,162,0
1537987,49,-3,180,0
1537998,54,1,186,0
1538009,57,4,191,0
1538020,63,9,194,0
1538031,76,3,195,0
1538042,85,2,201,0
1538053,92,3,206,0
1538064,97,0,207,0
1538075,95,-4,210,0
1538086,94,-6,212,0
1538097,88,-9,209,0
1538108,82,-7,207,0
1538119,74,-9,201,0
1538130,59,-7,202,0
1538141,51,-5,210,0
1538153,37,6,225,0
1538163,35,10,226,0
1538174,30,13,225,0
1538185,24,13,225,0
1538196,22,8,221,0
1538208,20,11,218,0
1538218,22,14,220,0
1538229,21,15,219,0
1538240,23,12,221,0
1538251,23,10,220,0
1538262,23,7,221,0
1538273,20,6,222,0
1538284,15,6,225,0
1538295,13,6,230,0
1538306,10,9,232,0
1538317,5,15,231,0
1538328,1,16,225,0
1538340,1,16,223,0
1538351,3,16,222,0
1538362,4,11,219,0
1538373,5,7,219,0
1538384,4,2,219,0
1538395,10,-1,218,0
1538406,12,-7,216,0
1538417,16,-10,220,0
1538428,19,-7,221,0
1538439,21,-1,224,0
1538450,22,6,227,0
1538462,18,14,235,1
1538472,15,10,232,0
1538483,6,9,228,0
1538494,-4,10,221,0
1538505,-9,6,213,0
1538516,3,15,207,0
1538528,26,34,223,0
1538538,24,-6,275,0
1538549,28,-14,287,0
1538560,31,13,283,0
1538571,26,5,289,0
1538582,28,2,306,0
1538593,26,-2,312,0
1538604,23,-14,304,0
1538615,39,-3,300,0
1538626,59,4,286,0
1538637,90,11,245,0
1538648,96,9,214,0
1538659,113,2,187,0
1538670,121,0,165,0
1538681,114,1,143,0
1538693,105,0,132,0
1538703,98,-6,138,0
1538714,89,-5,152,0
1538725,78,0,172,0
1538736,67,5,192,0
1538747,45,9,221,0
1538758,18,14,256,0
1538769,2,27,293,0
1538780,2,26,319,0
1538792,1,28,316,0
1538803,6,17,280,0
1538813,11,11,262,0
1538824,16,9,246,0
1538835,19,9,232,0
1538846,22,10,221,0
1538857,26,8,216,0
1538868,34,3,215,0
1538879,38,4,216,0
1538891,41,7,219,0
1538901,40,6,218,0
1538912,38,4,213,0
1538923,35,8,209,0
1538934,31,8,208,0
1538945,23,10,209,0
1538956,13,11,213,0
1538968,1,10,212,0
1538979,-10,9,207,0
1538991,-19,7,198,0
1539001,-22,6,194,0
1539013,-20,3,193,0
1539023,-15,2,193,0
1539034,-10,3,194,0
1539045,-2,3,197,0
1539056,6,2,201,0
1539067,16,2,209,0
1539078,21,8,220,0
1539089,21,13,226,0
1539100,19,13,230,0
1539111,18,11,228,0
1539122,6,12,244,0
1539133,0,10,246,0
1539145,-11,11,245,1
1539155,-21,12,240,0
1539166,-28,11,248,0
1539178,-33,3,254,0
1539188,-14,-1,277,0
1539199,32,11,353,0
1539210,26,63,368,0
1539221,28,34,355,0
1539232,66,-15,333,0
1539243,95,-8,373,0
1539254,88,16,357,0
1539265,65,13,306,0
1539276,47,19,222,0
1539287,33,-47,165,0
1539298,26,-15,179,0
1539309,27,-65,146,0
1539320,46,-47,148,0
1539331,61,-42,148,0
1539342,67,-23,155,0
1539353,72,-14,170,0
1539364,74,-2,182,0
1539375,81,-1,192,0
1539386,90,0,200,0
1539397,97,-4,206,0
1539408,98,-9,213,0
1539419,101,-15,216,0
1539430,97,-16,214,0
1539441,88,-15,217,0
1539453,64,-14,219,0
1539463,49,-19,214,0
1539474,42,-19,215,0
1539485,31,-11,213,0
1539496,33,-8,214,0
1539507,36,-5,214,0
1539518,37,-1,219,0
1539529,36,0,224,0
1539540,39,0,225,0
1539551,35,4,223,0
1539562,27,2,222,0
1539573,23,2,219,0
1539584,20,2,218,0
1539595,14,4,216,0
1539606,12,1,218,0
1539617,6,4,224,0
1539628,6,4,234,0
1539639,7,3,239,0
1539650,8,3,240,0
1539661,12,1,238,0
1539672,13,2,236,0
1539683,12,3,235,0
1539694,12,5,231,0
1539705,11,3,228,0
1539716,8,1,224,0
1539728,4,1,221,0
1539739,2,0,221,0
1539749,2,-1,219,0
1539760,3,-4,219,0
1539771,6,-8,218,0
1539782,8,-13,214,0
1539793,7,-10,214,0
1539804,7,-5,217,0
1539815,8,0,225,0
1539827,7,5,228,1
1539837,6,8,230,0
1539848,2,13,230,0
1539859,-5,12,226,0
1539870,-13,13,226,0
1539881,-20,12,226,0
1539893,-26,8,227,0
1539903,-23,6,228,0
1539914,-3,-4,217,0
1539925,-10,-29,257,0
1539936,-7,-38,264,0
1539947,-6,-14,255,0
1539958,0,-5,255,0
1539970,11,11,270,0
1539980,7,0,278,0
1539992,20,-26,286,0
1540003,37,-20,281,0
1540013,53,-2,285,0
1540024,67,0,286,0
1540035,84,1,279,0
1540046,95,10,266,0
1540057,108,12,253,0
1540068,116,11,236,0
1540079,120,4,217,0
1540091,118,0,200,0
1540102,113,-11,189,0
1540112,109,-24,183,0
1540123,106,-37,170,0
1540134,106,-40,166,0
1540145,98,-42,164,0
1540156,97,-40,171,0
1540167,99,-37,182,0
1540178,99,-25,189,0
1540189,97,-10,204,0
1540200,90,0,232,0
1540211,73,11,258,0
1540222,63,25,288,0
1540233,50,39,306,0
1540244,30,38,297,0
1540255,20,38,295,0
1540266,12,29,279,0
1540279,8,28,263,0
1540289,9,16,250,0
1540300,13,14,233,0
1540311,17,5,218,0
1540322,22,2,207,0
1540333,28,-3,199,0
1540344,35,-11,194,0
1540356,40,-13,191,0
1540366,43,-10,192,0
1540378,44,-5,195,0
1540388,37,-4,200,0
1540399,29,-6,207,0
1540410,22,-10,216,0
1540421,12,-9,219,0
1540432,6,-11,221,0
1540443,0,-13,230,0
1540454,3,-15,228,0
1540465,9,-12,229,0
1540476,13,-11,225,0
1540487,18,-10,227,0
1540498,22,-14,233,0
1540510,30,-20,225,0
1540520,36,-12,210,0
1540531,31,-5,203,0
1540542,26,-3,205,0
1540553,22,-10,210,0
1540565,20,-4,216,1
1540575,18,-1,218,0
1540586,13,3,220,0
1540597,6,5,226,0
1540608,9,3,251,0
1540619,17,4,257,0
1540630,30,7,272,0
1540641,42,13,284,0
1540653,47,16,290,0
1540663,48,8,279,0
1540674,47,-4,262,0
1540685,44,-14,240,0
1540696,42,-17,222,0
1540707,36,-19,210,0
1540718,32,-21,204,0
1540729,32,-16,203,0
1540740,32,-9,206,0
1540751,36,-8,209,0
1540762,43,-7,211,0
1540773,57,-3,217,0
1540784,61,-3,224,0
1540795,62,-1,228,0
1540806,61,-6,236,0
1540817,62,-14,237,0
1540828,64,-14,236,0
1540839,58,-13,228,0
1540850,54,-15,221,0
1540861,57,-20,217,0
1540872,61,-17,214,0
1540883,60,-17,217,0
1540894,60,-15,217,0
1540905,58,-12,215,0
1540917,55,-6,220,0
1540928,51,3,220,0
1540938,49,2,228,0
1540949,49,2,229,0
1540960,51,2,227,0
1540972,51,3,226,0
1540982,58,5,224,0
1540993,64,8,223,0
1541004,70,10,223,0
1541015,73,14,221,0
1541026,76,17,221,0
1541037,75,17,223,0
1541048,74,16,222,0
1541059,75,14,220,0
1541070,76,17,222,0
1541081,75,16,222,0
1541093,74,13,223,0
1541103,67,12,225,0
1541114,52,15,231,0
1541125,47,18,234,0
1541136,43,21,234,0
1541147,40,25,233,0
1541158,39,23,233,0
1541169,39,25,232,0
1541180,40,24,226,0
1541192,42,24,226,0
1541203,42,23,225,0
1541213,49,20,224,0
1541224,52,20,222,0
1541235,54,21,224,0
1541246,54,18,228,0
1541257,52,19,228,0
1541268,52,21,224,0
1541279,49,22,231,0
1541291,46,25,232,0
1541301,46,25,232,0
1541312,45,23,232,0
1541323,43,22,233,0
1541334,44,22,232,0
1541345,45,21,229,0
1541356,43,22,226,0
1541367,45,21,225,0
1541378,47,21,224,0
1541389,47,22,225,0
1541400,47,20,226,0
1541411,44,22,228,0
1541422,43,23,229,0
1541433,43,21,228,0
1541444,44,27,227,0
1541455,47,30,230,0
1541466,52,31,230,0
1541478,57,31,229,0
1541488,59,30,226,0
1541499,60,26,223,0
1541510,58,24,221,0
1541521,56,23,220,0
1541532,52,24,221,0
1541543,51,26,222,0
1541554,54,25,226,0
1541565,55,29,227,0
1541576,57,27,228,0
1541587,58,30,231,0
1541598,59,30,231,0
1541609,57,31,226,0
1541620,57,29,222,0
1541631,60,33,219,0
1541642,60,33,220,0
1541653,62,34,222,0
1541664,63,29,226,0
1541675,64,29,225,0
1541687,62,30,223,0
1541697,58,31,223,0
1541708,55,33,223,0
1541719,53,31,224,0
1541730,55,35,226,0
1541741,57,35,225,0
1541753,56,31,225,0
1541763,53,23,225,0
1541774,47,10,223,0
1541785,46,10,228,0
1541796,45,14,230,0
1541807,44,21,232,0
1541818,39,26,233,0
1541829,39,28,234,0
1541840,40,31,235,0
1541851,45,35,230,0
1541862,44,35,228,0
1541874,44,33,227,1
1541884,42,33,224,0
1541895,40,31,225,0
1541906,34,30,226,0
1541917,33,31,228,0
1541928,33,31,228,0
1541939,42,25,220,0
1541950,50,11,222,0
1541961,54,-13,222,0
1541972,55,-24,208,0
1541983,52,-21,206,0
1541994,43,-13,219,0
1542005,40,4,228,0
1542016,42,19,231,0
1542028,51,34,233,0
1542038,56,45,232,0
1542049,60,47,229,0
1542060,67,42,229,0
1542071,81,32,223,0
1542082,96,21,214,0
1542093,115,12,211,0
1542104,123,4,201,0
1542115,127,-4,192,0
1542126,121,-3,196,0
1542137,113,0,205,0
1542149,99,0,216,0
1542159,85,1,227,0
1542170,74,4,235,0
1542181,65,12,241,0
1542193,59,15,242,0
1542203,56,15,241,0
1542214,54,14,239,0
1542225,57,11,233,0
1542236,62,7,225,0
1542247,67,7,218,0
1542258,74,3,215,0
1542269,78,3,216,0
1542280,83,2,219,0
1542291,83,4,218,0
1542303,80,3,219,0
1542313,77,1,221,0
1542324,77,1,224,0
1542335,73,2,227,0
1542346,69,1,228,0
1542357,67,1,230,0
1542368,66,2,228,0
1542379,63,4,227,0
1542391,63,4,226,0
1542401,62,6,224,0
1542412,64,6,219,0
1542423,64,7,219,0
1542434,64,9,217,0
1542445,67,10,219,0
1542456,66,10,222,0
1542467,68,9,223,0
1542478,67,8,223,0
1542489,65,11,227,0
1542500,67,10,225,0
1542511,68,10,224,0
1542522,70,10,221,0
1542533,71,9,219,0
1542544,69,7,218,0
1542555,69,5,219,0
1542566,67,7,218,0
1542578,67,7,220,0
1542588,69,7,221,0
1542599,72,8,219,0
1542610,75,9,218,0
1542621,79,12,218,0
1542632,82,12,219,0
1542643,83,9,218,0
1542654,88,7,220,0
1542665,91,7,219,0
1542676,93,6,217,0
1542687,94,8,216,0
1542698,95,6,215,0
1542709,97,6,215,0
1542720,100,5,214,0
1542731,101,5,214,0
1542742,102,6,215,0
1542753,102,6,214,0
1542764,103,8,213,0
1542775,104,8,214,0
1542786,105,5,214,0
1542798,110,5,212,0
1542808,113,6,209,0
1542819,118,4,209,0
1542830,118,6,209,0
1542841,121,6,209,0
1542853,122,7,210,0
1542863,121,5,211,0
1542874,119,4,210,0
1542885,118,2,210,0
1542896,120,2,210,0
1542907,119,2,209,0
1542918,121,2,210,0
1542929,122,1,211,0
1542940,123,0,207,0
1542951,124,-1,207,0
1542962,124,-2,206,0
1542973,126,0,204,0
1542984,128,2,207,0
1542995,127,2,206,0
1543006,125,1,201,0
1543018,123,2,201,0
1543028,120,2,202,0
1543039,118,4,202,0
1543050,120,2,202,0
1543061,122,1,205,0
1543072,126,0,206,0
1543083,126,0,206,0
1543094,125,0,208,0
1543105,120,0,210,0
1543116,117,1,211,0
1543128,113,1,211,0
1543138,112,0,212,0
1543149,111,-1,212,0
1543160,113,-4,213,0
1543171,116,-8,209,0
1543182,118,-8,207,0
1543193,121,-10,205,0
1543204,124,-9,202,0
1543215,126,-8,201,0
1543226,128,-8,202,0
1543237,130,-4,206,0
1543248,132,-4,205,0
1543259,130,-4,206,0
1543270,129,-1,208,0
1543281,126,-1,208,0
1543293,127,-3,207,0
1543303,127,-4,207,0
1543314,127,-3,204,0
1543325,126,-4,203,0
1543336,126,-5,204,0
1543348,127,-5,203,0
1543359,128,-1,201,0
1543370,130,-1,201,0
1543381,134,-3,200,0
1543393,140,-3,200,0
1543403,137,-1,202,0
1543414,137,2,204,0
1543425,126,3,215,0
1543436,122,7,212,0
1543447,121,10,209,0
1543458,123,5,208,0
1543469,126,0,201,0
1543480,133,0,195,0
1543492,140,0,194,0
1543503,144,-2,193,0
1543513,146,0,194,0
1543524,135,4,195,0
1543535,129,8,195,0
1543546,128,10,200,0
1543557,128,6,205,0
1543568,128,5,205,0
1543579,130,1,203,0
1543591,133,0,197,0
1543601,134,-1,193,0
1543612,133,1,193,0
1543623,134,-3,193,0
1543634,136,-3,196,0
1543645,139,-4,194,0
1543656,141,-5,195,0
1543667,141,-5,196,0
1543678,146,-4,199,0
1543689,147,-2,199,0
1543700,146,-9,194,0
1543711,147,-10,192,0
1543722,145,-13,192,0
1543733,139,-14,189,0
1543744,138,-17,187,0
1543755,143,-18,188,0
1543766,141,-19,190,0
1543778,142,-10,193,0
1543788,139,-3,196,0
1543799,137,-2,202,0
1543810,134,-4,200,0
1543821,133,-13,198,0
1543832,131,-13,194,0
1543843,130,-14,194,0
1543854,132,-18,192,0
1543865,133,-22,193,0
1543876,133,-18,194,0
1543887,133,-20,195,0
1543898,133,-18,194,0
1543909,133,-15,195,0
1543920,135,-14,194,0
1543931,141,-18,193,0
1543942,144,-18,193,0
1543953,145,-16,190,0
1543964,143,-20,190,0
1543975,143,-21,187,0
1543986,143,-23,187,0
1543997,143,-24,187,0
1544008,144,-23,185,0
1544019,147,-20,186,0
1544030,148,-22,186,0
1544043,149,-22,188,0
1544053,149,-21,190,0
1544064,147,-19,194,0
1544075,149,-20,196,0
1544086,142,-24,191,0
1544097,140,-28,188,0
1544108,140,-29,184,0
1544119,141,-30,184,0
1544130,145,-30,184,0
1544141,149,-28,187,0
1544153,149,-23,187,0
1544163,150,-23,187,0
1544174,148,-22,190,0
1544185,143,-21,190,0
1544196,141,-24,191,0
1544207,141,-22,191,0
1544218,141,-23,190,0
1544229,146,-26,191,0
1544240,155,-31,190,0
1544251,167,-33,188,0
1544262,169,-31,188,0
1544273,171,-30,188,0
1544284,172,-29,187,0
1544295,173,-28,186,0
1544306,173,-26,186,0
1544317,169,-26,183,0
1544329,163,-25,182,0
1544340,155,-25,180,0
1544350,150,-25,180,0
1544361,147,-25,180,0
1544372,146,-28,180,0
1544383,148,-29,181,0
1544394,152,-29,182,0
1544405,153,-27,180,0
1544417,152,-30,182,0
1544428,151,-27,183,0
1544438,150,-26,185,0
1544450,150,-25,187,0
1544460,149,-27,190,0
1544471,149,-27,191,0
1544482,146,-26,193,0
1544493,146,-28,195,0
1544504,144,-27,196,0
1544515,145,-28,196,0
1544526,145,-28,197,0
1544537,145,-25,198,0
1544548,145,-24,199,0
1544559,147,-26,199,0
1544570,145,-24,198,0
1544581,142,-25,195,0
1544593,143,-27,194,0
1544603,142,-23,193,0
1544614,139,-24,193,0
1544625,137,-22,193,0
1544636,135,-22,193,0
1544647,135,-21,195,0
1544658,136,-23,196,0
1544669,136,-21,194,0
1544680,138,-22,192,0
1544692,138,-23,192,0
1544703,138,-24,191,0
1544713,137,-24,192,0
1544724,137,-24,192,0
1544735,137,-20,194,0
1544746,134,-19,196,0
1544757,133,-20,197,0
1544768,132,-21,198,0
1544779,131,-19,201,0
1544791,129,-20,200,0
1544801,127,-19,201,0
1544812,127,-18,199,0
1544823,124,-20,198,0
1544834,123,-21,200,0
1544845,124,-17,200,0
1544856,122,-18,201,0
1544868,121,-15,205,0
1544878,119,-16,205,0
1544889,117,-15,206,0
1544900,114,-15,205,0
1544912,114,-16,208,0
1544922,111,-15,205,0
1544933,110,-15,205,0
1544944,110,-17,205,0
1544955,110,-14,203,0
1544966,112,-15,205,0
1544978,112,-14,206,0
1544988,113,-15,207,0
1544999,112,-12,208,0
1545010,112,-11,211,0
1545021,111,-12,212,0
1545032,110,-11,212,0
1545043,107,-14,211,0
1545054,103,-13,209,0
1545066,100,-13,208,0
1545076,97,-14,205,0
1545087,96,-10,207,0
1545098,98,-8,211,0
1545109,101,-9,215,0
1545120,104,-11,216,0
1545131,104,-11,217,0
1545142,107,-11,219,0
1545153,105,-10,217,0
1545164,104,-12,219,0
1545175,104,-9,219,0
1545186,104,-7,219,0
1545197,101,-5,219,0
1545208,101,-5,221,0
1545219,99,-5,225,0
1545230,100,-7,225,0
1545241,99,-8,226,0
1545253,97,-4,223,0
1545263,96,-4,223,0
1545274,96,-4,224,0
1545285,96,-3,223,0
1545296,98,-3,223,0
1545307,98,-2,224,0
1545318,101,-2,223,0
1545329,102,-2,222,0
1545340,104,-4,223,0
1545351,104,-2,223,0
1545362,99,-1,223,0
1545373,98,0,223,0
1545384,94,1,221,0
1545395,90,2,221,0
1545406,89,-1,219,0
1545417,85,1,225,0
1545429,83,-2,228,0
1545439,81,-1,230,0
1545450,72,2,225,0
1545461,63,3,220,0
1545472,56,3,219,0
1545483,51,2,218,0
1545494,46,6,216,0
1545505,39,1,213,0
1545516,36,1,208,0
1545528,37,0,207,0
1545538,36,0,209,0
1545549,34,0,201,0
1545560,38,-6,200,0
1545571,42,-5,201,0
1545582,49,-9,209,0
1545593,54,-6,216,0
1545604,52,-7,214,0
1545615,52,-9,214,0
1545626,52,-11,211,0
1545637,51,-14,212,0
1545648,50,-15,215,0
1545659,49,-15,218,0
1545670,48,-16,223,0
1545681,50,-18,225,0
1545693,47,-16,226,0
1545703,48,-18,232,0
1545715,50,-16,235,0
1545726,49,-19,235,0
1545737,49,-21,234,0
1545748,47,-21,232,0
1545759,44,-22,228,0
1545770,44,-25,223,0
1545781,44,-27,220,0
1545793,45,-29,220,0
1545803,46,-30,218,0
1545814,48,-30,219,0
1545825,52,-33,221,0
1545836,53,-37,221,0
1545847,57,-39,218,0
1545858,60,-40,216,0
1545869,62,-42,212,0
1545880,62,-45,206,0
1545891,63,-44,204,0
1545903,60,-43,198,0
1545913,58,-39,199,0
1545924,53,-39,202,0
1545935,50,-41,207,0
1545946,44,-41,211,0
1545957,41,-43,218,0
1545968,38,-44,223,0
1545979,32,-47,229,0
1545991,27,-54,234,0
1546001,26,-52,232,0
1546012,45,-60,229,0
1546023,47,14,267,0
1546035,54,19,291,1
1546045,58,28,310,0
1546056,69,30,335,0
1546067,107,29,340,0
1546078,110,6,313,0
1546090,96,0,266,0
1546100,86,-14,222,0
1546111,79,-5,196,0
1546122,75,-16,177,0
1546133,73,-20,170,0
1546144,69,-23,165,0
1546155,72,-21,176,0
1546166,76,-15,193,0
1546178,82,-4,207,0
1546188,80,4,215,0
1546199,75,17,218,0
1546210,67,32,216,0
1546221,63,37,210,0
1546232,52,32,202,0
1546243,51,35,201,0
1546254,51,39,208,0
1546266,52,38,214,0
1546276,55,39,222,0
1546287,57,37,230,0
1546298,58,35,229,0
1546309,58,35,228,0
1546320,58,34,228,0
1546331,56,35,228,0
1546342,53,33,231,0
1546353,51,30,228,0
1546364,49,31,227,0
1546375,44,30,225,0
1546386,47,36,224,0
1546397,50,32,219,0
1546408,50,28,218,0
1546419,49,22,220,0
1546430,48,18,223,0
1546441,46,17,221,0
1546453,48,14,220,0
1546463,50,13,223,0
1546474,47,17,225,0
1546485,41,18,224,0
1546496,32,19,227,0
1546507,22,23,227,0
1546518,14,21,233,0
1546529,13,24,237,0
1546540,11,27,238,0
1546551,7,29,237,0
1546562,3,28,239,0
1546573,2,24,234,0
1546584,3,21,231,0
1546595,3,23,230,0
1546606,7,24,229,0
1546617,9,23,228,0
1546628,10,21,224,0
1546639,6,21,220,0
1546650,2,19,221,0
1546661,0,20,224,0
1546672,-3,22,228,0
1546683,-6,22,228,0
1546694,-7,25,230,0
1546705,-8,25,232,0
1546716,-10,23,233,0
1546728,-9,16,233,0
1546738,-9,14,233,0
1546749,-10,12,233,0
1546760,-11,11,234,0
1546771,-10,12,234,0
1546782,-9,12,230,0
1546793,-4,9,227,0
1546804,-2,7,228,0
1546815,-3,5,227,0
1546826,-5,7,226,0
1546837,-5,7,224,0
1546848,-8,9,222,0
1546859,-7,4,221,0
1546870,-4,3,219,0
1546881,-1,4,219,0
1546893,1,5,221,0
1546903,3,5,220,0
1546914,5,4,220,0
1546925,8,4,221,0
1546937,10,1,225,1
1546947,11,-2,227,0
1546958,10,-3,230,0
1546969,8,-4,232,0
1546980,1,-1,231,0
1546992,-7,1,228,0
1547003,-4,9,221,0
1547013,8,18,222,0
1547024,-2,-15,249,0
1547035,5,-37,248,0
1547046,-3,-20,244,0
1547057,-19,-18,247,0
1547068,-12,3,284,0
1547079,-4,-5,300,0
1547091,8,9,319,0
1547101,23,25,340,0
1547112,54,53,344,0
1547123,78,61,336,0
1547134,103,60,323,0
1547145,121,47,298,0
1547156,126,37,264,0
1547167,124,23,227,0
1547178,114,6,191,0
1547189,98,-2,159,0
1547200,78,-11,141,0
1547211,65,-15,130,0
1547222,55,-11,131,0
1547233,37,4,161,0
1547244,28,7,180,0
1547255,16,10,207,0
1547266,8,5,229,0
1547278,8,15,250,0
1547288,13,19,254,0
1547299,20,19,263,0
1547310,22,14,263,0
1547321,30,8,260,0
1547332,36,10,254,0
1547343,39,5,244,0
1547354,40,6,236,0
1547365,46,5,223,0
1547376,49,2,214,0
1547387,53,1,209,0
1547398,50,-1,210,0
1547409,45,-1,213,0
1547420,38,-1,213,0
1547431,28,0,221,0
1547442,19,0,222,0
1547453,13,-4,220,0
1547464,9,-2,219,0
1547475,8,-2,220,0
1547486,6,-3,221,0
1547497,3,-1,221,0
1547508,2,-2,216,0
1547519,2,-1,217,0
1547530,3,-1,216,0
1547541,4,-1,213,0
1547553,5,1,215,0
1547563,5,4,222,0
1547574,7,6,224,0
1547585,9,8,225,0
1547596,8,8,227,0
1547607,9,7,231,0
1547618,11,8,225,0
1547629,12,6,218,0
1547640,11,16,217,0
1547651,13,12,224,0
1547662,16,11,233,0
1547673,21,8,237,0
1547684,27,1,236,0
1547695,30,-6,239,0
1547707,31,-8,244,0
1547717,29,-8,243,0
1547728,25,-5,235,0
1547739,10,-2,230,0
1547750,6,-7,222,0
1547761,13,-9,218,0
1547772,60,23,251,0
1547784,76,112,304,1
1547794,73,121,312,0
1547805,100,65,313,0
1547816,99,45,288,0
1547828,92,44,278,0
1547838,89,52,283,0
1547849,71,62,277,0
1547860,41,36,257,0
1547872,28,-8,239,0
1547883,24,-23,215,0
1547894,26,-11,218,0
1547905,25,8,227,0
1547917,24,48,242,0
1547928,30,73,229,0
1547938,36,86,199,0
1547949,43,78,175,0
1547960,51,74,162,0
1547971,61,70,165,0
1547982,66,67,175,0
1547994,72,62,176,0
1548004,78,63,183,0
1548015,84,63,191,0
1548026,90,61,201,0
1548037,93,57,206,0
1548048,91,50,201,0
1548059,86,45,203,0
1548070,82,42,208,0
1548081,75,38,216,0
1548093,69,39,225,0
1548103,67,41,234,0
1548114,65,43,234,0
1548125,65,44,235,0
1548136,64,43,235,0
1548147,62,41,236,0
1548158,61,46,233,0
1548169,59,48,234,0
1548180,57,46,235,0
1548192,55,42,233,0
1548203,57,40,230,0
1548213,61,38,228,0
1548224,64,37,229,0
1548235,66,38,230,0
1548246,67,39,228,0
1548257,68,38,223,0
1548268,69,35,220,0
1548279,69,31,218,0
1548291,68,29,216,0
1548301,67,29,219,0
1548312,61,35,219,0
1548323,56,36,223,0
1548334,51,35,225,0
1548345,43,39,226,0
1548356,39,36,231,0
1548367,35,37,236,0
1548378,33,36,235,0
1548389,35,38,231,0
1548400,36,33,228,0
1548411,36,30,226,0
1548422,36,31,224,0
1548433,34,30,225,0
1548444,33,33,228,0
1548455,32,34,232,0
1548466,29,33,236,0
1548478,28,32,236,0
1548488,25,32,233,0
1548499,25,35,231,0
1548510,25,35,230,0
1548521,24,37,229,0
1548532,24,37,227,0
1548543,25,40,227,0
1548554,28,42,225,0
1548565,26,41,226,0
1548576,27,40,228,0
1548587,26,44,228,0
1548598,26,43,230,0
1548609,28,41,228,0
1548620,29,42,225,0
1548631,31,41,225,0
1548642,31,41,225,0
1548653,30,42,226,0
1548664,30,46,227,0
1548675,28,47,229,0
1548686,30,47,230,0
1548697,31,47,230,0
1548708,34,47,229,0
1548720,39,47,229,0
1548730,41,44,228,0
1548741,42,42,228,0
1548753,45,44,227,0
1548763,46,44,225,0
1548774,49,44,226,0
1548785,49,43,225,0
1548796,50,42,225,0
1548807,47,43,223,0
1548818,47,42,225,0
1548829,46,42,224,0
1548840,48,43,225,0
1548851,50,44,224,0
1548862,48,44,224,0
1548873,48,44,222,0
1548884,49,44,223,0
1548895,49,46,224,0
1548906,46,45,224,0
1548917,45,44,225,0
1548929,44,45,228,0
1548940,45,45,227,0
1548951,45,45,226,0
1548962,45,44,227,0
1548973,45,44,226,0
1548984,46,43,226,0
1548995,46,43,224,0
1549006,45,46,224,0
1549017,45,43,225,0
1549028,44,44,226,0
1549039,40,41,225,0
1549050,39,42,225,0
1549061,36,41,225,0
1549072,35,39,224,0
1549083,35,38,224,0
1549094,37,36,223,0
1549105,37,36,221,0
1549116,40,29,216,0
1549128,46,17,212,0
1549139,54,6,209,1
1549149,62,-3,207,0
1549160,63,-9,204,0
1549171,61,-3,200,0
1549182,57,10,201,0
1549194,35,29,219,0
1549204,25,38,225,0
1549215,18,41,224,0
1549226,20,38,222,0
1549237,24,37,222,0
1549249,30,34,222,0
1549260,33,25,220,0
1549271,34,17,221,0
1549282,37,13,223,0
1549294,37,14,227,0
1549304,38,10,230,0
1549315,37,10,231,0
1549326,36,8,228,0
1549337,37,2,225,0
1549348,37,-13,233,0
1549359,36,-17,247,0
1549370,32,-18,256,0
1549381,23,-15,263,0
1549393,14,-7,273,0
1549403,6,-5,280,0
1549414,2,-1,284,0
1549425,2,1,285,0
1549436,11,0,282,0
1549447,17,-4,272,0
1549458,27,-15,261,0
1549469,37,-25,244,0
1549480,43,-32,227,0
1549492,44,-36,208,0
1549503,44,-37,198,0
1549513,38,-35,195,0
1549524,36,-33,201,0
1549535,30,-31,202,0
1549546,24,-28,210,0
1549557,10,-28,207,0
1549568,-2,-13,217,0
1549579,-10,0,235,0
1549591,-18,4,243,0
1549601,-27,9,242,0
1549612,-34,13,239,0
1549623,-40,16,238,0
1549634,-41,16,225,0
1549645,-43,19,227,0
1549656,-39,19,225,0
1549667,-33,21,229,0
1549678,-27,23,240,0
1549689,-21,28,244,0
1549700,-15,32,245,0
1549711,-10,33,248,0
1549722,-6,34,247,0
1549733,-2,33,247,0
1549744,-2,28,245,0
1549755,-1,23,241,0
1549766,-1,19,234,0
1549778,-1,15,228,0
1549788,-3,12,222,0
1549799,-4,11,219,0
1549810,-5,9,216,0
1549821,-6,9,212,0
1549832,-5,10,215,0
1549843,-4,10,217,0
1549854,-4,10,223,0
1549865,-5,13,225,0
1549876,-9,15,228,0
1549887,-11,18,229,0
1549898,-12,18,227,0
1549909,-12,17,228,0
1549920,-11,15,227,0
1549932,-9,13,227,0
1549942,-6,13,226,0
1549953,-3,12,228,0
1549964,-1,10,228,0
1549975,1,7,223,0
1549986,4,2,226,0
1549997,7,2,224,0
1550008,8,4,225,0
1550019,11,6,231,0
1550031,18,0,237,1
1550041,66,-17,275,0
1550053,118,5,356,0
1550063,97,47,326,0
1550074,92,1,281,0
1550085,72,-1,236,0
1550096,54,-4,225,0
1550107,61,-11,244,0
1550118,80,-6,271,0
1550129,71,5,280,0
1550140,56,2,267,0
1550151,45,-1,264,0
1550162,34,2,254,0
1550174,22,2,224,1
1550184,-1,-23,182,0
1550195,3,-24,183,0
1550206,12,-20,191,0
1550217,20,-12,199,0
1550228,31,-12,206,0
1550239,44,-10,213,0
1550250,57,-11,218,0
1550261,67,-11,222,0
1550272,75,-11,221,0
1550283,77,-6,218,0
1550294,66,69,161,0
1550305,79,-135,260,0
1550316,87,5,202,0
1550328,81,-29,215,0
1550338,72,-11,212,0
1550349,70,-10,213,0
1550360,68,-16,213,0
1550371,67,-15,213,0
1550382,68,-20,210,0
1550394,72,-21,211,0
1550404,76,-21,211,0
1550416,82,-21,209,0
1550426,91,-23,217,0
1550437,97,-23,216,0
1550448,94,-18,220,0
1550459,88,-17,223,0
1550470,76,-19,219,0
1550481,66,-15,216,0
1550493,59,-11,216,0
1550503,51,-9,219,0
1550514,41,-3,227,0
1550525,43,-5,227,0
1550536,44,-5,224,0
1550547,44,-5,221,0
1550558,45,-3,223,0
1550569,49,-3,221,0
1550580,51,-5,220,0
1550592,54,-7,220,0
1550603,50,-5,221,0
1550613,50,-6,222,0
1550624,49,-6,226,0
1550635,48,-4,227,0
1550646,46,-1,231,0
1550657,41,-1,232,0
1550668,39,-4,231,0
1550679,34,-5,232,0
1550691,31,-2,235,0
1550701,28,-1,233,0
1550712,26,-3,233,0
1550723,23,-2,232,0
1550734,20,-1,231,0
1550745,19,-1,234,0
1550756,19,-1,234,0
1550767,19,-1,234,0
1550778,18,0,233,0
1550789,15,1,231,0
1550800,14,4,228,0
1550811,13,8,223,0
1550822,10,17,221,0
1550833,10,24,218,0
1550845,3,31,215,1
1550855,-1,27,216,0
1550867,-1,12,214,0
1550878,6,-12,214,0
1550889,20,-31,212,0
1550900,47,-45,188,0
1550911,56,-63,184,0
1550922,53,-58,179,0
1550933,25,-64,194,0
1550944,0,-52,201,0
1550955,-14,-25,211,0
1550966,-2,-8,224,0
1550978,33,2,240,0
1550988,64,18,256,0
1550999,118,44,277,0
1551010,132,38,272,0
1551021,145,31,265,0
1551032,145,18,250,0
1551043,137,7,235,0
1551054,127,8,225,0
1551065,111,3,223,0
1551076,92,-4,225,0
1551087,73,-13,226,0
1551098,63,-18,237,0
1551109,48,-23,241,0
1551120,38,-24,248,0
1551131,34,-26,247,0
1551142,33,-28,244,0
1551153,33,-27,241,0
1551164,45,-17,235,0
1551175,56,-11,236,0
1551186,63,-3,239,0
1551197,65,1,237,0
1551208,64,4,233,0
1551220,60,3,231,0
1551231,52,0,230,0
1551242,45,-5,227,0
1551253,33,-6,224,0
1551264,27,-6,223,0
1551275,22,-6,222,0
1551286,18,-5,221,0
1551297,17,-3,222,0
1551308,16,-3,224,0
1551319,19,-5,222,0
1551330,21,-9,222,0
1551341,25,-8,222,0
1551353,30,-7,224,0
1551363,30,-7,225,0
1551374,33,-5,227,0
1551385,36,-5,231,0
1551396,37,-1,232,0
1551407,39,0,231,0
1551418,40,0,228,0
1551429,41,0,227,0
1551440,42,0,224,0
1551451,43,-1,223,0
1551462,45,0,223,0
1551473,43,-1,223,0
1551484,42,-5,226,0
1551495,41,-6,226,0
1551506,39,-10,226,0
1551517,39,-10,229,0
1551528,40,-12,228,0
1551539,40,-11,229,0
1551550,41,-9,232,0
1551561,40,-8,233,0
1551572,40,-8,233,0
1551583,38,-9,233,0
1551594,36,-12,231,0
1551605,35,-13,231,0
1551616,35,-15,224,0
1551628,34,-15,223,0
1551638,33,-15,222,0
1551649,29,-14,225,0
1551660,27,-14,224,0
1551671,26,-14,225,0
1551682,25,-16,226,0
1551694,24,-16,228,0
1551704,24,-15,229,0
1551715,24,-12,234,0
1551726,24,-12,239,0
1551737,28,-11,243,0
1551748,32,-9,245,0
1551759,37,-7,244,0
1551770,39,-5,237,0
1551781,38,-4,234,0
1551793,39,-6,232,0
1551803,43,-5,229,0
1551814,50,-13,224,0
1551825,52,-18,221,0
1551836,52,-20,216,0
1551847,52,-19,216,0
1551858,52,-15,213,0
1551869,42,-14,214,0
1551880,31,-18,219,0
1551892,17,-18,224,0
1551903,4,-15,224,0
1551913,-4,-18,223,0
1551924,-6,-24,222,0
1551935,-9,-25,227,0
1551946,-10,-26,227,0
1551957,-9,-27,225,0
1551968,-6,-28,225,0
1551979,-9,-26,229,0
1551991,-7,-27,231,0
1552001,-3,-28,225,0
1552012,-2,-30,218,0
1552023,0,-32,209,0
1552034,0,-34,205,0
1552045,1,-37,200,0
1552056,2,-35,198,0
1552067,2,-32,198,0
1552079,2,-29,202,1
1552089,3,-22,211,0
1552100,6,-17,224,0
1552111,20,-6,255,0
1552122,27,12,284,0
1552133,34,25,291,0
1552144,58,30,333,0
1552155,53,41,334,0
1552166,47,28,319,0
1552178,35,2,277,0
1552188,28,-22,230,0
1552199,19,-26,203,0
1552210,13,-29,189,0
1552221,13,-37,181,0
1552232,17,-40,186,0
1552243,24,-37,190,0
1552254,28,-31,201,0
1552265,35,-22,217,0
1552276,35,-14,229,0
1552287,34,-6,243,0
1552298,36,-7,244,0
1552309,46,0,230,0
1552320,49,-1,225,0
1552331,49,-1,226,0
1552342,51,-6,228,0
1552353,59,-15,224,0
1552364,61,-11,219,0
1552375,59,-14,215,0
1552386,60,-17,215,0
1552397,59,-13,215,0
1552408,57,-11,219,0
1552419,52,-9,218,0
1552430,45,-13,219,0
1552442,42,-16,219,0
1552453,39,-17,220,0
1552463,38,-19,220,0
1552474,41,-20,214,0
1552485,43,-18,210,0
1552496,47,-20,213,0
1552507,52,-15,215,0
1552518,57,-17,216,0
1552529,63,-14,221,0
1552540,61,-8,229,0
1552551,61,-8,230,0
1552562,57,-5,229,0
1552573,53,-2,228,0
1552584,53,-1,227,0
1552595,51,0,228,0
1552606,52,2,228,0
1552617,52,5,226,0
1552628,52,6,227,0
1552639,52,12,226,0
1552650,52,10,227,0
1552661,51,9,225,0
1552672,50,8,226,0
1552683,49,9,227,0
1552694,52,9,229,0
1552705,52,12,231,0
1552716,47,12,231,0
1552728,42,12,233,0
1552738,39,11,236,0
1552749,34,10,236,0
1552760,34,12,235,0
1552771,33,12,234,0
1552782,31,11,233,0
1552794,33,5,234,0
1552804,38,1,228,0
1552815,40,0,226,0
1552826,42,-2,224,0
1552837,45,0,226,0
1552848,47,2,227,0
1552859,48,3,228,0
1552870,46,4,229,0
1552881,45,1,231,0
1552893,43,2,231,0
1552903,39,3,233,0
1552915,34,5,232,0
1552926,28,5,232,0
1552937,22,4,231,0
1552948,17,4,231,0
1552959,11,3,231,0
1552970,10,1,228,0
1552981,13,4,227,0
1552993,15,7,229,0
1553003,18,8,232,0
1553014,21,8,233,0
1553025,25,6,232,0
1553036,27,6,231,0
1553047,29,3,229,0
1553058,28,2,228,0
1553069,25,1,226,0
1553080,22,4,226,0
1553092,18,3,226,0
1553103,15,2,229,0
1553113,13,3,229,0
1553124,2,4,225,0
1553135,-2,5,227,0
1553146,-6,6,227,0
1553157,-9,5,228,0
1553168,-9,8,230,0
1553179,-9,5,235,0
1553191,-6,2,236,0
1553201,-3,2,232,0
1553212,0,0,229,0
1553223,1,-1,225,0
1553234,1,0,223,0
1553245,1,-3,222,0
1553256,1,-7,223,0
1553267,1,-11,223,0
1553278,0,-14,225,0
1553290,-9,-16,223,1
1553300,-12,-17,219,0
1553312,-14,-16,218,0
1553322,-1,-7,210,0
1553333,27,8,218,0
1553344,29,-23,252,0
1553355,34,-41,253,0
1553366,17,-38,240,0
1553378,4,-31,236,0
1553388,8,-24,241,0
1553399,22,-4,256,0
1553410,38,-1,260,0
1553421,58,2,256,0
1553433,67,9,261,1
1553443,73,14,264,0
1553454,80,41,279,0
1553465,81,59,281,0
1553476,83,62,275,0
1553487,83,56,263,0
1553498,83,39,248,0
1553509,87,23,226,0
1553520,88,8,202,0
1553531,87,3,186,0
1553542,85,8,179,0
1553553,80,14,178,0
1553564,70,19,181,0
1553575,64,19,188,0
1553586,63,31,192,0
1553597,60,35,201,0
1553608,61,35,215,0
1553619,56,43,236,0
1553630,48,38,239,0
1553641,39,35,241,0
1553653,32,34,245,0
1553663,22,34,253,0
1553674,15,29,254,0
1553685,11,23,252,0
1553696,10,17,245,0
1553707,11,16,242,0
1553718,15,11,243,0
1553729,19,6,240,0
1553740,26,3,234,0
1553751,30,0,231,0
1553762,32,-1,226,0
1553773,39,-3,223,0
1553784,38,-5,217,0
1553795,33,-4,212,0
1553806,25,-5,209,0
1553817,15,-2,210,0
1553828,7,-26,222,0
1553839,24,10,222,0
1553850,-9,37,206,0
1553861,-30,-2,207,0
1553872,-26,4,217,0
1553883,-26,8,220,0
1553894,-25,8,220,0
1553905,-23,5,221,0
1553917,-17,7,223,0
1553928,-13,9,224,0
1553938,-8,11,228,0
1553949,1,18,232,0
1553960,2,17,231,0
1553971,0,12,226,0
1553982,0,5,221,0
1553994,-3,1,217,0
1554004,-6,-1,211,0
1554015,-10,-3,209,0
1554026,-13,-2,212,0
1554037,-13,-5,213,0
1554048,-11,-8,216,0
1554059,-7,-6,215,0
1554070,-5,-2,213,0
1554081,-8,0,214,0
1554093,-9,0,217,0
1554103,-12,1,220,0
1554114,-21,10,230,0
1554125,-24,7,236,0
1554136,-8,-2,258,0
1554148,56,-28,343,0
1554158,87,53,395,0
1554170,77,41,385,1
1554180,89,-29,332,0
1554192,85,-33,285,0
1554203,110,-34,316,0
1554213,115,-4,325,0
1554224,86,-1,297,0
1554235,74,-15,272,0
1554246,43,-18,232,0
1554257,5,-28,198,0
1554268,-10,-50,165,0
1554279,-29,-19,127,0
1554292,27,-49,145,0
1554303,27,-10,182,0
1554313,49,-37,175,0
1554324,60,-4,185,0
1554335,81,-3,198,0
1554346,90,12,211,0
1554357,98,13,222,0
1554368,97,16,225,0
1554379,97,7,225,0
1554391,97,3,225,0
1554401,90,0,219,0
1554412,82,-5,214,0
1554423,71,-3,209,0
1554434,67,-6,208,0
1554445,66,-8,206,0
1554456,64,-13,206,0
1554467,64,-9,210,0
1554478,62,-4,210,0
1554489,57,-3,213,0
1554500,52,-4,215,0
1554511,52,0,219,0
1554522,50,1,222,0
1554533,48,5,226,0
1554544,43,6,228,0
1554555,36,8,231,0
1554566,29,9,232,0
1554578,22,12,232,0
1554588,15,10,229,0
1554599,7,7,224,0
1554610,5,6,221,0
1554621,4,4,219,0
1554632,1,2,221,0
1554643,2,2,223,0
1554654,3,4,226,0
1554665,7,2,227,0
1554676,11,3,228,0
1554687,14,1,225,0
1554698,15,0,226,0
1554709,13,1,226,0
1554720,14,-1,224,0
1554731,11,-2,224,0
1554742,7,-3,224,0
1554753,4,-6,222,0
1554764,2,-5,224,0
1554775,3,-5,225,0
1554786,6,-3,223,0
1554797,9,-2,223,0
1554808,12,-1,222,0
1554819,13,-2,221,0
1554830,13,0,220,0
1554841,17,0,222,0
1554853,18,2,222,0
1554863,20,3,222,0
1554874,20,3,223,0
1554885,19,4,225,0
1554896,14,2,227,0
1554907,10,1,229,0
1554918,7,0,230,0
1554929,4,-1,231,0
1554941,-3,3,234,1
1554951,-8,5,232,0
1554962,-2,16,225,0
1554973,29,46,215,0
1554984,8,-6,269,0
1554995,15,-31,267,0
1555006,7,-2,254,0
1555017,-16,-12,254,0
1555028,-9,22,263,0
1555039,-11,26,284,0
1555052,-9,-13,306,0
1555062,-8,-20,311,0
1555073,1,-5,316,0
1555084,72,35,315,0
1555095,100,44,298,0
1555106,122,40,269,0
1555117,139,37,240,0
1555128,147,25,205,0
1555140,150,5,170,0
1555150,154,-5,149,0
1555161,142,-15,133,0
1555172,127,-24,127,0
1555183,115,-23,139,0
1555194,99,-19,151,0
1555206,83,-6,173,0
1555217,67,2,195,0
1555228,54,12,218,0
1555239,30,19,257,0
1555250,21,25,270,0
1555261,14,30,274,0
1555272,16,24,272,0
1555283,17,24,267,0
1555294,22,20,254,0
1555306,24,17,239,0
1555316,23,14,224,0
1555328,25,13,219,0
1555338,28,11,217,0
1555349,32,13,212,0
1555360,36,17,214,0
1555371,38,16,216,0
1555382,36,16,219,0
1555394,29,18,220,0
1555404,13,6,222,0
1555416,11,7,229,0
1555426,7,7,227,0
1555437,3,5,220,0
1555448,3,5,213,0
1555459,0,2,205,0
1555470,0,-1,204,0
1555481,1,0,202,0
1555493,1,-1,192,0
1555503,4,2,183,0
1555514,5,6,186,0
1555525,4,13,202,0
1555536,-1,16,222,0
1555547,-6,18,233,0
1555558,-16,26,229,0
1555569,-29,33,231,0
1555580,-32,33,239,0
1555593,-36,35,254,0
1555603,-44,43,259,0
1555614,-51,30,259,0
1555625,-43,14,266,0
1555637,-30,3,265,1
1555647,-7,-6,268,0
1555658,36,0,318,0
1555669,57,33,337,0
1555680,51,23,325,0
1555692,55,-4,306,0
1555703,59,0,296,0
1555713,68,3,307,0
1555724,70,12,299,0
1555735,62,13,270,0
1555748,55,6,231,0
1555758,32,-5,194,0
1555769,23,-22,172,0
1555780,27,-26,160,0
1555792,33,-23,156,1
1555803,31,-18,161,0
1555813,34,-18,171,0
1555824,43,-18,183,0
1555835,54,-15,187,0
1555846,61,-10,192,0
1555857,66,0,202,0
1555868,79,-2,224,0
1555879,75,-5,223,0
1555891,71,-6,220,0
1555901,73,2,223,0
1555912,73,7,220,0
1555923,64,2,216,0
1555934,51,-2,206,0
1555945,42,-13,203,0
1555956,33,-10,211,0
1555967,34,-3,222,0
1555978,34,2,230,0
1555989,43,4,232,0
1556000,47,5,228,0
1556011,45,9,226,0
1556023,45,8,226,0
1556033,30,8,220,0
1556044,21,9,219,0
1556055,12,7,219,0
1556066,5,7,219,0
1556078,0,6,222,0
1556088,-1,5,224,0
1556099,-3,6,225,0
1556110,-6,4,232,0
1556121,-4,4,233,0
1556132,-5,2,232,0
1556143,-4,0,229,0
1556154,-4,-1,227,0
1556165,-5,-1,225,0
1556176,-3,0,224,0
1556187,-1,-3,223,0
1556198,4,-2,222,0
1556209,13,-1,222,0
1556220,16,-1,222,0
1556231,18,0,222,0
1556242,20,0,222,0
1556253,22,0,224,0
1556264,21,1,223,0
1556275,20,3,221,0
1556286,17,3,222,0
1556297,14,7,219,0
1556308,11,9,220,0
1556319,7,10,222,0
1556330,4,10,226,0
1556341,2,7,233,0
1556353,0,7,239,0
1556363,-1,5,244,0
1556374,-10,2,248,0
1556385,-15,3,248,0
1556397,-20,3,250,1
1556407,-22,2,246,0
1556418,-23,2,246,0
1556429,-26,0,241,0
1556440,-28,0,233,0
1556451,-18,2,223,0
1556462,2,8,225,0
1556473,-1,-12,258,0
1556484,-2,-17,265,0
1556495,-7,1,256,0
1556506,-16,1,253,0
1556517,-5,9,256,0
1556528,6,23,258,0
1556539,16,8,257,0
1556550,21,10,254,0
1556561,32,10,255,0
1556572,50,13,256,0
1556583,66,16,249,0
1556595,80,19,239,0
1556605,95,12,216,0
1556616,107,10,192,0
1556628,112,7,165,0
1556638,115,2,144,0
1556649,117,2,156,0
1556660,112,-3,176,0
1556671,103,0,191,0
1556682,88,6,204,0
1556693,67,15,230,0
1556704,33,13,298,0
1556715,18,16,309,0
1556726,4,24,307,0
1556737,-1,18,293,0
1556748,-1,14,276,0
1556759,1,11,256,0
1556770,0,11,242,0
1556781,1,5,226,0
1556793,4,6,219,0
1556803,6,9,214,0
1556814,11,13,211,0
1556825,14,11,208,0
1556836,21,10,203,0
1556847,29,8,202,0
1556858,31,8,198,0
1556869,34,6,195,0
1556880,35,6,194,0
1556891,30,3,197,0
1556903,24,1,201,0
1556914,16,0,207,0
1556924,10,1,211,0
1556935,7,1,211,0
1556946,6,0,210,0
1556957,6,0,207,0
1556968,5,0,208,0
1556979,7,1,213,0
1556991,12,2,221,0
1557001,14,2,226,0
1557012,14,7,228,0
1557023,11,8,226,0
1557034,6,25,236,0
1557045,-2,29,239,0
1557056,-2,17,240,0
1557067,-3,10,238,0
1557078,0,9,234,0
1557089,1,11,231,0
1557100,2,11,231,0
1557111,3,14,231,0
1557122,0,13,232,0
1557133,-6,7,240,0
1557144,-13,1,246,0
1557155,-18,-6,246,0
1557166,-24,-11,246,0
1557178,-29,-11,244,0
1557188,-37,-12,243,0
1557199,-48,-18,248,0
1557210,-24,-28,257,0
1557221,38,-18,323,0
1557232,37,59,338,0
1557243,41,26,305,0
1557255,73,2,293,1
1557265,74,15,284,0
1557276,104,2,307,0
1557287,136,22,336,0
1557298,127,44,323,0
1557309,102,17,291,0
1557320,74,-11,240,0
1557331,34,-25,196,0
1557342,-3,-19,161,0
1557354,-13,-27,143,0
1557364,-4,-37,139,0
1557375,12,-32,155,0
1557386,34,-16,177,0
1557397,48,0,195,0
1557408,61,13,214,0
1557419,75,22,225,0
1557430,83,28,229,0
1557441,84,28,236,0
1557453,82,24,239,0
1557463,76,18,227,0
1557474,60,12,227,0
1557485,46,1,223,0
1557496,41,1,223,0
1557507,48,-1,217,0
1557518,46,-10,203,0
1557529,48,-5,206,0
1557540,54,0,212,0
1557551,51,1,215,0
1557562,50,2,219,0
1557573,48,8,223,0
1557584,42,13,228,0
1557596,38,14,233,0
1557606,36,13,233,0
1557617,33,9,228,0
1557628,25,6,222,0
1557639,21,1,217,0
1557650,13,-4,210,0
1557661,5,-3,212,0
1557672,-1,-4,214,0
1557683,-6,-6,217,0
1557694,-8,-5,221,0
1557705,-11,1,229,0
1557716,-12,3,232,0
1557728,-13,4,237,0
1557738,-11,4,237,0
1557749,-10,4,234,0
1557760,-7,4,228,0
1557771,-5,4,223,0
1557782,-2,5,220,0
1557793,1,5,218,0
1557804,5,2,217,0
1557815,9,0,216,0
1557826,17,0,216,0
1557837,21,-1,219,0
1557848,25,-1,224,0
1557859,22,-2,223,0
1557870,15,0,223,0
1557881,11,1,225,0
1557893,4,4,224,0
1557903,1,4,223,0
1557914,-3,3,222,0
1557925,-8,3,219,0
1557936,-12,4,212,0
1557947,-9,3,208,0
1557958,4,1,205,0
1557970,17,-5,223,1
1557980,21,-22,238,0
1557992,18,-25,242,0
1558003,5,-11,255,0
1558013,-11,0,284,0
1558024,-19,2,309,0
1558036,1,40,323,0
1558046,24,51,320,0
1558057,56,58,311,0
1558068,85,59,294,0
1558079,109,50,274,0
1558091,119,35,253,0
1558101,127,18,238,0
1558112,120,5,219,0
1558123,106,-2,198,0
1558134,91,-9,186,0
1558145,73,-11,177,0
1558156,57,-9,169,0
1558167,43,-6,167,0
1558178,32,-2,164,0
1558189,31,1,163,0
1558200,47,5,170,0
1558211,58,9,177,0
1558222,65,9,184,0
1558233,79,5,199,0
1558244,89,4,214,0
1558255,94,2,227,0
1558266,95,4,236,0
1558278,80,10,247,0
1558288,66,18,264,0
1558299,52,23,277,0
1558310,37,30,282,0
1558321,25,29,275,0
1558332,15,24,264,0
1558343,13,23,257,0
1558354,12,25,252,0
1558365,16,20,244,0
1558376,20,18,242,0
1558387,27,16,241,0
1558398,33,15,237,0
1558409,39,14,234,0
1558420,46,12,232,0
1558431,52,10,227,0
1558442,53,9,224,0
1558453,51,11,226,0
1558464,49,13,224,0
1558475,49,14,225,0
1558486,49,17,225,0
1558497,49,20,221,0
1558508,42,22,219,0
1558519,36,27,219,0
1558530,25,27,216,0
1558541,21,26,223,0
1558553,15,21,227,0
1558563,11,21,228,0
1558574,11,21,233,0
1558585,16,28,229,0
1558596,15,32,230,0
1558607,19,33,234,0
1558618,22,28,238,0
1558629,27,30,239,0
1558640,30,38,235,0
1558651,29,37,233,0
1558662,29,36,234,0
1558673,26,29,233,0
1558684,27,24,235,0
1558695,23,22,236,0
1558706,20,15,231,0
1558717,14,10,231,0
1558728,13,4,234,0
1558739,11,2,230,0
1558750,2,7,227,0
1558761,-7,6,224,0
1558772,-17,5,222,0
1558784,-21,7,208,1
1558794,-25,17,194,0
1558805,-12,20,186,0
1558816,13,38,202,0
1558828,21,83,219,0
1558838,21,98,205,0
1558849,54,66,238,0
1558860,81,104,318,0
1558871,77,83,306,0
1558882,70,49,277,0
1558893,54,18,246,0
1558904,41,2,231,0
1558916,38,-1,213,0
1558926,27,-5,193,0
1558937,28,-5,187,0
1558948,40,-1,192,0
1558959,49,6,199,0
1558971,56,16,205,0
1558981,57,19,212,0
1558993,65,24,215,0
1559003,70,30,215,0
1559014,79,33,216,0
1559025,87,33,217,0
1559036,90,29,220,0
1559047,92,28,215,0
1559058,94,27,213,0
1559069,88,26,210,0
1559080,83,18,219,0
1559092,78,17,217,0
1559103,70,16,219,0
1559113,61,21,219,0
1559124,52,22,219,0
1559135,44,23,224,0
1559146,38,23,232,0
1559157,25,28,241,0
1559168,19,29,246,0
1559179,19,30,243,0
1559191,25,34,233,0
1559201,30,39,230,0
1559212,35,40,230,0
1559223,41,39,224,0
1559234,48,36,219,0
1559245,53,34,217,0
1559256,57,31,213,0
1559267,63,29,214,0
1559278,68,27,215,0
1559289,71,26,219,0
1559300,73,29,224,0
1559311,70,28,227,0
1559322,68,29,228,0
1559333,65,28,227,0
1559344,61,31,229,0
1559355,52,31,230,0
1559366,49,30,231,0
1559378,46,30,229,0
1559388,47,30,229,0
1559399,45,30,226,0
1559410,42,32,226,0
1559421,39,33,226,0
1559432,36,34,226,0
1559443,32,37,226,0
1559454,31,35,227,0
1559465,27,31,227,0
1559476,25,27,228,0
1559487,26,30,227,0
1559498,24,36,225,0
1559509,25,40,225,0
1559520,27,46,224,0
1559531,24,50,226,0
1559542,26,50,226,0
1559553,27,47,226,0
1559564,27,48,224,0
1559575,26,45,220,0
1559586,23,45,216,0
1559597,21,46,213,0
1559608,20,46,212,0
1559619,20,50,212,0
1559631,22,46,213,1
1559642,25,48,215,0
1559653,30,42,221,0
1559663,39,36,222,0
1559674,46,37,217,0
1559685,64,23,201,0
1559696,74,17,198,0
1559707,77,14,206,0
1559718,69,16,214,0
1559729,65,14,214,0
1559740,61,26,222,0
1559751,68,48,232,0
1559762,73,62,253,0
1559773,85,65,278,0
1559784,96,71,299,0
1559795,102,72,308,0
1559806,112,59,306,0
1559817,114,46,301,0
1559828,105,38,285,0
1559839,93,28,265,0
1559850,68,4,226,0
1559861,58,-8,210,0
1559872,50,-17,201,0
1559883,44,-18,196,0
1559894,41,-17,195,0
1559905,42,-13,206,0
1559917,47,-8,215,0
1559928,56,-4,226,0
1559938,60,1,238,0
1559949,62,3,246,0
1559960,63,3,248,0
1559971,62,5,249,0
1559982,63,5,248,0
1559993,64,6,241,0
1560004,64,7,230,0
1560015,57,13,224,0
1560026,48,14,221,0
1560037,46,14,215,0
1560048,47,16,214,0
1560059,46,19,213,0
1560071,45,24,215,0
1560081,42,22,217,0
1560093,38,21,216,0
1560103,35,22,214,0
1560114,34,25,215,0
1560126,35,26,220,0
1560136,33,26,222,0
1560147,31,26,221,0
1560158,29,25,222,0
1560169,22,26,221,0
1560180,16,21,219,0
1560192,12,18,220,0
1560203,10,17,220,0
1560213,8,18,217,0
1560224,5,17,215,0
1560235,3,16,214,0
1560246,3,15,213,0
1560257,2,14,216,0
1560268,2,15,216,0
1560279,1,16,219,0
1560291,0,16,217,0
1560301,-4,18,221,0
1560312,-6,23,224,0
1560323,-9,24,227,0
1560334,-10,23,228,0
1560345,-4,18,226,0
1560357,0,15,225,1
1560367,5,15,226,0
1560378,7,20,228,0
1560389,6,25,234,0
1560400,4,28,242,0
1560411,1,30,239,0
1560422,0,32,240,0
1560434,-1,36,241,0
1560444,-6,40,240,0
1560455,-11,38,241,0
1560466,5,27,262,0
1560478,60,17,339,0
1560488,72,87,362,0
1560499,54,50,334,0
1560510,54,6,276,0
1560521,61,4,292,0
1560532,76,4,316,0
1560543,62,24,299,0
1560555,43,13,275,0
1560565,35,-10,248,0
1560576,15,-11,224,0
1560587,7,-20,192,0
1560598,11,-34,175,0
1560609,16,-39,160,0
1560620,26,-45,158,0
1560631,39,-38,163,0
1560642,50,-29,169,0
1560653,58,-17,180,0
1560664,64,-8,193,0
1560675,70,-1,204,0
1560686,80,3,220,0
1560698,80,2,221,0
1560708,78,0,221,0
1560719,79,-2,216,0
1560730,78,-6,213,0
1560741,76,-5,209,0
1560753,76,-4,206,0
1560763,79,-9,203,0
1560774,76,-10,203,0
1560785,65,-8,206,0
1560797,60,-5,214,0
1560808,54,-1,221,0
1560819,55,-1,229,0
1560830,49,-1,219,0
1560841,47,-2,217,0
1560853,40,-7,217,0
1560863,35,-6,220,0
1560874,31,-3,219,0
1560885,29,-1,218,0
1560896,27,1,214,0
1560907,27,4,215,0
1560918,29,11,216,0
1560929,28,7,215,0
1560940,28,5,222,0
1560951,23,6,224,0
1560962,17,7,229,0
1560973,10,9,228,0
1560984,7,7,234,0
1560995,2,2,226,0
1561006,1,0,221,0
1561017,2,-4,216,0
1561028,3,-3,216,0
1561039,5,-5,219,0
1561050,3,-3,218,0
1561061,5,-1,222,0
1561072,11,-1,223,0
1561083,15,1,226,0
1561094,19,4,227,0
1561105,25,4,228,0
1561116,30,6,228,0
1561128,35,8,225,0
1561138,37,8,223,0
1561149,34,13,221,0
1561160,30,16,219,0
1561171,25,14,218,0
1561182,21,12,218,0
1561193,15,5,219,0
1561204,9,1,222,0
1561215,2,-2,226,0
1561226,0,-2,231,0
1561237,0,0,239,0
1561248,0,3,247,0
1561259,0,8,255,0
1561271,-2,12,263,0
1561281,-4,18,268,0
1561293,-2,23,264,0
1561304,6,29,263,1
1561314,0,4,279,0
1561325,-8,-2,260,0
1561336,-44,3,227,0
1561347,-45,11,221,0
1561358,-28,12,218,0
1561369,3,9,219,0
1561380,36,-5,231,0
1561392,55,-28,243,0
1561403,53,-50,256,0
1561413,27,-57,272,0
1561424,13,-44,279,0
1561435,21,-19,282,0
1561446,43,1,278,0
1561457,68,4,272,0
1561468,101,8,254,0
1561479,119,15,229,0
1561491,127,19,201,0
1561501,143,19,169,0
1561512,146,11,157,0
1561523,148,11,164,0
1561534,142,18,179,0
1561545,129,20,195,0
1561556,103,18,212,0
1561567,77,14,222,0
1561578,48,9,229,0
1561589,23,5,243,0
1561600,-2,6,254,0
1561611,-18,5,255,0
1561622,-24,8,268,0
1561633,-21,7,274,0
1561644,-12,7,262,0
1561655,-4,13,260,0
1561666,3,17,248,0
1561678,15,15,241,0
1561688,28,16,239,0
1561699,37,13,233,0
1561710,45,11,225,0
1561721,47,7,222,0
1561732,54,12,216,0
1561743,54,15,214,0
1561754,53,12,218,0
1561765,46,19,221,0
1561776,40,14,220,0
1561788,37,11,214,0
1561798,35,11,213,0
1561809,30,11,213,0
1561820,25,10,211,0
1561831,10,10,213,0
1561842,4,13,212,0
1561853,1,13,211,0
1561864,0,15,210,0
1561875,-2,17,210,0
1561886,-5,19,210,0
1561897,-4,20,209,0
1561908,-1,22,210,0
1561919,0,21,209,0
1561930,0,23,208,0
1561941,1,23,216,0
1561953,0,25,220,0
1561963,-1,21,224,0
1561974,-2,16,223,0
1561985,-2,8,221,0
1561996,-2,2,218,0
1562007,-1,2,219,0
1562018,-2,4,220,0
1562029,-6,6,224,0
1562040,-3,7,229,0
1562051,-3,13,232,0
1562062,-2,16,238,0
1562073,-1,19,245,0
1562084,0,18,251,0
1562095,-2,19,253,0
1562106,-7,19,253,0
1562117,-6,13,253,0
1562128,24,1,275,0
1562139,71,9,362,0
1562151,68,66,354,1
1562161,76,-20,295,0
1562172,86,6,286,0
1562183,110,2,327,0
1562194,123,15,340,0
1562205,99,19,304,0
1562216,80,5,259,0
1562228,60,0,223,0
1562238,17,7,192,0
1562250,-14,22,147,0
1562260,-20,-105,185,0
1562271,-8,-16,135,0
1562282,2,-29,149,0
1562293,18,-35,152,0
1562304,37,-8,175,0
1562315,60,-3,192,0
1562326,89,2,213,0
1562337,93,11,224,0
1562348,97,11,222,0
1562359,97,9,224,0
1562371,93,6,222,0
1562381,87,2,222,0
1562393,76,1,215,0
1562403,69,-4,207,0
1562414,64,-5,204,0
1562425,65,-6,202,0
1562436,65,-10,202,0
1562447,68,-15,203,0
1562458,66,-12,205,0
1562469,64,-8,211,0
1562480,60,-6,213,0
1562491,57,4,223,0
1562503,56,6,223,0
1562513,51,7,226,0
1562524,46,9,228,0
1562535,45,7,226,0
1562546,37,5,222,0
1562558,29,4,218,0
1562569,24,2,214,0
1562580,22,1,214,0
1562592,14,4,213,0
1562603,13,2,216,0
1562613,11,3,219,0
1562624,10,4,224,0
1562635,16,3,233,0
1562646,19,3,232,0
1562657,15,1,231,0
1562668,11,0,229,0
1562679,8,-2,229,0
1562691,3,-2,225,0
1562701,1,0,222,0
1562712,0,0,220,0
1562723,-1,0,220,0
1562734,-4,0,219,0
1562745,-6,0,217,0
1562756,-6,1,218,0
1562767,-8,2,218,0
1562778,-8,3,215,0
1562789,-5,8,217,0
1562800,-2,13,220,0
1562811,2,9,227,0
1562822,3,6,226,0
1562833,4,8,224,0
1562844,8,10,221,0
1562855,14,12,220,0
1562866,28,18,219,0
1562878,25,-3,245,0
1562888,12,-40,255,0
1562899,4,-35,248,0
1562911,-2,-6,249,0
1562922,-14,6,273,1
1562932,-14,5,293,0
1562943,-2,6,303,0
1562954,11,4,312,0
1562965,32,5,318,0
1562976,79,27,317,0
1562987,85,30,300,0
1562998,97,32,291,0
1563009,100,28,264,0
1563020,101,24,235,0
1563031,101,17,208,0
1563042,98,7,187,0
1563053,92,-1,167,0
1563064,90,-9,148,0
1563075,88,-15,133,0
1563086,85,-18,128,0
1563097,81,-15,129,0
1563108,72,-11,140,0
1563119,65,-3,162,0
1563130,68,3,188,0
1563141,68,21,232,0
1563153,61,32,252,0
1563163,57,32,282,0
1563175,48,26,293,0
1563185,31,32,292,0
1563196,15,31,286,0
1563207,5,26,277,0
1563218,2,22,268,0
1563229,0,17,256,0
1563240,-3,12,237,0
1563251,-5,6,222,0
1563262,-2,4,217,0
1563273,1,5,216,0
1563284,7,9,215,0
1563295,14,10,217,0
1563306,14,7,213,0
1563317,12,4,214,0
1563328,9,1,212,0
1563339,3,0,213,0
1563350,1,0,214,0
1563361,-3,0,210,0
1563372,-7,-2,208,0
1563383,-12,-5,206,0
1563394,-15,-7,200,0
1563405,-16,-7,199,0
1563417,-19,-6,203,0
1563428,-20,-7,203,0
1563438,-19,-4,203,0
1563449,-18,-6,203,0
1563460,-14,-9,206,0
1563471,2,-2,221,0
1563482,4,17,213,0
1563493,-11,23,230,0
1563504,-15,12,238,0
1563515,-16,16,240,0
1563526,-21,25,244,0
1563537,-37,45,248,0
1563548,-46,28,255,0
1563559,-43,11,250,0
1563571,-38,2,247,0
1563581,-37,4,251,0
1563593,-37,4,244,0
1563604,-28,-1,241,1
1563614,16,0,297,0
1563625,40,25,362,0
1563636,42,34,333,0
1563647,59,-26,307,0
1563658,49,-21,287,0
1563669,58,-27,318,0
1563680,69,-7,338,0
1563692,63,12,319,0
1563703,55,9,283,0
1563713,52,-9,242,0
1563725,39,-21,204,0
1563735,31,-32,166,0
1563746,39,-44,147,0
1563757,38,-44,141,0
1563768,45,-43,147,0
1563779,59,-41,159,0
1563791,68,-33,173,0
1563801,79,-24,186,0
1563812,102,-3,204,0
1563823,108,7,210,0
1563834,108,8,212,0
1563845,102,15,212,0
1563856,90,16,211,0
1563867,83,14,214,0
1563878,72,15,218,0
1563889,64,18,223,0
1563900,56,12,220,0
1563911,50,10,221,0
1563922,50,2,221,0
1563933,58,-1,219,0
1563945,68,-6,216,0
1563956,78,-14,209,0
1563967,80,-13,214,0
1563978,77,-10,220,0
1563989,70,-5,227,0
1564000,59,-1,225,0
1564011,54,3,224,0
1564022,49,2,222,0
1564033,41,4,224,0
1564044,31,8,224,0
1564055,20,9,225,0
1564066,12,8,224,0
1564078,10,9,222,0
1564088,7,8,221,0
1564099,5,9,222,0
1564110,4,6,225,0
1564121,9,4,230,0
1564132,9,4,231,0
1564143,11,3,233,0
1564154,11,2,233,0
1564165,13,2,231,0
1564176,10,1,230,0
1564187,9,0,229,0
1564198,7,1,227,0
1564209,6,4,225,0
1564220,9,2,227,0
1564231,15,-1,228,0
1564242,17,-3,226,0
1564253,17,-5,224,0
1564264,17,-6,225,0
1564275,20,-7,221,0
1564286,30,-1,226,0
1564297,29,0,226,0
1564308,30,1,233,0
1564319,30,0,231,0
1564330,27,1,227,0
1564341,24,2,221,0
1564353,19,2,216,0
1564363,15,1,215,0
1564374,8,0,214,0
1564385,4,1,216,0
1564396,0,1,218,0
1564407,-6,1,223,0
1564418,-11,4,229,0
1564429,-17,5,235,0
1564441,-20,7,241,1
1564451,-16,5,243,0
1564462,-8,6,236,0
1564475,15,15,222,0
1564485,32,25,232,0
1564496,34,4,247,0
1564507,30,-15,249,0
1564518,7,-26,245,0
1564529,-18,-15,249,0
1564540,-26,7,260,0
1564551,-15,10,270,0
1564563,10,10,279,1
1564573,38,13,281,0
1564584,53,13,282,0
1564595,64,14,280,0
1564606,91,25,268,0
1564617,102,29,258,0
1564628,108,30,248,0
1564639,111,25,233,0
1564650,109,19,218,0
1564661,99,8,207,0
1564672,93,2,191,0
1564683,86,0,182,0
1564694,79,-2,175,0
1564705,71,-10,171,0
1564716,67,-14,168,0
1564728,64,-16,169,0
1564738,64,-17,174,0
1564749,66,-15,180,0
1564760,68,-6,189,0
1564771,72,9,211,0
1564782,74,18,222,0
1564793,68,22,229,0
1564804,64,27,243,0
1564815,59,28,251,0
1564826,46,27,254,0
1564837,28,29,261,0
1564848,16,27,269,0
1564859,10,21,272,0
1564871,6,18,268,0
1564881,9,12,267,0
1564893,10,12,267,0
1564903,11,11,257,0
1564914,13,7,244,0
1564925,16,4,236,0
1564936,25,3,221,0
1564947,29,6,216,0
1564958,28,6,213,0
1564969,23,5,213,0
1564980,21,7,217,0
1564992,21,7,217,0
1565003,20,3,213,0
1565013,19,4,210,0
1565024,17,3,206,0
1565035,11,6,207,0
1565046,6,12,213,0
1565057,3,14,217,0
1565068,-5,17,219,0
1565079,-5,22,225,0
1565091,-6,26,232,0
1565101,-8,28,241,0
1565112,-9,27,242,0
1565123,-8,23,244,0
1565134,-3,19,239,0
1565145,0,25,247,0
1565156,0,22,245,0
1565167,1,28,245,0
1565178,0,30,244,0
1565189,0,36,238,0
1565200,-3,33,239,0
1565212,-2,20,231,1
1565222,-1,21,218,0
1565233,-8,20,208,0
1565244,-14,20,206,0
1565255,-17,17,213,0
1565266,-9,11,227,0
1565278,-1,10,229,0
1565288,6,12,235,0
1565299,23,18,246,0
1565310,38,42,266,0
1565321,48,61,285,0
1565332,56,68,292,0
1565343,63,58,296,0
1565354,60,42,283,0
1565365,47,31,266,0
1565376,46,28,273,0
1565387,45,43,282,0
1565398,46,44,278,0
1565409,47,28,260,0
1565420,35,12,232,0
1565431,38,-13,201,0
1565442,45,-12,189,0
1565453,48,-20,188,0
1565464,50,-18,190,0
1565475,48,-4,191,0
1565486,51,2,197,0
1565497,56,12,207,0
1565508,60,19,214,0
1565519,63,22,218,0
1565530,63,26,222,0
1565541,62,25,224,0
1565553,58,30,217,0
1565563,62,32,214,0
1565574,64,32,210,0
1565585,64,25,206,0
1565596,66,25,205,0
1565607,72,21,208,0
1565618,76,13,210,0
1565629,81,7,210,0
1565640,89,2,218,0
1565651,100,0,216,0
1565662,107,0,219,0
1565673,106,-4,223,0
1565684,98,-7,225,0
1565695,87,-8,228,0
1565706,74,-4,233,0
1565717,65,2,241,0
1565728,56,6,240,0
1565739,47,5,237,0
1565751,40,4,234,0
1565761,31,7,231,0
1565772,17,2,219,0
1565783,13,0,216,0
1565794,10,0,214,0
1565805,10,2,214,0
1565816,11,3,215,0
1565828,14,8,218,0
1565838,20,9,223,0
1565849,24,10,228,0
1565860,28,14,231,0
1565872,30,17,235,0
1565883,31,21,238,0
1565894,32,25,242,0
1565905,28,27,240,0
1565917,27,21,233,0
1565928,27,20,230,0
1565938,28,19,231,0
1565949,28,18,230,0
1565960,30,17,229,0
1565971,31,13,226,0
1565982,33,11,226,0
1565993,36,13,225,0
1566004,39,15,224,0
1566015,43,18,223,0
1566026,45,17,225,0
1566037,46,14,228,0
1566048,43,8,230,0
1566059,37,8,230,0
1566071,30,12,226,0
1566081,26,20,226,0
1566093,26,26,227,0
1566103,28,30,229,0
1566114,30,30,230,0
1566125,30,24,228,0
1566136,26,24,225,0
1566147,21,24,218,0
1566158,18,27,216,0
1566169,18,31,216,0
1566180,25,36,221,0
1566192,35,42,228,0
1566203,42,44,232,0
1566213,45,42,237,0
1566225,42,43,236,1
1566235,32,44,235,0
1566246,7,40,232,0
1566257,1,35,235,0
1566268,2,35,234,0
1566279,16,45,242,0
1566291,33,54,255,0
1566301,49,51,264,0
1566312,58,46,263,0
1566323,65,49,265,0
1566334,69,53,258,0
1566345,75,50,250,0
1566356,79,47,244,0
1566367,78,40,236,0
1566378,79,36,223,0
1566389,71,26,216,0
1566400,68,21,210,0
1566411,64,13,203,0
1566422,65,12,202,0
1566433,68,8,195,0
1566444,76,3,196,0
1566455,80,-2,195,0
1566466,83,-5,200,0
1566478,89,-1,206,0
1566488,90,1,209,0
1566499,89,6,213,0
1566510,85,11,220,0
1566521,83,11,233,0
1566532,78,13,246,0
1566543,69,19,263,0
1566554,59,19,270,0
1566565,53,16,272,0
1566576,50,10,255,0
1566587,48,10,246,0
1566598,49,10,236,0
1566609,50,11,227,0
1566620,51,10,220,0
1566631,53,13,218,0
1566642,46,17,214,0
1566653,41,17,214,0
1566664,41,22,219,0
1566675,44,22,221,0
1566686,49,18,221,0
1566697,46,15,218,0
1566708,45,13,218,0
1566719,42,12,224,0
1566730,40,16,230,0
1566741,36,12,230,0
1566753,33,11,233,0
1566763,33,14,239,0
1566775,26,13,233,0
1566785,20,12,227,0
1566796,16,16,224,0
1566807,9,22,220,0
1566818,3,27,216,0
1566829,-4,30,210,0
1566840,-13,36,210,0
1566851,-23,39,209,0
1566862,-28,40,208,0
1566873,-31,45,212,0
1566884,-34,45,215,0
1566895,-32,45,217,0
1566906,-31,44,221,0
1566917,-23,37,225,0
1566928,-17,42,229,0
1566939,-12,44,230,0
1566950,-6,46,235,0
1566961,-2,37,241,0
1566972,11,35,254,0
1566983,28,31,248,0
1566994,13,64,232,0
1567005,-5,66,235,0
1567016,-7,57,243,0
1567028,-15,67,238,0
1567038,-32,68,239,0
1567050,-38,66,242,1
1567060,-31,67,243,0
1567071,-6,57,254,0
1567082,85,107,364,0
1567093,80,76,375,0
1567104,127,59,345,0
1567115,121,82,323,0
1567126,84,55,286,0
1567137,62,18,245,0
1567149,65,0,242,0
1567160,58,-27,216,0
1567171,44,-54,198,0
1567182,50,-58,180,0
1567193,45,-61,172,0
1567204,48,-60,166,0
1567215,55,-59,162,0
1567226,62,-42,166,0
1567238,65,-34,175,0
1567249,68,-26,184,0
1567260,75,-23,196,0
1567271,79,-18,211,0
1567282,82,-9,223,0
1567293,83,-9,231,0
1567304,83,-10,231,0
1567315,72,-9,222,0
1567326,57,-8,214,0
1567337,46,0,210,0
1567348,42,1,208,0
1567359,39,2,206,0
1567371,36,0,200,0
1567381,40,2,202,0
1567393,52,3,204,0
1567403,62,7,206,0
1567414,71,10,209,0
1567425,78,11,210,0
1567436,88,7,208,0
1567447,92,5,208,0
1567458,87,4,213,0
1567469,78,2,212,0
1567480,68,0,211,0
1567492,61,0,213,0
1567503,49,0,217,0
1567514,37,2,222,0
1567524,30,6,225,0
1567535,24,2,226,0
1567546,21,3,223,0
1567557,19,6,221,0
1567568,22,5,222,0
1567579,24,4,223,0
1567591,30,4,225,0
1567601,33,2,226,0
1567612,37,2,225,0
1567623,37,3,223,0
1567634,34,7,219,0
1567645,29,11,221,0
1567656,25,12,224,0
1567667,20,9,226,0
1567679,15,2,226,0
1567691,2,3,229,0
1567701,-1,5,233,0
1567712,-6,6,237,0
1567723,-8,3,235,0
1567734,-12,3,237,0
1567745,-16,7,236,0
1567757,-21,12,233,1
1567767,-8,21,227,0
1567778,27,42,231,0
1567789,21,-1,273,0
1567800,33,-25,277,0
1567811,33,-7,269,0
1567822,29,-16,269,0
1567833,45,27,272,0
1567844,54,29,282,0
1567855,67,-1,293,0
1567866,99,2,274,0
1567878,115,10,257,0
1567888,131,6,243,0
1567899,146,-1,213,0
1567910,156,-7,185,0
1567922,153,-4,176,0
1567933,139,-1,173,0
1567944,129,1,171,0
1567955,117,4,173,0
1567966,100,6,179,0
1567978,80,7,196,0
1567988,62,12,211,0
1567999,41,17,225,0
1568010,8,35,273,0
1568021,2,46,292,0
1568032,0,49,292,0
1568043,-1,47,291,0
1568054,0,38,278,0
1568065,3,27,258,0
1568076,6,32,249,0
1568087,6,30,237,0
1568098,7,24,238,0
1568109,13,21,238,0
1568120,28,19,230,0
1568131,37,10,220,0
1568142,48,6,214,0
1568153,56,5,207,0
1568164,60,7,202,0
1568175,68,9,196,0
1568186,67,5,193,0
1568197,62,7,193,0
1568208,54,8,191,0
1568219,43,7,193,0
1568230,31,7,193,0
1568241,23,5,191,0
1568253,15,5,191,0
1568263,9,10,191,0
1568274,1,16,193,0
1568285,-6,22,205,0
1568296,-14,26,211,0
1568308,-19,30,220,0
1568318,-20,33,223,0
1568329,-23,34,226,0
1568341,-16,42,242,0
1568351,-16,47,250,0
1568362,-14,38,254,0
1568373,-14,27,253,0
1568384,-12,22,253,0
1568395,-11,16,252,0
1568406,-10,16,247,0
1568417,-11,15,243,0
1568428,-14,18,242,0
1568439,-15,19,247,0
1568450,-25,16,250,0
1568461,-31,8,249,0
1568472,-34,6,250,0
1568484,-27,2,256,1
1568494,27,-13,315,0
1568505,46,40,347,0
1568516,77,-25,320,0
1568528,82,-7,291,0
1568538,86,-3,305,0
1568549,107,17,322,0
1568560,91,47,298,0
1568571,60,-8,259,0
1568582,45,2,216,0
1568593,32,-17,195,0
1568604,32,-35,176,0
1568615,26,-31,163,0
1568626,29,-42,150,0
1568637,41,-45,155,0
1568648,53,-33,167,0
1568659,58,-23,177,0
1568671,64,-2,191,0
1568681,64,6,202,0
1568693,68,7,214,0
1568703,78,1,213,0
1568714,83,-4,210,0
1568725,84,-8,209,0
1568736,80,-10,209,0
1568747,79,-5,214,0
1568758,80,-7,214,0
1568769,82,-10,209,0
1568780,73,-8,202,0
1568792,58,-10,201,0
1568803,51,-9,204,0
1568813,51,-3,211,0
1568824,53,1,218,0
1568837,50,4,220,0
1568847,44,6,223,0
1568858,43,6,224,0
1568869,37,8,223,0
1568880,32,7,223,0
1568892,34,7,221,0
1568903,36,8,217,0
1568913,39,9,212,0
1568924,40,10,209,0
1568936,42,11,211,0
1568947,45,10,222,0
1568958,47,9,222,0
1568969,35,8,231,0
1568980,30,7,235,0
1568992,26,5,236,0
1569003,22,2,231,0
1569013,16,0,227,0
1569024,8,-1,224,0
1569035,2,-6,221,0
1569046,1,-10,220,0
1569057,1,-11,216,0
1569068,-1,-7,216,0
1569079,-4,-2,217,0
1569091,-6,0,218,0
1569101,-5,1,219,0
1569112,-5,3,219,0
1569123,-3,3,221,0
1569134,2,4,229,0
1569145,2,4,236,0
1569157,3,2,236,0
1569169,2,1,237,1
1569179,-2,3,237,0
1569191,-10,5,236,0
1569201,-15,4,238,0
1569212,-11,6,236,0
1569223,18,28,226,0
1569234,17,-3,266,0
1569245,16,-49,279,0
1569256,14,-15,266,0
1569267,5,-7,255,0
1569278,10,18,278,0
1569289,42,0,302,0
1569300,57,-3,296,0
1569311,72,8,294,0
1569322,88,18,288,0
1569333,108,22,269,0
1569344,122,17,242,0
1569355,135,11,208,0
1569366,137,10,180,0
1569378,133,9,155,0
1569388,124,5,149,0
1569399,113,10,154,0
1569410,93,13,162,0
1569421,68,25,180,0
1569432,46,33,211,0
1569443,17,29,236,0
1569455,-20,33,286,0
1569465,-21,33,301,0
1569476,-16,27,299,0
1569487,-5,21,285,0
1569498,2,17,266,0
1569509,12,11,244,0
1569520,22,5,228,0
1569531,28,5,221,0
1569543,33,7,215,0
1569553,39,7,210,0
1569564,46,4,205,0
1569575,48,9,209,0
1569586,48,12,216,0
1569597,41,10,218,0
1569608,36,6,210,0
1569619,25,2,206,0
1569630,18,3,206,0
1569642,10,2,205,0
1569653,1,3,207,0
1569663,-10,1,205,0
1569674,-19,-2,201,0
1569685,-26,-5,204,0
1569696,-28,-2,203,0
1569707,-26,0,202,0
1569718,-25,1,196,0
1569729,-24,3,190,0
1569740,-19,7,201,0
1569751,-16,7,211,0
1569762,-12,3,214,0
1569773,-10,11,215,0
1569784,-23,11,226,0
1569795,-29,10,231,0
1569806,-31,7,235,0
1569817,-34,4,237,0
1569828,-34,2,239,0
1569839,-36,1,240,0
1569850,-39,1,240,0
1569861,-41,2,241,0
1569872,-42,1,240,0
1569883,-37,0,240,0
1569894,-37,11,247,0
1569906,-40,12,251,1
1569917,-35,4,258,0
1569928,-20,-3,275,0
1569938,15,-6,299,0
1569949,98,55,362,0
1569960,107,15,329,0
1569971,123,-23,285,0
1569982,145,-23,296,0
1569993,180,18,341,0
1570004,158,41,330,0
1570015,131,25,266,0
1570026,79,9,213,0
1570037,36,49,179,0
1570048,30,-83,208,0
1570059,29,-7,154,0
1570071,25,-34,160,0
1570081,26,-44,159,0
1570093,32,-23,165,0
1570103,42,-24,171,0
1570114,53,-17,190,0
1570125,56,-2,200,0
1570136,64,-1,213,0
1570147,77,-4,219,0
1570158,84,-8,218,0
1570169,84,-3,222,0
1570180,89,-6,219,0
1570192,101,-3,224,0
1570203,102,-3,222,0
1570213,91,1,215,0
1570224,78,0,211,0
1570235,65,-3,211,0
1570246,62,1,218,0
1570257,75,-2,222,0
1570268,75,-3,215,0
1570279,74,-6,214,0
1570292,69,-8,216,0
1570303,61,-7,216,0
1570313,53,-4,217,0
1570324,41,-1,218,0
1570335,30,0,219,0
1570346,16,2,222,0
1570357,1,3,225,0
1570368,-11,1,229,0
1570379,-23,6,228,0
1570391,-33,7,232,0
1570401,-36,4,240,0
1570412,-37,10,242,0
1570423,-35,8,241,0
1570434,-17,-1,234,0
1570445,-7,1,228,0
1570456,-1,-6,224,0
1570467,5,-12,222,0
1570478,10,-15,221,0
1570489,12,-15,217,0
1570500,21,-17,217,0
1570511,26,-20,217,0
1570522,33,-19,219,0
1570533,35,-17,225,0
1570544,40,-12,230,0
1570555,39,-11,228,0
1570566,37,-10,224,0
1570578,36,-10,221,0
1570588,33,-6,221,0
1570600,19,2,222,1
1570610,14,5,219,0
1570621,9,10,216,0
1570632,4,16,218,0
1570643,2,16,221,0
1570654,4,17,218,0
1570666,2,19,218,0
1570676,-1,17,216,0
1570687,-8,20,218,0
1570698,-9,12,216,0
1570709,3,-4,209,0
1570720,8,-21,225,0
1570731,18,-17,228,0
1570742,25,-4,222,0
1570753,26,-28,210,0
1570764,54,-33,214,0
1570777,45,-32,241,1
1570787,48,-30,266,0
1570798,53,-27,290,0
1570809,61,-15,314,0
1570820,74,1,329,0
1570831,96,15,333,0
1570842,114,25,326,0
1570853,125,31,309,0
1570864,124,21,277,0
1570875,117,6,246,0
1570886,109,-12,222,0
1570897,103,-18,210,0
1570908,88,-24,191,0
1570919,80,-26,184,0
1570930,71,-25,182,0
1570941,67,-26,182,0
1570953,68,-26,186,0
1570963,71,-26,192,0
1570974,74,-23,199,0
1570987,75,-17,205,0
1570997,74,-11,211,0
1571008,71,-11,213,0
1571019,64,-6,219,0
1571030,52,-15,232,0
1571041,47,-12,242,0
1571053,38,0,248,0
1571063,20,16,251,0
1571074,9,16,254,0
1571086,4,17,259,0
1571097,-1,14,258,0
1571108,0,6,247,0
1571119,3,2,235,0
1571131,7,0,229,0
1571141,14,-2,222,0
1571153,24,-1,216,0
1571163,33,-5,213,0
1571174,41,-4,212,0
1571185,43,0,214,0
1571196,41,1,214,0
1571207,39,4,212,0
1571218,23,3,210,0
1571229,11,4,209,0
1571240,3,3,207,0
1571251,-1,5,204,0
1571262,-7,4,204,0
1571273,-9,3,203,0
1571284,-11,4,200,0
1571295,-14,5,198,0
1571306,-16,8,198,0
1571317,-19,9,200,0
1571328,-19,11,204,0
1571339,-19,7,209,0
1571350,-20,3,212,0
1571361,-20,3,215,0
1571372,-21,-3,218,0
1571383,-16,-3,232,0
1571394,-12,-1,247,0
1571406,-14,15,255,1
1571417,-22,21,269,0
1571428,-19,19,287,0
1571438,-13,21,288,0
1571449,-4,13,289,0
1571460,20,-3,297,0
1571471,70,-27,330,0
1571482,112,-22,381,0
1571493,102,9,373,0
1571504,83,12,314,0
1571515,69,-20,264,0
1571526,71,-15,230,0
1571537,64,-21,216,0
1571548,56,-45,192,0
1571559,52,-50,182,0
1571571,48,-52,176,0
1571581,45,-40,181,0
1571593,53,-30,180,0
1571603,69,-18,184,0
1571614,82,-5,192,0
1571625,88,0,200,0
1571636,95,6,215,0
1571647,101,9,223,0
1571658,106,8,228,0
1571669,117,1,232,0
1571680,121,-6,219,0
1571691,119,19,271,0
1571703,144,-36,190,0
1571713,124,-29,189,0
1571724,96,4,197,0
1571735,84,6,204,0
1571746,71,8,217,0
1571757,63,10,220,0
1571768,51,13,229,0
1571779,42,13,236,0
1571791,38,17,244,0
1571802,36,20,246,0
1571812,39,22,245,0
1571823,46,18,238,0
1571834,54,12,232,0
1571845,60,8,223,0
1571856,63,3,220,0
1571867,64,1,217,0
1571878,59,1,215,0
1571889,58,5,217,0
1571900,52,13,228,0
1571911,45,13,241,0
1571922,40,19,249,0
1571933,36,23,255,0
1571944,34,16,254,0
1571955,32,16,250,0
1571967,28,24,242,0
1571978,24,22,235,0
1571988,21,16,226,0
1571999,18,16,221,0
1572010,8,25,220,0
1572021,3,20,218,0
1572032,0,20,222,0
1572043,-6,19,224,0
1572056,-5,18,226,0
1572066,-2,15,226,0
1572078,-1,18,227,0
1572088,1,19,229,0
1572099,3,20,227,0
1572110,6,23,224,0
1572121,6,28,226,0
1572132,4,30,229,0
1572143,0,31,230,0
1572154,-7,27,233,0
1572165,-15,23,229,0
1572176,-25,12,228,0
1572187,-27,6,220,0
1572198,-32,2,208,0
1572209,-32,4,206,0
1572220,-30,11,214,0
1572231,-29,14,225,0
1572243,-27,14,230,1
1572253,-25,10,234,0
1572264,-17,7,238,0
1572275,-13,3,243,0
1572286,-6,1,245,0
1572297,17,5,245,0
1572308,31,-10,260,0
1572319,38,-38,274,0
1572330,58,-30,264,0
1572341,55,-28,256,0
1572353,47,-43,246,0
1572363,63,-7,226,0
1572374,71,12,225,0
1572385,82,20,223,0
1572396,96,27,217,0
1572407,106,42,215,0
1572418,120,50,216,0
1572429,137,63,221,0
1572440,145,74,222,0
1572451,135,67,207,0
1572462,117,57,203,0
1572473,96,43,210,0
1572484,71,33,214,0
1572495,55,33,224,0
1572506,32,27,232,0
1572517,17,32,245,0
1572528,5,44,277,0
1572539,6,47,292,0
1572550,11,41,288,0
1572561,19,36,274,0
1572572,24,28,258,0
1572583,31,24,245,0
1572594,32,24,229,0
1572605,30,25,218,0
1572616,30,22,213,0
1572628,36,19,213,0
1572638,31,22,207,0
1572649,17,15,200,0
1572660,8,11,198,0
1572671,3,11,198,0
1572682,1,10,197,0
1572693,1,8,207,0
1572704,1,7,208,0
1572715,0,2,210,0
1572726,-2,0,216,0
1572737,-4,-5,221,0
1572748,-6,-9,225,0
1572759,-7,-13,224,0
1572771,-7,-18,228,0
1572781,-9,-18,227,0
1572793,-10,-19,220,0
1572803,-12,-18,216,0
1572814,-13,-18,213,0
1572825,-16,-21,211,0
1572836,-13,-17,210,0
1572847,-14,-15,208,0
1572858,-14,-16,212,0
1572869,-14,-10,216,0
1572880,-22,10,219,0
1572892,-30,7,226,0
1572903,-35,-1,232,0
1572913,-28,-19,232,0
1572924,-13,-33,238,0
1572935,0,-37,241,0
1572946,1,-33,241,0
1572958,6,-32,253,1
1572968,22,-38,283,0
1572979,37,-29,315,0
1572991,49,-22,322,0
1573001,60,-19,321,0
1573012,58,-18,316,0
1573023,62,-18,322,0
1573034,51,-10,308,0
1573045,31,-2,271,0
1573057,13,-14,232,0
1573067,5,-31,206,0
1573078,2,-45,191,0
1573089,1,-54,184,0
1573100,1,-59,175,0
1573111,9,-59,175,0
1573123,29,-50,181,1
1573133,50,-38,186,0
1573144,69,-24,191,0
1573155,88,-10,191,0
1573166,108,-2,196,0
1573178,124,4,205,0
1573188,125,14,212,0
1573199,116,18,216,0
1573210,103,20,218,0
1573221,91,24,220,0
1573232,78,24,223,0
1573243,70,26,223,0
1573254,61,21,219,0
1573265,50,16,217,0
1573276,47,7,211,0
1573287,44,8,214,0
1573298,46,10,219,0
1573309,52,13,225,0
1573320,53,14,228,0
1573331,49,15,233,0
1573342,37,13,236,0
1573353,20,11,236,0
1573364,13,9,232,0
1573375,6,7,229,0
1573386,1,2,227,0
1573397,-3,1,226,0
1573408,-8,1,226,0
1573419,-9,1,222,0
1573431,-9,0,219,0
1573441,-2,-1,220,0
1573453,3,-1,220,0
1573463,8,1,220,0
1573474,13,1,221,0
1573485,12,2,222,0
1573496,9,-1,221,0
1573507,3,2,221,0
1573518,1,1,227,0
1573529,1,4,225,0
1573540,0,3,225,0
1573551,0,1,224,0
1573562,0,1,225,0
1573573,3,2,225,0
1573584,6,3,223,0
1573595,9,5,224,0
1573606,15,4,225,0
1573617,20,7,223,0
1573628,23,7,223,0
1573639,21,8,224,0
1573650,21,9,221,0
1573661,17,12,220,0
1573672,12,12,219,0
1573683,6,14,221,0
1573694,7,18,223,0
1573705,10,21,224,0
1573716,16,25,229,0
1573728,17,26,230,0
1573738,19,28,235,0
1573749,17,30,240,0
1573760,13,31,238,0
1573771,7,30,241,0
1573782,2,23,239,0
1573793,-8,11,236,0
1573804,-16,4,231,0
1573815,-9,12,223,0
1573827,0,27,235,1
1573837,-6,-13,265,0
1573848,-35,-6,264,0
1573859,-39,24,268,0
1573871,-16,23,290,0
1573881,24,16,295,0
1573893,39,10,304,0
1573903,58,23,308,0
1573914,79,35,305,0
1573925,104,43,298,0
1573936,119,38,283,0
1573947,124,30,260,0
1573958,131,18,224,0
1573969,134,8,184,0
1573980,137,0,149,0
1573992,129,-1,123,0
1574003,124,-4,117,0
1574013,103,6,149,0
1574024,92,14,180,0
1574035,77,19,206,0
1574046,62,19,230,0
1574057,50,23,257,0
1574068,41,25,277,0
1574079,32,27,280,0
1574091,22,28,276,0
1574101,20,26,271,0
1574112,20,24,268,0
1574123,22,18,263,0
1574134,20,14,255,0
1574145,23,12,248,0
1574156,23,18,241,0
1574167,23,13,230,0
1574178,32,12,223,0
1574189,34,9,219,0
1574200,35,6,214,0
1574211,37,5,206,0
1574222,35,1,211,0
1574233,33,2,206,0
1574244,27,1,205,0
1574255,19,3,204,0
1574266,11,5,203,0
1574278,7,3,202,0
1574288,6,3,202,0
1574299,6,2,203,0
1574310,6,4,202,0
1574321,8,5,202,0
1574332,9,7,206,0
1574343,6,11,208,0
1574354,3,13,210,0
1574365,2,14,213,0
1574376,2,19,219,0
1574387,1,25,230,0
1574398,0,28,234,0
1574409,-3,30,237,0
1574420,-6,27,234,0
1574431,-9,21,229,0
1574442,-12,16,227,0
1574453,-15,16,230,0
1574465,-17,11,228,0
1574475,-21,13,232,0
1574486,-23,15,233,0
1574497,-25,23,233,0
1574508,-40,27,239,0
1574519,-7,10,273,0
1574530,48,37,367,0
1574541,37,104,372,0
1574553,37,55,377,1
1574563,51,22,343,0
1574574,37,27,299,0
1574585,34,1,288,0
1574596,39,-16,290,0
1574607,26,6,272,0
1574618,18,-12,246,0
1574629,4,-36,216,0
1574640,6,-42,192,0
1574651,28,-42,173,0
1574663,42,-50,166,0
1574673,63,-33,167,0
1574684,69,-21,177,0
1574695,77,-7,184,0
1574706,81,1,191,0
1574717,81,5,199,0
1574728,76,6,216,0
1574739,69,5,220,0
1574750,65,1,227,0
1574762,60,-1,223,0
1574772,54,-10,211,0
1574783,53,-13,208,0
1574794,54,-16,208,0
1574805,51,-13,208,0
1574816,48,-14,209,0
1574828,46,-10,211,0
1574838,38,-3,218,0
1574849,35,-6,223,0
1574860,30,1,226,0
1574871,31,2,232,0
1574882,29,2,229,0
1574893,23,3,226,0
1574904,20,1,219,0
1574916,16,1,214,0
1574926,15,0,209,0
1574937,12,-1,208,0
1574948,10,0,209,0
1574959,10,0,211,0
1574971,10,1,216,0
1574981,7,3,219,0
1574993,5,5,224,0
1575003,0,7,236,0
1575014,1,5,236,0
1575025,1,5,237,0
1575036,1,7,237,0
1575047,1,6,234,0
1575058,1,2,227,0
1575069,2,1,221,0
1575080,3,-1,216,0
1575092,5,-3,214,0
1575103,7,-7,213,0
1575114,10,-12,216,0
1575124,13,-13,218,0
1575135,19,-13,222,0
1575146,22,-8,223,0
1575157,23,-4,226,0
1575168,20,0,228,0
1575179,17,1,227,0
1575191,14,0,224,0
1575201,10,-3,220,0
1575212,7,-6,220,0
1575223,1,-7,219,0
1575234,-5,-6,220,0
1575246,-2,0,221,1
1575256,14,13,219,0
1575268,6,-2,254,0
1575278,-1,-24,259,0
1575289,-2,-3,252,0
1575300,-18,0,251,0
1575311,-21,17,262,0
1575322,-26,25,281,0
1575333,-14,1,294,0
1575344,7,9,298,0
1575356,45,15,302,0
1575366,76,19,297,0
1575378,98,23,291,0
1575388,112,25,281,0
1575399,117,24,263,0
1575411,114,18,238,0
1575421,117,9,212,0
1575432,110,1,184,0
1575443,102,-10,160,0
1575454,97,-16,145,0
1575465,99,-22,130,0
1575476,98,-25,129,0
1575487,97,-21,136,0
1575498,78,-1,172,0
1575509,69,3,193,0
1575520,64,7,216,0
1575531,60,12,232,0
1575542,56,24,251,0
1575553,48,35,262,0
1575564,39,39,279,0
1575575,25,39,293,0
1575587,13,37,290,0
1575597,5,37,287,0
1575608,2,29,280,0
1575619,2,27,271,0
1575630,1,21,262,0
1575641,3,15,248,0
1575653,5,13,234,0
1575663,13,10,230,0
1575674,19,11,229,0
1575685,25,13,227,0
1575696,31,13,224,0
1575707,32,11,217,0
1575718,28,8,215,0
1575729,26,3,210,0
1575740,26,1,205,0
1575751,21,0,205,0
1575762,16,2,202,0
1575773,9,2,201,0
1575784,5,4,202,0
1575795,-2,7,198,0
1575806,-8,6,198,0
1575817,-11,6,201,0
1575828,-16,11,209,0
1575839,-15,12,212,0
1575850,-12,14,212,0
1575861,-4,17,210,0
1575872,0,15,207,0
1575883,3,15,212,0
1575894,3,16,220,0
1575905,2,13,232,0
1575917,1,8,236,0
1575928,-1,4,235,0
1575938,-2,5,238,0
1575949,-2,6,238,0
1575960,0,10,245,0
1575971,-4,22,252,0
1575982,-12,25,254,0
1575994,-23,17,259,1
1576004,-5,5,278,0
1576015,42,-3,344,0
1576026,51,56,366,0
1576037,52,44,348,0
1576048,63,-14,328,0
1576059,63,-10,305,0
1576071,73,1,318,0
1576081,72,15,311,0
1576093,40,23,262,0
1576103,13,5,221,0
1576114,-2,-12,191,0
1576125,-19,-9,181,0
1576136,0,-93,183,0
1576147,24,-13,167,0
1576158,44,-37,176,0
1576169,65,-14,182,0
1576180,75,-12,189,0
1576192,83,-4,198,0
1576203,91,-2,206,0
1576213,92,1,213,0
1576224,93,-2,213,0
1576235,91,-1,210,0
1576246,87,-6,208,0
1576257,75,-6,205,0
1576268,65,-3,212,0
1576279,57,-1,214,0
1576291,52,1,216,0
1576301,57,-1,213,0
1576312,62,-2,208,0
1576323,63,-8,210,0
1576334,53,-7,217,0
1576345,50,-4,223,0
1576356,51,-1,225,0
1576367,51,-1,224,0
1576379,49,0,226,0
1576389,47,4,227,0
1576400,38,7,226,0
1576411,29,7,226,0
1576422,25,7,221,0
1576433,19,3,217,0
1576444,14,2,218,0
1576455,8,3,219,0
1576466,4,5,218,0
1576478,1,6,222,0
1576488,-1,5,226,0
1576499,-7,2,231,0
1576510,-12,1,231,0
1576521,-14,0,232,0
1576532,-15,2,230,0
1576543,-10,0,231,0
1576554,-5,0,230,0
1576565,-2,-2,225,0
1576576,0,-3,222,0
1576587,1,-2,221,0
1576598,2,-1,220,0
1576609,3,-1,222,0
1576620,5,-1,222,0
1576631,8,-2,222,0
1576642,11,-2,221,0
1576653,11,-2,221,0
1576664,11,-3,215,0
1576675,11,-3,213,0
1576686,13,-1,218,0
1576697,11,0,220,0
1576708,11,0,222,0
1576719,7,0,225,0
1576731,5,0,228,1
1576741,-1,-2,232,0
1576753,-7,-1,233,0
1576763,-8,1,230,0
1576774,8,10,220,0
1576785,13,7,243,0
1576796,5,-38,254,0
1576807,2,-32,241,0
1576818,-8,-9,229,0
1576829,-25,21,270,0
1576840,-18,1,281,0
1576851,-2,-1,283,0
1576863,9,2,286,1
1576873,32,11,291,0
1576884,58,20,301,0
1576895,84,28,301,0
1576906,106,31,297,0
1576917,118,33,286,0
1576928,120,32,271,0
1576940,118,30,254,0
1576950,113,17,218,0
1576961,107,5,188,0
1576972,100,-3,165,0
1576983,95,-6,153,0
1576994,85,-6,144,0
1577005,80,-10,143,0
1577016,76,-12,149,0
1577028,76,-9,165,0
1577038,74,-3,181,0
1577049,73,0,195,0
1577060,76,2,207,0
1577071,78,10,222,0
1577082,70,16,236,0
1577093,63,22,254,0
1577104,54,29,271,0
1577115,38,35,279,0
1577126,26,33,278,0
1577137,17,31,274,0
1577149,12,31,271,0
1577159,4,28,264,0
1577171,5,24,258,0
1577181,8,19,247,0
1577193,13,16,236,0
1577203,20,18,231,0
1577214,23,17,226,0
1577225,29,18,220,0
1577236,28,19,222,0
1577247,24,21,226,0
1577258,21,11,229,0
1577269,26,10,220,0
1577280,27,14,212,0
1577292,23,11,210,0
1577303,25,10,210,0
1577313,25,12,206,0
1577324,21,21,196,0
1577335,16,20,203,0
1577346,13,18,206,0
1577357,11,19,207,0
1577368,12,18,211,0
1577379,13,23,215,0
1577391,13,24,217,0
1577401,16,26,224,0
1577412,18,29,229,0
1577423,17,31,234,0
1577434,10,34,240,0
1577445,2,28,244,0
1577456,0,31,243,0
1577467,-7,30,242,0
1577478,-14,27,242,0
1577489,-16,26,237,0
1577500,-17,16,235,0
1577511,-9,10,234,0
1577522,-2,16,229,0
1577533,0,14,226,0
1577544,2,7,234,0
1577555,9,7,240,0
1577567,16,16,247,1
1577578,41,32,273,0
1577588,59,83,314,0
1577599,50,90,321,0
1577610,62,41,310,0
1577621,77,22,294,0
1577632,81,31,286,0
1577643,84,17,283,0
1577654,73,58,284,0
1577665,53,44,249,0
1577676,40,40,201,0
1577687,23,25,175,0
1577698,15,3,177,0
1577709,8,-2,185,0
1577720,14,-10,171,0
1577731,15,-12,162,0
1577742,22,0,167,0
1577753,32,3,175,0
1577764,34,12,185,0
1577775,39,17,193,0
1577786,46,25,208,0
1577797,57,32,220,0
1577808,66,37,225,0
1577819,85,49,249,0
1577830,92,54,255,0
1577841,96,49,247,0
1577853,89,45,227,0
1577863,79,40,211,0
1577874,69,33,204,0
1577885,62,27,201,0
1577896,58,26,206,0
1577907,49,30,216,0
1577918,50,25,229,0
1577929,68,19,235,0
1577940,66,46,231,0
1577951,69,46,224,0
1577962,71,44,218,0
1577973,73,38,212,0
1577984,62,31,209,0
1577995,57,33,215,0
1578006,53,32,222,0
1578017,49,31,225,0
1578028,42,30,223,0
1578039,34,27,222,0
1578050,28,22,224,0
1578061,24,20,226,0
1578072,25,16,224,0
1578083,30,14,221,0
1578094,37,18,219,0
1578105,41,22,220,0
1578116,45,20,225,0
1578128,46,23,227,0
1578138,45,28,230,0
1578149,38,29,237,0
1578160,34,27,237,0
1578171,29,21,235,0
1578182,25,16,234,0
1578193,24,12,235,0
1578204,27,16,231,0
1578215,31,17,231,0
1578226,36,16,227,0
1578237,42,17,228,0
1578248,48,21,226,0
1578259,52,24,223,0
1578271,54,23,222,0
1578281,55,23,222,0
1578293,56,26,225,0
1578303,55,27,224,0
1578314,46,29,225,0
1578325,41,30,225,0
1578336,39,36,228,0
1578347,36,38,230,0
1578358,35,39,231,0
1578369,34,40,231,0
1578380,33,43,233,0
1578392,34,42,234,0
1578403,31,40,233,0
1578413,33,39,230,0
1578424,31,36,228,0
1578435,29,34,228,0
1578446,29,34,227,0
1578457,28,33,226,0
1578468,25,37,227,0
1578479,26,41,226,0
1578491,27,43,227,0
1578501,27,45,228,0
1578512,29,42,227,0
1578523,30,43,228,0
1578534,32,45,226,0
1578545,32,48,226,0
1578556,35,46,225,0
1578567,36,44,224,0
1578578,37,41,223,0
1578589,36,37,224,0
1578600,36,34,224,0
1578611,33,32,226,0
1578623,33,27,229,1
1578633,35,26,235,0
1578644,56,13,226,0
1578655,64,3,220,0
1578666,60,-2,219,0
1578678,49,1,211,0
1578688,31,26,205,0
1578699,19,42,203,0
1578710,17,47,214,0
1578721,15,52,224,0
1578732,17,55,230,0
1578743,29,63,231,0
1578754,43,72,235,0
1578765,60,74,236,0
1578776,75,72,240,0
1578787,88,60,248,0
1578798,97,46,259,0
1578809,81,23,271,0
1578820,71,13,269,0
1578831,66,5,259,0
1578842,61,3,250,0
1578853,54,4,239,0
1578864,47,9,232,0
1578875,44,15,228,0
1578886,42,17,235,0
1578897,39,15,233,0
1578908,39,6,232,0
1578919,42,-5,224,0
1578930,48,-21,217,0
1578941,57,-26,217,0
1578953,63,-27,218,0
1578963,66,-21,221,0
1578974,66,-16,226,0
1578985,49,-18,232,0
1578996,42,-18,238,0
1579007,41,-18,235,0
1579018,43,-17,231,0
1579029,48,-10,227,0
1579040,54,-5,223,0
1579051,60,-8,217,0
1579063,62,-9,210,0
1579073,60,-4,209,0
1579084,56,-4,212,0
1579095,51,-3,216,0
1579106,47,0,223,0
1579117,37,0,226,0
1579128,26,2,230,0
1579139,19,3,233,0
1579150,2,10,226,0
1579161,-2,12,222,0
1579172,-9,19,225,0
1579183,-12,20,224,0
1579194,-14,24,227,0
1579205,-15,31,230,0
1579216,-11,35,233,0
1579228,-13,34,229,0
1579238,-8,38,234,0
1579249,-4,38,236,0
1579260,-5,38,236,0
1579271,-3,33,233,0
1579282,1,29,223,0
1579293,1,26,220,0
1579304,2,27,218,0
1579315,0,27,216,0
1579327,0,28,218,0
1579337,0,30,212,0
1579348,-1,35,216,0
1579359,2,27,222,0
1579371,0,32,213,0
1579381,-4,37,217,0
1579393,-8,32,222,0
1579404,-8,29,227,1
1579414,-2,27,242,0
1579425,6,27,253,0
1579436,3,30,255,0
1579447,5,27,254,0
1579458,8,22,245,0
1579470,52,16,282,0
1579480,92,50,333,0
1579492,71,76,330,0
1579503,58,52,304,0
1579513,47,31,268,0
1579524,51,19,273,0
1579535,45,34,268,0
1579546,34,21,245,0
1579557,24,-3,235,0
1579568,21,-10,234,0
1579579,29,-20,215,0
1579591,36,-22,201,0
1579601,38,-32,187,0
1579612,41,-34,180,0
1579623,43,-28,178,0
1579634,41,-17,180,0
1579645,46,7,195,0
1579656,55,18,201,0
1579667,65,26,203,0
1579678,80,26,213,0
1579689,88,30,224,0
1579700,94,28,223,0
1579711,96,21,218,0
1579722,90,16,212,0
1579733,82,13,208,0
1579745,77,12,208,0
1579756,67,9,210,0
1579767,60,11,214,0
1579778,52,9,212,0
1579789,44,9,216,0
1579800,36,10,225,0
1579811,35,9,228,0
1579822,35,8,229,0
1579833,33,7,227,0
1579844,32,10,225,0
1579856,31,10,226,0
1579866,31,8,223,0
1579878,33,10,217,0
1579888,34,11,213,0
1579899,40,11,212,0
1579910,44,15,214,0
1579921,48,18,218,0
1579932,50,21,223,0
1579943,51,25,227,0
1579954,51,26,230,0
1579965,46,26,236,0
1579976,42,25,236,0
1579987,38,21,233,0
1579998,35,19,229,0
1580009,34,15,225,0
1580020,35,14,223,0
1580031,36,12,224,0
1580042,35,13,225,0
1580053,37,10,227,0
1580064,36,11,228,0
1580075,36,13,230,0
1580087,34,14,231,0
1580097,30,17,230,0
1580108,25,22,229,0
1580119,20,24,229,0
1580130,12,32,225,0
1580141,8,30,224,0
1580153,5,32,222,0
1580163,2,33,223,0
1580174,-1,31,225,0
1580185,0,31,226,0
1580196,10,37,228,0
1580208,21,36,244,1
1580218,22,22,269,0
1580229,13,17,287,0
1580240,12,23,282,0
1580251,9,26,283,0
1580262,14,32,286,0
1580273,16,39,287,0
1580284,18,38,292,0
1580295,45,48,271,0
1580306,59,43,259,0
1580317,68,34,243,0
1580328,75,17,227,0
1580340,83,7,215,1
1580350,84,-3,199,0
1580361,81,-18,184,0
1580372,80,-26,162,0
1580383,75,-26,152,0
1580394,64,-23,152,0
1580405,55,-15,159,0
1580417,55,-2,179,0
1580428,57,9,193,0
1580438,63,27,209,0
1580449,61,33,231,0
1580460,61,41,285,0
1580472,58,38,290,0
1580483,52,36,284,0
1580494,43,32,274,0
1580505,38,27,260,0
1580516,32,22,244,0
1580528,27,19,229,0
1580538,28,19,221,0
1580549,34,20,216,0
1580560,41,21,210,0
1580571,47,24,208,0
1580582,56,22,219,0
1580593,61,21,219,0
1580604,58,16,214,0
1580615,59,14,216,0
1580626,55,16,213,0
1580637,49,17,212,0
1580648,43,16,218,0
1580659,37,14,222,0
1580671,29,16,222,0
1580681,19,16,220,0
1580693,11,18,219,0
1580703,11,16,219,0
1580714,5,15,214,0
1580725,6,12,211,0
1580736,10,14,213,0
1580747,10,12,212,0
1580758,11,13,211,0
1580769,10,11,213,0
1580780,6,3,212,0
1580791,5,1,216,0
1580803,4,-3,219,0
1580813,3,2,220,0
1580824,0,1,219,0
1580835,-1,1,218,0
1580847,0,4,222,1
1580857,0,4,225,0
1580868,-3,11,225,0
1580879,-8,19,227,0
1580891,-12,16,231,0
1580901,12,6,268,0
1580912,69,33,371,0
1580923,75,104,407,0
1580934,72,43,414,0
1580945,102,2,369,0
1580956,83,-4,331,0
1580969,68,-20,275,0
1580979,37,-42,224,0
1580991,9,-43,194,0
1581001,-8,-43,174,0
1581012,-6,-52,159,0
1581023,4,-52,160,0
1581034,23,-50,161,0
1581045,35,-41,168,0
1581056,43,-23,155,0
1581067,44,-48,227,0
1581078,64,-48,172,0
1581089,92,-2,207,0
1581100,105,-5,210,0
1581111,116,-7,210,0
1581122,124,-18,204,0
1581133,125,-22,198,0
1581144,118,-26,195,0
1581155,106,-22,201,0
1581166,91,-19,205,0
1581178,74,-12,211,0
1581188,62,-8,218,0
1581199,60,-4,220,0
1581210,55,-1,226,0
1581221,56,1,226,0
1581232,58,2,225,0
1581243,59,3,222,0
1581254,65,2,221,0
1581265,69,3,219,0
1581276,71,1,215,0
1581287,73,3,212,0
1581298,71,5,208,0
1581309,68,10,207,0
1581320,62,13,208,0
1581332,57,12,216,0
1581343,47,11,222,0
1581354,36,12,229,0
1581365,26,10,237,0
1581376,20,11,239,0
1581387,13,11,242,0
1581398,8,16,244,0
1581409,8,14,235,0
1581420,7,13,230,0
1581431,7,10,227,0
1581442,8,10,226,0
1581453,7,6,224,0
1581464,5,10,221,0
1581475,3,11,220,0
1581486,0,12,220,0
1581497,-1,13,224,0
1581508,0,12,228,0
1581519,-1,13,231,0
1581530,-1,13,231,0
1581541,-5,12,234,0
1581553,-6,13,232,0
1581563,-8,12,231,0
1581574,-3,13,231,0
1581585,-1,12,231,0
1581596,-1,13,229,0
1581607,-2,10,226,0
1581618,-5,6,226,0
1581629,-4,3,222,0
1581641,-4,5,224,1
1581651,-8,12,226,0
1581662,-14,16,230,0
1581673,-21,22,231,0
1581684,-16,24,229,0
1581695,17,24,220,0
1581707,7,-11,269,0
1581718,13,-33,274,0
1581729,-6,-11,263,0
1581740,-3,-8,277,0
1581751,-8,0,289,0
1581762,2,-14,296,0
1581773,19,-4,287,0
1581784,38,13,283,0
1581795,68,13,282,0
1581806,103,17,271,0
1581817,129,18,247,0
1581828,149,13,223,0
1581839,146,5,199,0
1581850,132,-4,188,0
1581861,115,-13,177,0
1581872,100,-22,170,0
1581883,80,-10,171,0
1581894,25,2,190,0
1581905,3,5,213,0
1581917,-22,8,240,0
1581928,-41,22,263,0
1581938,-53,22,271,0
1581949,-44,15,276,0
1581960,-28,17,286,0
1581971,-13,6,270,0
1581982,2,-4,252,0
1581993,16,-7,244,0
1582004,32,-9,237,0
1582015,45,-10,227,0
1582026,49,-10,217,0
1582037,55,-10,210,0
1582048,59,-5,200,0
1582059,59,-1,196,0
1582071,53,-1,194,0
1582081,45,2,199,0
1582093,35,3,206,0
1582103,28,2,209,0
1582115,15,3,210,0
1582126,8,0,210,0
1582137,1,0,211,0
1582149,-3,-1,208,0
1582159,-7,-1,202,0
1582171,-10,-1,197,0
1582181,-10,-2,196,0
1582193,-6,-2,194,0
1582203,-3,0,196,0
1582214,-3,8,206,0
1582225,-3,16,216,0
1582236,-5,19,226,0
1582247,-8,22,230,0
1582258,-11,24,232,0
1582269,-13,25,234,0
1582280,-13,26,235,0
1582292,-15,25,240,0
1582303,-17,19,242,0
1582313,-16,9,245,0
1582324,-15,0,247,0
1582335,-10,-8,249,0
1582346,-10,-9,254,0
1582357,-12,-8,260,0
1582368,-13,-2,269,0
1582379,-17,10,276,0
1582391,-26,14,271,1
1582401,-26,6,273,0
1582412,29,-11,324,0
1582423,92,35,420,0
1582434,94,59,414,0
1582445,112,2,418,0
1582457,109,21,359,0
1582467,90,27,297,0
1582478,68,-9,241,0
1582489,51,-34,196,0
1582500,36,-33,161,0
1582511,25,-38,142,0
1582522,26,-45,140,0
1582533,37,-42,146,0
1582544,44,-26,154,0
1582555,40,-18,165,0
1582566,41,-8,185,0
1582578,46,-3,203,0
1582588,54,2,216,0
1582599,66,-1,220,0
1582610,79,-6,219,0
1582621,85,-8,215,0
1582632,92,-7,214,0
1582643,94,-3,221,0
1582654,91,1,224,0
1582665,81,-2,220,0
1582676,69,0,218,0
1582687,58,-1,215,0
1582699,49,2,215,0
1582710,50,4,214,0
1582721,42,3,213,0
1582732,35,2,209,0
1582743,26,1,210,0
1582754,14,2,215,0
1582765,10,1,217,0
1582776,6,2,218,0
1582787,11,2,219,0
1582798,15,1,217,0
1582809,19,1,217,0
1582820,19,2,218,0
1582831,23,2,223,0
1582843,20,-1,226,0
1582854,18,-1,225,0
1582864,13,1,223,0
1582875,11,4,220,0
1582886,7,3,217,0
1582897,5,1,217,0
1582908,1,3,214,0
1582919,0,2,214,0
1582930,-3,5,214,0
1582941,-2,5,213,0
1582953,1,4,218,0
1582963,3,6,217,0
1582974,5,5,219,0
1582985,9,3,219,0
1582996,9,4,218,0
1583008,7,6,215,0
1583019,7,10,210,0
1583030,5,17,210,0
1583041,2,26,209,0
1583053,-6,35,210,0
1583063,-17,37,208,0
1583075,-20,32,206,1
1583085,-9,26,200,0
1583096,4,9,213,0
1583107,7,-30,232,0
1583118,5,-40,232,0
1583129,-11,-14,236,0
1583140,-24,3,263,0
1583151,-22,18,292,0
1583162,5,43,309,0
1583173,66,57,353,0
1583184,91,64,352,0
1583195,106,62,344,0
1583206,113,60,326,0
1583217,120,54,311,0
1583228,119,46,290,0
1583239,115,30,259,0
1583250,109,13,225,0
1583261,99,-1,195,0
1583272,89,-15,169,0
1583283,74,-22,150,0
1583294,63,-26,137,0
1583305,50,-26,130,0
1583316,42,-23,131,0
1583328,36,-13,140,0
1583338,31,-2,187,0
1583349,27,6,209,0
1583360,22,11,233,0
1583371,19,17,254,0
1583382,10,19,259,0
1583393,7,13,268,0
1583404,11,10,270,0
1583416,6,13,262,0
1583426,8,10,257,0
1583437,12,7,255,0
1583448,18,6,256,0
1583459,26,2,257,0
1583470,32,1,251,0
1583481,42,-3,244,0
1583493,52,-8,240,0
1583503,46,-2,232,0
1583514,43,-1,229,0
1583525,44,0,230,0
1583536,37,0,229,0
1583547,37,-2,227,0
1583558,34,4,219,0
1583569,31,1,203,0
1583580,28,-1,206,0
1583592,29,-1,215,0
1583603,29,8,211,0
1583613,23,0,210,0
1583624,31,-6,208,0
1583635,40,0,191,0
1583646,41,1,178,0
1583657,44,11,171,0
1583668,35,16,182,0
1583679,21,7,212,0
1583691,13,10,218,0
1583703,2,19,224,0
1583713,-11,22,227,0
1583724,-24,17,229,0
1583735,-27,10,224,0
1583746,-29,8,223,0
1583757,-26,10,227,0
1583768,-23,5,234,0
1583779,-17,2,234,0
1583791,-11,0,230,0
1583802,-4,-1,226,1
1583812,0,1,232,0
1583823,49,-20,279,0
1583834,94,44,359,0
1583845,72,72,385,0
1583856,91,31,393,0
1583867,105,9,360,0
1583878,109,12,357,0
1583889,89,-6,364,0
1583900,71,-31,333,0
1583911,42,-30,268,0
1583922,15,-33,210,0
1583933,4,-45,180,0
1583944,4,-49,154,0
1583955,2,-51,140,0
1583966,9,-47,144,0
1583978,23,-35,159,0
1583988,50,-8,173,0
1583999,64,2,182,0
1584010,73,8,195,0
1584021,86,5,208,0
1584032,100,1,215,0
1584043,105,-1,217,0
1584054,103,-4,216,0
1584065,101,-7,216,0
1584076,104,-14,211,0
1584087,110,-18,207,0
1584098,110,-19,205,0
1584109,108,-15,206,0
1584120,100,-17,204,0
1584131,94,-15,204,0
1584143,89,-5,208,0
1584153,81,4,225,0
1584164,74,13,233,0
1584175,70,15,234,0
1584186,65,19,232,0
1584197,64,16,225,0
1584208,60,9,221,0
1584219,54,8,217,0
1584230,51,3,214,0
1584241,46,5,214,0
1584253,44,2,214,0
1584263,40,3,217,0
1584274,37,3,224,0
1584285,34,3,229,0
1584296,32,6,237,0
1584307,31,8,245,0
1584318,27,10,249,0
1584329,20,11,244,0
1584341,15,6,243,0
1584351,5,12,242,0
1584362,-2,7,235,0
1584373,-3,13,231,0
1584384,-7,10,223,0
1584395,-12,4,219,0
1584406,-12,3,216,0
1584417,-11,2,215,0
1584428,-10,7,218,0
1584439,-14,13,222,0
1584450,-14,11,225,0
1584461,-14,13,230,0
1584472,-17,16,233,0
1584483,-17,22,236,0
1584495,-22,22,238,1
1584505,-26,20,237,0
1584516,-28,20,242,0
1584528,-29,12,239,0
1584538,-31,12,235,0
1584549,-31,10,230,0
1584560,-26,11,222,0
1584571,-24,14,220,0
1584582,-15,17,214,0
1584593,12,6,209,0
1584604,35,-30,223,0
1584615,33,-63,234,0
1584626,42,-64,233,0
1584637,39,-59,231,0
1584648,34,-50,231,0
1584659,51,5,286,0
1584670,75,28,302,0
1584681,99,47,294,0
1584693,116,59,280,0
1584703,126,57,270,0
1584714,130,50,260,0
1584725,131,39,250,0
1584736,126,25,237,0
1584747,117,9,220,0
1584758,104,-4,198,0
1584769,94,-15,185,0
1584780,81,-25,180,0
1584792,71,-31,180,0
1584803,62,-28,187,0
1584813,56,-22,199,0
1584824,46,2,219,0
1584835,42,4,227,0
1584846,39,13,230,0
1584857,32,13,231,0
1584868,29,4,239,0
1584879,34,12,254,0
1584891,33,10,253,0
1584901,35,10,249,0
1584912,34,6,244,0
1584923,34,2,241,0
1584934,33,-3,227,0
1584945,35,-9,220,0
1584956,33,-4,217,0
1584967,34,0,217,0
1584978,35,-1,214,0
1584989,31,1,216,0
1585000,29,1,219,0
1585011,23,1,212,0
1585022,19,0,209,0
1585033,12,0,208,0
1585044,9,-1,202,0
1585055,4,-1,199,0
1585066,-2,-4,203,0
1585078,-10,-8,209,0
1585088,-18,-10,210,0
1585099,-19,-11,209,0
1585110,-16,-11,206,0
1585121,-13,-8,208,0
1585132,-10,-2,209,0
1585144,-8,-5,217,0
1585154,-7,-5,219,0
1585165,-7,-3,222,0
1585176,-10,-8,225,0
1585187,-10,-12,225,0
1585198,-10,-8,228,0
1585209,-16,-1,232,0
1585220,-20,-1,239,0
1585231,-25,1,244,0
1585242,-29,2,247,0
1585253,-33,0,241,0
1585264,-32,0,235,0
1585275,-30,-2,233,0
1585286,-25,-4,230,0
1585298,-21,-8,231,1
1585308,-6,-28,262,0
1585319,28,-54,296,0
1585330,65,-58,337,0
1585341,85,-36,335,0
1585353,84,-32,313,0
1585363,81,-35,305,0
1585374,84,-18,304,0
1585385,78,-1,292,0
1585396,67,-3,257,0
1585407,55,-19,222,0
1585418,45,-30,209,0
1585429,39,-37,198,0
1585440,40,-40,186,0
1585451,47,-32,184,0
1585462,60,-23,186,0
1585473,67,-18,190,0
1585484,84,-11,192,0
1585495,90,-10,190,0
1585506,97,-7,189,0
1585517,111,-9,192,0
1585528,128,-9,196,0
1585539,141,-9,205,0
1585551,146,-3,217,0
1585561,140,-1,220,0
1585572,115,56,160,0
1585583,106,-120,262,0
1585594,104,30,205,0
1585605,91,7,216,0
1585616,74,10,219,0
1585628,64,10,219,0
1585638,60,8,226,0
1585649,57,10,230,0
1585660,61,14,232,0
1585671,61,11,228,0
1585682,59,13,220,0
1585693,59,13,225,0
1585704,59,16,222,0
1585715,54,19,219,0
1585726,48,16,220,0
1585737,40,16,223,0
1585748,32,16,227,0
1585759,28,14,231,0
1585770,24,12,233,0
1585781,24,11,238,0
1585793,25,12,235,0
1585803,25,15,235,0
1585814,24,14,234,0
1585825,19,12,227,0
1585836,16,11,230,0
1585847,9,8,226,0
1585858,4,5,229,0
1585869,8,7,232,0
1585880,3,4,232,0
1585892,-2,3,233,0
1585903,-7,-1,230,0
1585913,-8,5,230,0
1585924,-14,7,227,0
1585935,-23,6,225,0
1585946,-26,8,223,0
1585957,-28,14,224,0
1585968,-33,15,223,0
1585979,-40,17,219,0
1585991,-42,16,217,0
1586001,-44,12,217,0
1586012,-43,9,217,0
1586023,-39,6,221,0
1586034,-37,5,227,0
1586045,-36,3,230,0
1586057,-32,1,235,1
1586067,-35,-2,237,0
1586078,-37,-3,237,0
1586089,-39,0,235,0
1586100,-26,1,231,0
1586111,3,4,228,0
1586123,-8,-36,261,0
1586133,16,-58,256,0
1586145,18,-16,261,0
1586155,21,-37,283,0
1586166,33,-20,294,0
1586178,60,7,294,0
1586188,89,28,299,0
1586199,120,37,298,0
1586210,143,52,280,0
1586221,166,53,247,0
1586232,174,58,215,0
1586243,178,39,187,0
1586254,179,34,160,0
1586265,164,28,158,0
1586276,140,18,174,0
1586287,106,21,183,0
1586298,67,31,187,0
1586309,-8,27,231,0
1586320,-25,37,275,0
1586331,-25,42,304,0
1586342,-20,35,285,0
1586353,-14,30,267,0
1586364,-6,26,264,0
1586375,1,18,254,0
1586386,7,13,236,0
1586397,25,11,228,0
1586408,36,17,228,0
1586419,42,11,209,0
1586430,44,8,197,0
1586441,38,7,188,0
1586453,31,6,184,0
1586463,23,3,186,0
1586474,12,5,194,0
1586485,9,8,199,0
1586496,4,10,204,0
1586507,1,7,207,0
1586518,-2,6,215,0
1586529,-6,2,218,0
1586540,-12,0,216,0
1586551,-19,-3,215,0
1586562,-23,-6,220,0
1586573,-26,-11,216,0
1586584,-29,-16,218,0
1586595,-27,-19,223,0
1586606,-24,-14,226,0
1586617,-24,-14,232,0
1586628,-24,-13,232,0
1586639,-20,-11,235,0
1586650,-20,-2,233,0
1586661,-14,6,238,0
1586672,-24,34,233,0
1586683,-29,16,239,0
1586694,-22,-10,237,0
1586706,-9,-30,232,1
1586716,5,-36,233,0
1586728,15,-32,242,0
1586739,16,-38,248,0
1586750,29,-38,269,0
1586761,58,-39,328,0
1586772,64,-17,353,0
1586783,73,-12,338,0
1586794,60,-22,309,0
1586805,57,-40,308,0
1586816,63,-36,324,0
1586828,50,-7,302,0
1586838,20,8,261,0
1586849,8,-2,230,0
1586860,8,-9,202,0
1586871,0,-21,184,0
1586882,3,-31,168,0
1586893,17,-36,159,0
1586904,35,-34,158,0
1586916,49,-24,162,0
1586926,66,-12,169,0
1586937,81,0,175,0
1586948,95,7,188,0
1586959,119,11,207,0
1586970,122,14,209,0
1586981,122,14,213,0
1586993,118,15,220,0
1587003,109,14,221,0
1587014,102,9,220,0
1587025,99,9,218,0
1587036,90,9,216,0
1587047,71,4,213,0
1587058,59,4,215,0
1587069,55,3,214,0
1587080,50,6,218,0
1587092,55,10,216,0
1587103,55,9,217,0
1587113,49,12,221,0
1587124,32,19,225,0
1587135,21,21,230,0
1587146,12,18,228,0
1587157,8,13,226,0
1587168,1,13,221,0
1587179,-3,14,223,0
1587191,-9,11,223,0
1587201,-11,6,222,0
1587212,-9,7,223,0
1587223,-4,8,224,0
1587235,3,5,230,0
1587246,5,8,229,0
1587257,9,6,227,0
1587268,12,3,224,0
1587279,3,2,222,0
1587291,2,1,226,0
1587301,1,0,228,0
1587312,5,-1,232,0
1587323,3,-3,226,0
1587334,3,-6,221,0
1587345,3,-2,222,0
1587356,7,-3,221,0
1587367,8,-1,221,0
1587378,8,1,219,0
1587389,5,2,215,0
1587400,2,4,212,0
1587411,0,8,212,0
1587422,-1,12,214,0
1587433,-3,18,218,0
1587445,-2,24,221,1
1587455,-5,25,225,0
1587466,-9,22,228,0
1587478,-17,14,229,0
1587488,-23,6,232,0
1587499,-30,5,233,0
1587510,-38,1,233,0
1587521,-46,-1,235,0
1587532,-52,-4,232,0
1587543,-43,-1,220,0
1587554,4,12,200,0
1587565,1,-19,248,0
1587576,25,-33,255,0
1587587,38,-17,249,0
1587598,25,-35,272,0
1587609,22,-3,315,0
1587620,53,7,321,0
1587631,84,27,324,0
1587643,109,31,330,1
1587653,140,28,322,0
1587665,157,34,303,0
1587675,158,33,262,0
1587686,166,29,230,0
1587697,158,21,188,0
1587708,144,10,153,0
1587719,126,8,131,0
1587730,110,13,125,0
1587741,91,18,135,0
1587753,69,21,158,0
1587763,52,19,177,0
1587774,28,18,227,0
1587785,20,25,258,0
1587796,23,27,277,0
1587807,26,22,277,0
1587818,33,20,261,0
1587829,37,16,247,0
1587840,36,13,238,0
1587851,34,12,233,0
1587862,32,13,233,0
1587873,33,12,230,0
1587884,37,9,226,0
1587895,42,9,226,0
1587906,43,9,226,0
1587917,44,9,223,0
1587928,45,10,226,0
1587939,33,9,215,0
1587950,27,7,209,0
1587961,19,5,207,0
1587972,17,7,213,0
1587983,10,6,208,0
1587994,5,7,208,0
1588005,5,8,204,0
1588016,3,13,204,0
1588028,2,13,200,0
1588038,0,12,200,0
1588049,-3,12,204,0
1588060,-8,10,205,0
1588071,-7,17,209,0
1588082,-6,18,211,0
1588093,-3,21,214,0
1588104,0,28,228,0
1588115,0,24,226,0
1588126,-5,16,223,0
1588137,-6,7,227,0
1588149,-4,5,232,0
1588159,-9,13,244,0
1588170,-17,20,254,0
1588181,-18,22,258,0
1588193,-11,21,260,0
1588204,13,21,273,1
1588214,58,47,323,0
1588225,67,85,356,0
1588236,59,64,364,0
1588247,57,35,336,0
1588258,69,19,336,0
1588269,41,16,296,0
1588280,19,3,246,0
1588292,6,-21,209,0
1588303,-2,-29,196,0
1588313,-3,-40,175,0
1588324,1,-44,166,0
1588335,11,-48,166,0
1588346,24,-36,170,0
1588358,34,-18,182,0
1588369,45,-4,188,0
1588380,52,9,195,0
1588392,57,18,197,0
1588403,63,21,200,0
1588413,83,23,218,0
1588425,90,13,216,0
1588435,93,8,211,0
1588446,89,0,210,0
1588457,88,-4,206,0
1588468,82,-4,204,0
1588479,77,-2,204,0
1588491,68,-2,205,0
1588501,63,-5,208,0
1588512,59,3,215,0
1588523,52,5,220,0
1588534,45,9,225,0
1588545,39,8,227,0
1588556,31,10,225,0
1588567,25,8,228,0
1588578,15,9,221,0
1588589,18,7,218,0
1588600,22,4,214,0
1588611,23,4,213,0
1588622,23,6,213,0
1588633,24,5,214,0
1588645,24,4,216,0
1588655,25,4,217,0
1588666,22,8,223,0
1588678,21,10,228,0
1588688,20,12,233,0
1588699,18,16,236,0
1588710,16,17,235,0
1588721,13,17,232,0
1588732,15,14,230,0
1588743,20,5,222,0
1588754,23,1,219,0
1588765,24,0,219,0
1588776,27,-1,218,0
1588787,27,-1,217,0
1588798,30,-7,218,0
1588809,29,-10,218,0
1588820,30,-9,219,0
1588831,29,-4,220,0
1588842,26,0,221,0
1588853,21,2,223,0
1588864,18,2,224,0
1588875,15,3,228,0
1588887,11,2,226,1
1588898,-1,7,219,0
1588909,-9,10,218,0
1588920,-9,14,216,0
1588931,11,22,208,0
1588942,29,25,237,0
1588953,21,-23,268,0
1588964,26,-15,263,0
1588975,19,2,250,0
1588986,15,25,262,0
1588997,11,26,285,0
1589008,13,4,292,0
1589019,25,5,290,0
1589030,34,15,300,0
1589041,59,29,314,0
1589053,84,35,312,0
1589063,115,38,284,0
1589074,116,29,255,0
1589085,113,20,232,0
1589096,105,5,204,0
1589107,101,-7,186,0
1589118,88,-12,170,0
1589129,80,-16,158,0
1589140,73,-20,149,0
1589151,68,-16,155,0
1589162,62,-8,169,0
1589173,55,-2,189,0
1589185,57,2,200,0
1589195,55,16,215,0
1589206,47,20,231,0
1589217,43,27,256,0
1589228,24,27,275,0
1589239,19,23,275,0
1589250,14,22,264,0
1589261,9,16,251,0
1589272,5,11,239,0
1589283,0,10,228,0
1589294,0,7,226,0
1589305,3,2,218,0
1589316,8,3,215,0
1589328,18,6,221,0
1589338,30,4,223,0
1589349,38,5,227,0
1589361,45,6,230,0
1589372,45,4,216,0
1589383,38,3,215,0
1589394,34,4,213,0
1589405,27,5,214,0
1589417,18,5,212,0
1589428,9,6,210,0
1589438,0,7,209,0
1589449,-4,8,210,0
1589460,-8,6,209,0
1589471,-9,7,208,0
1589482,-13,8,209,0
1589493,-14,11,212,0
1589504,-14,14,214,0
1589515,-12,18,216,0
1589526,-11,24,215,0
1589537,-2,21,221,0
1589548,1,16,225,0
1589559,4,13,227,0
1589570,8,11,228,0
1589581,9,11,220,0
1589593,6,15,219,0
1589603,1,8,222,0
1589614,-2,3,227,0
1589625,-3,2,229,0
1589636,-3,7,239,0
1589647,-4,15,249,0
1589659,-14,27,254,1
1589669,-15,29,272,0
1589680,23,13,311,0
1589692,61,48,383,0
1589703,60,40,357,0
1589713,82,-11,333,0
1589724,96,5,347,0
1589735,79,20,342,0
1589746,50,20,293,0
1589757,30,16,240,0
1589768,-8,28,186,0
1589779,-31,-88,235,0
1589791,-3,-53,146,0
1589801,5,-8,162,0
1589812,32,-60,147,0
1589823,43,-29,160,0
1589834,67,-39,168,0
1589845,76,-24,175,0
1589856,84,-17,186,0
1589867,95,-2,203,0
1589878,92,-1,212,0
1589889,89,0,220,0
1589900,87,0,223,0
1589911,81,-1,220,0
1589922,71,-2,212,0
1589933,64,-4,205,0
1589945,59,-5,207,0
1589955,60,0,220,0
1589966,62,1,219,0
1589978,64,0,214,0
1589988,64,1,215,0
1589999,58,-2,218,0
1590010,47,-5,218,0
1590021,44,0,222,0
1590032,49,2,226,0
1590043,46,1,223,0
1590054,45,0,221,0
1590065,43,-1,217,0
1590076,39,0,218,0
1590087,36,1,220,0
1590098,34,1,216,0
1590110,32,4,216,0
1590120,28,5,218,0
1590131,23,7,221,0
1590142,14,7,222,0
1590153,7,6,223,0
1590164,2,9,227,0
1590175,-1,8,233,0
1590186,-3,11,234,0
1590197,-4,12,232,0
1590208,0,11,230,0
1590219,2,10,225,0
1590230,3,7,220,0
1590241,6,5,221,0
1590253,10,3,216,0
1590263,17,1,215,0
1590274,21,-1,217,0
1590285,24,0,218,0
1590296,28,-3,220,0
1590307,29,-6,220,0
1590318,29,-6,223,0
1590329,28,-2,225,0
1590341,30,-2,225,0
1590351,31,-1,226,0
1590362,29,-1,220,0
1590373,25,-2,219,0
1590384,19,-3,216,0
1590396,12,0,216,1
1590406,5,2,216,0
1590417,18,7,211,0
1590428,26,5,235,0
1590439,22,-33,253,0
1590450,18,-23,242,0
1590461,1,-4,239,0
1590472,-11,9,260,0
1590483,-17,15,280,0
1590494,-4,9,284,0
1590505,3,10,289,0
1590516,16,18,296,0
1590528,69,38,308,0
1590538,100,45,306,0
1590549,113,47,296,0
1590560,115,42,279,0
1590571,111,32,253,0
1590582,105,18,227,0
1590593,95,4,200,0
1590604,88,0,183,0
1590615,78,-7,164,0
1590626,75,-13,151,0
1590637,71,-16,143,0
1590648,67,-16,140,0
1590659,63,-14,146,0
1590670,63,-12,164,0
1590681,64,-8,184,0
1590693,68,7,212,0
1590703,66,15,237,0
1590714,56,14,258,0
1590725,56,15,278,0
1590736,47,13,282,0
1590747,38,10,278,0
1590758,31,8,271,0
1590769,21,9,267,0
1590780,14,11,260,0
1590792,7,4,253,0
1590803,3,0,237,0
1590813,1,4,231,0
1590824,1,10,230,0
1590835,4,13,233,0
1590846,10,13,235,0
1590857,23,14,229,0
1590868,28,6,217,0
1590879,25,2,213,0
1590891,26,4,213,0
1590901,24,5,209,0
1590912,22,5,210,0
1590923,19,3,210,0
1590934,19,1,211,0
1590945,14,1,207,0
1590956,13,2,204,0
1590967,13,2,203,0
1590978,13,5,203,0
1590989,12,8,206,0
1591000,9,7,206,0
1591011,6,10,208,0
1591022,5,15,207,0
1591033,5,17,213,0
1591045,3,21,221,0
1591055,1,26,227,0
1591066,-4,26,232,0
1591078,-10,21,234,0
1591088,-12,13,233,0
1591099,-14,15,229,0
1591111,-14,14,228,1
1591121,-13,17,225,0
1591133,-12,16,231,0
1591145,-11,12,238,0
1591155,-13,17,242,0
1591166,3,15,257,0
1591178,53,88,350,0
1591188,40,76,339,0
1591199,59,24,323,0
1591210,88,7,320,0
1591221,104,22,336,0
1591232,92,31,334,0
1591243,84,22,289,0
1591254,69,1,244,0
1591265,44,-3,214,0
1591276,24,-6,191,0
1591287,12,-20,176,0
1591298,4,-31,165,0
1591309,12,-36,163,0
1591320,26,-26,171,0
1591331,39,-16,180,0
1591342,63,1,190,0
1591353,75,11,197,0
1591365,92,18,206,0
1591375,104,25,215,0
1591386,114,26,218,0
1591397,119,23,220,0
1591408,118,24,224,0
1591419,108,25,227,0
1591430,92,27,226,0
1591441,77,24,225,0
1591453,71,18,219,0
1591463,66,18,214,0
1591474,68,14,212,0
1591485,71,12,210,0
1591497,82,14,208,0
1591507,80,13,211,0
1591518,80,11,217,0
1591529,79,12,220,0
1591540,81,12,223,0
1591551,80,14,220,0
1591562,76,15,219,0
1591573,73,16,217,0
1591584,71,17,217,0
1591595,66,17,221,0
1591606,64,18,222,0
1591617,59,19,222,0
1591628,55,19,222,0
1591639,49,22,227,0
1591650,47,22,226,0
1591661,43,20,228,0
1591672,38,22,228,0
1591683,33,24,229,0
1591694,31,26,230,0
1591705,34,26,233,0
1591716,34,25,234,0
1591728,37,24,234,0
1591738,39,22,234,0
1591749,40,22,233,0
1591760,41,21,233,0
1591771,39,19,233,0
1591782,37,16,230,0
1591793,35,13,232,0
1591804,28,7,231,0
1591817,27,12,228,1
1591828,27,15,228,0
1591838,34,12,227,0
1591849,46,17,223,0
1591860,57,17,219,0
1591871,65,-2,223,0
1591882,69,-28,224,0
1591893,68,-31,214,0
1591904,60,-23,206,0
1591916,50,-12,210,0
1591926,43,0,224,0
1591937,39,9,231,0
1591948,39,14,234,0
1591960,41,16,235,0
1591971,49,14,224,0
1591982,52,11,221,0
1591993,55,8,216,0
1592004,57,6,214,0
1592015,58,4,216,0
1592026,57,4,221,0
1592037,56,4,226,0
1592048,53,4,231,0
1592059,52,3,232,0
1592070,48,4,233,0
1592081,43,3,233,0
1592093,41,1,234,0
1592103,40,1,236,0
1592114,39,1,236,0
1592125,39,2,235,0
1592136,44,1,229,0
1592147,46,1,227,0
1592158,50,2,227,0
1592170,51,2,229,0
1592180,52,4,229,0
1592192,51,5,229,0
1592203,50,5,229,0
1592214,49,5,226,0
1592225,46,4,227,0
1592236,43,2,228,0
1592247,42,1,228,0
1592258,39,1,230,0
1592269,38,2,229,0
1592280,38,4,229,0
1592292,37,4,231,0
1592303,37,3,230,0
1592313,37,3,232,0
1592324,39,2,231,0
1592335,40,1,231,0
1592346,41,1,230,0
1592357,41,1,229,0
1592368,40,1,226,0
1592379,41,2,226,0
1592391,39,5,231,0
1592401,38,3,227,0
1592412,40,5,233,0
1592423,42,2,229,0
1592434,45,2,228,0
1592446,42,2,227,0
1592456,42,3,228,0
1592467,40,6,229,0
1592478,37,5,229,0
1592489,35,3,231,0
1592500,33,4,231,0
1592511,32,2,229,0
1592522,32,4,226,0
1592533,31,4,230,0
1592544,32,3,227,0
1592555,32,7,232,0
1592566,33,5,232,0
1592578,37,3,230,0
1592588,39,3,230,0
1592599,40,3,230,0
1592610,39,2,225,0
1592621,42,4,226,0
1592633,42,5,229,0
1592644,42,4,228,0
1592655,41,2,226,0
1592666,41,4,227,0
1592678,41,4,229,0
1592688,40,5,229,0
1592699,38,4,228,0
1592710,37,6,229,0
1592721,37,4,228,0
1592732,35,5,231,0
1592743,35,6,230,0
1592754,34,6,230,0
1592765,34,5,229,0
1592776,34,5,229,0
1592787,37,5,228,0
1592798,36,5,227,0
1592809,37,5,228,0
1592820,37,5,227,0
1592831,36,7,229,0
1592842,37,5,228,0
1592853,37,5,230,0
1592864,36,5,227,0
1592875,36,8,232,0
1592887,37,7,234,0
1592897,38,6,233,0
1592908,37,5,230,0
1592919,36,8,230,0
1592930,37,4,225,0
1592941,37,4,226,0
1592953,38,7,228,0
1592963,39,6,227,0
1592974,39,6,228,0
1592985,44,10,234,0
1592996,37,7,229,0
1593007,43,10,231,0
1593018,41,10,231,0
1593029,38,9,233,0
1593040,41,9,231,0
1593051,42,6,229,0
1593062,43,5,227,0
