timestamp,accX,accY,accZ,step
151538,31,35,270,0
151549,21,12,235,0
151560,19,9,230,0
151571,17,11,231,0
151582,17,8,233,0
151592,18,6,232,0
151602,18,6,232,0
151613,23,9,230,0
151624,24,11,234,0
151635,23,10,231,0
151645,22,10,229,0
151656,21,10,227,0
151666,21,11,231,0
151677,17,10,231,0
151688,19,8,231,0
151698,19,7,232,0
151709,22,5,232,0
151720,23,7,231,0
151732,24,10,231,0
151743,26,8,230,0
151754,26,9,228,0
151765,26,11,228,0
151776,28,8,231,0
151787,29,9,230,0
151798,26,8,229,0
151809,26,7,231,0
151820,24,6,232,0
151831,24,6,234,0
151842,23,7,233,0
151853,23,8,232,0
151864,23,6,231,0
151875,24,6,231,0
151886,23,6,231,0
151897,22,7,231,0
151908,21,6,232,0
151919,22,6,231,0
151930,20,7,231,0
151941,18,6,231,0
151952,18,6,232,0
151963,20,5,232,0
151974,20,7,230,0
151985,18,9,230,0
151996,17,9,229,0
152007,15,9,229,0
152018,14,8,226,0
152029,14,7,229,0
152040,14,6,228,0
152051,18,4,231,0
152062,21,5,232,0
152073,23,7,232,0
152084,22,8,230,0
152095,23,9,232,0
152106,26,9,233,0
152117,26,10,232,0
152128,29,6,231,0
152139,30,6,233,0
152150,27,9,231,0
152161,25,12,230,0
152172,22,11,231,0
152183,22,10,232,0
152194,22,9,230,0
152205,24,7,229,0
152216,24,5,230,0
152227,26,6,230,0
152238,24,10,229,0
152249,20,9,230,0
152260,16,10,228,0
152271,16,12,230,0
152282,13,10,231,0
152293,12,7,232,0
152304,10,8,233,0
152315,10,9,233,0
152326,11,9,234,0
152337,14,9,233,0
152348,19,9,233,0
152359,22,11,232,0
152370,21,9,229,0
152381,23,4,228,0
152392,24,3,226,0
152403,25,3,229,0
152414,26,3,230,0
152426,29,3,231,0
152437,31,5,232,0
152448,32,6,232,0
152459,31,9,231,0
152470,31,6,230,0
152481,30,5,231,0
152492,31,5,230,0
152503,30,6,229,0
152514,29,5,229,0
152525,29,3,230,0
152536,29,5,230,0
152547,25,6,229,0
152558,24,4,229,0
152569,24,2,231,0
152580,23,4,231,0
152591,22,7,231,0
152602,21,9,233,0
152613,22,8,232,0
152624,21,7,232,0
152635,22,5,228,0
152646,19,4,226,0
152657,17,3,225,0
152668,16,4,228,0
152679,16,4,231,0
152690,17,6,233,0
152701,19,7,236,0
152712,21,9,235,0
152723,22,9,237,0
152734,24,7,233,0
152745,23,6,228,0
152756,21,6,227,0
152767,19,4,231,0
152778,19,7,230,0
152789,19,6,232,0
152800,18,6,231,0
152811,18,6,233,0
152822,18,6,233,0
152833,18,8,233,0
152844,18,8,231,0
152856,17,8,230,0
152867,18,10,228,0
152878,19,9,230,0
152889,20,7,231,0
152900,22,7,232,0
152911,23,7,231,0
152922,26,8,228,0
152933,25,8,229,0
152944,26,7,229,0
152955,27,7,230,0
152966,28,9,230,0
152977,27,12,232,0
152988,26,16,235,0
152999,27,15,234,0
153010,27,13,236,0
153021,28,14,238,0
153032,31,17,237,0
153043,33,21,230,0
153054,30,17,223,0
153065,28,16,220,0
153076,21,11,223,0
153087,19,12,227,0
153098,17,16,233,0
153109,15,16,235,0
153120,14,21,230,0
153131,12,24,230,0
153142,9,24,227,0
153153,6,24,227,0
153164,4,27,230,0
153175,3,30,227,0
153186,1,30,228,0
153197,1,32,229,0
153208,0,32,229,0
153219,3,31,233,0
153230,8,29,232,0
153241,10,25,234,0
153252,12,24,232,0
153263,14,26,230,0
153274,14,28,228,0
153285,12,29,228,0
153296,12,30,229,0
153307,12,33,232,0
153318,12,34,233,0
153329,13,34,230,0
153340,11,32,230,0
153351,9,33,230,0
153362,12,31,231,0
153373,12,34,229,0
153384,11,33,229,0
153395,14,33,231,0
153406,15,30,230,0
153417,15,28,231,0
153428,15,30,229,0
153439,14,30,227,0
153450,14,31,228,0
153461,12,32,230,0
153472,12,30,230,0
153483,11,30,233,0
153494,11,30,232,0
153505,12,29,230,0
153516,13,28,228,0
153527,14,29,226,0
153538,16,26,223,0
153549,20,29,225,0
153560,22,29,228,0
153571,19,28,228,0
153582,21,30,229,0
153593,19,29,227,0
153604,17,29,226,0
153615,18,28,224,0
153626,14,27,222,0
153637,15,29,225,0
153648,17,31,225,0
153659,17,32,227,0
153670,16,31,228,0
153681,16,30,226,0
153692,13,30,224,0
153703,12,30,224,0
153714,12,34,225,0
153725,8,34,229,0
153736,10,35,232,0
153747,9,34,230,0
153758,7,34,226,0
153769,6,36,224,0
153780,7,40,223,0
153791,6,43,223,0
153802,5,48,223,0
153813,3,46,225,0
153824,2,43,227,0
153835,2,44,227,0
153846,4,52,226,0
153857,4,61,226,0
153868,1,64,228,0
153879,1,64,227,0
153890,1,67,224,0
153901,-4,82,211,0
153912,-11,83,211,0
153923,-14,84,213,1
153934,-11,79,221,0
153945,-14,72,229,0
153956,-8,66,242,0
153967,-1,64,261,0
153978,0,73,283,0
153989,0,80,302,0
154000,8,77,308,0
154011,26,70,302,0
154022,45,67,296,0
154033,65,67,294,0
154044,83,65,292,0
154055,111,44,278,0
154066,107,25,260,1
154077,100,2,239,0
154088,92,-2,222,0
154099,89,-6,207,0
154110,89,-7,208,0
154121,81,-2,207,0
154132,70,3,212,0
154143,62,9,228,0
154154,54,9,242,0
154165,49,5,248,0
154176,47,3,246,0
154187,45,1,240,0
154198,46,0,235,0
154209,53,1,237,0
154220,59,-2,222,0
154231,61,-1,213,0
154242,62,-4,205,0
154253,62,0,200,0
154264,62,3,195,0
154275,61,9,194,0
154286,61,13,195,0
154297,60,16,195,0
154308,59,18,200,0
154319,57,24,203,0
154330,50,23,209,0
154341,46,22,215,0
154352,41,23,215,0
154363,36,23,210,0
154374,29,20,207,0
154385,27,10,208,0
154396,26,5,205,0
154407,25,5,201,0
154418,23,6,195,0
154429,20,8,192,0
154440,20,9,193,0
154451,18,0,205,0
154462,25,0,206,0
154473,24,5,201,0
154484,23,7,210,0
154495,24,12,216,0
154506,30,14,205,0
154517,19,21,202,0
154528,14,21,207,0
154539,6,15,205,0
154550,-17,11,207,0
154561,-31,9,218,0
154572,-38,5,232,0
154583,-42,11,245,0
154594,-38,17,255,0
154605,-40,24,266,0
154616,-45,23,273,0
154627,-51,21,267,1
154638,-57,21,258,0
154649,-56,21,263,0
154660,-26,27,309,0
154671,24,42,370,0
154682,70,48,428,0
154693,96,42,420,0
154704,118,21,372,0
154715,173,6,315,0
154726,181,-26,338,0
154737,152,-14,287,0
154748,120,5,201,0
154759,87,-5,156,0
154770,70,-24,149,0
154781,53,-44,139,0
154792,37,-60,126,0
154803,37,-53,131,0
154814,43,-50,137,0
154825,61,-36,157,0
154836,88,-24,175,0
154847,107,-15,188,0
154858,116,-8,196,0
154869,109,6,207,0
154880,98,11,210,0
154891,84,16,214,0
154902,68,23,225,0
154913,48,24,213,0
154924,38,17,208,0
154935,22,16,208,0
154946,6,14,202,0
154957,0,14,200,0
154968,0,8,199,0
154979,1,3,200,0
154990,1,-1,204,0
155001,2,-2,207,0
155012,6,-1,214,0
155023,6,6,215,0
155034,2,14,226,0
155045,2,16,225,0
155056,4,18,221,0
155067,5,21,222,0
155078,6,23,224,0
155089,7,18,224,0
155100,9,13,220,0
155111,12,14,222,0
155122,10,15,224,0
155133,12,11,226,0
155144,12,6,223,0
155155,11,2,219,0
155166,6,0,216,0
155177,4,-5,216,0
155188,4,0,213,0
155199,0,1,210,0
155210,3,5,213,0
155221,6,17,207,0
155232,6,35,205,0
155243,0,44,209,0
155254,-14,49,216,0
155265,-28,50,222,1
155276,-37,40,228,0
155287,-30,17,233,0
155298,-7,0,243,0
155309,15,-14,265,0
155320,23,-24,293,0
155331,26,-23,325,0
155342,26,-10,340,0
155353,26,3,347,0
155364,54,44,344,0
155375,75,62,328,0
155386,89,45,316,0
155397,100,13,292,0
155408,111,4,249,0
155419,113,6,220,0
155430,112,6,212,0
155441,106,6,211,0
155453,97,7,222,0
155463,82,4,235,0
155474,65,2,239,0
155485,51,3,238,0
155496,43,12,244,0
155507,33,10,237,0
155518,30,11,235,0
155529,40,11,229,0
155540,53,15,228,0
155551,53,13,214,0
155562,46,12,196,0
155573,40,17,183,0
155584,38,15,180,0
155595,34,12,184,0
155606,31,9,190,0
155617,27,4,193,0
155628,24,2,194,0
155639,26,8,200,0
155650,30,5,199,0
155661,37,7,194,0
155672,42,10,197,0
155683,46,6,199,0
155694,39,9,199,0
155705,29,11,197,0
155716,16,13,198,0
155727,7,15,198,0
155738,1,13,195,0
155749,-2,9,196,0
155760,-8,8,192,0
155771,-21,9,188,0
155782,-35,6,191,0
155793,-51,7,195,0
155804,-60,11,208,0
155815,-49,4,225,0
155826,-32,22,239,0
155837,-25,37,239,0
155848,-28,31,256,0
155859,-30,17,258,0
155870,-31,22,272,0
155881,-38,7,272,0
155892,-43,0,255,1
155903,-53,3,253,0
155914,-44,8,268,0
155925,-11,19,315,0
155936,46,10,358,0
155947,94,20,398,0
155958,116,6,412,0
155969,141,-1,374,0
155980,151,16,340,0
155991,135,22,334,0
156002,126,5,323,0
156013,80,-16,232,0
156024,61,-32,199,0
156035,51,-40,183,0
156046,31,-41,161,0
156057,13,-39,146,0
156068,1,-45,138,0
156079,0,-47,137,0
156090,6,-43,144,0
156101,16,-30,154,0
156112,41,-14,171,0
156123,66,-6,184,0
156134,85,7,194,0
156145,98,14,198,0
156156,95,23,209,0
156167,84,23,213,0
156178,77,31,219,0
156189,75,26,218,0
156200,68,22,215,0
156211,64,21,208,0
156222,56,20,198,0
156233,48,17,199,0
156244,41,11,203,0
156255,34,9,207,0
156266,29,10,217,0
156277,20,13,219,0
156288,13,17,222,0
156299,7,20,220,0
156310,1,24,221,0
156321,-5,27,221,0
156332,-7,27,223,0
156343,0,23,231,0
156354,5,23,230,0
156365,13,25,227,0
156376,18,28,224,0
156387,22,24,222,0
156398,23,16,219,0
156409,23,6,215,0
156420,24,4,210,0
156431,27,7,206,0
156442,29,9,201,0
156453,25,11,205,0
156464,23,13,210,0
156475,21,19,214,0
156486,17,22,218,0
156497,15,16,224,0
156508,14,4,218,0
156519,14,1,214,0
156530,12,0,215,0
156541,6,3,218,0
156552,-1,5,226,0
156563,-12,8,236,0
156574,-25,15,242,0
156585,-36,25,241,0
156596,-44,31,244,0
156607,-41,36,247,1
156618,-18,54,240,0
156629,21,66,242,0
156640,59,49,265,0
156651,58,-6,300,0
156662,54,-42,301,0
156673,-1,-10,318,0
156684,-23,-6,319,0
156695,5,8,305,0
156706,61,38,291,0
156717,117,53,272,0
156728,134,57,247,0
156739,133,33,235,0
156750,128,25,233,0
156761,125,30,222,0
156772,127,44,234,0
156783,125,53,256,0
156794,105,43,255,0
156805,69,44,260,0
156816,31,41,259,0
156827,0,39,262,0
156838,-27,26,254,0
156849,-21,20,247,0
156860,-2,17,237,0
156871,14,16,227,0
156882,23,23,214,0
156893,30,29,202,0
156904,32,35,193,0
156915,39,36,182,0
156926,38,33,177,0
156937,36,26,172,0
156948,34,16,169,0
156959,30,0,185,0
156970,34,-26,197,0
156981,43,20,192,0
156992,34,11,196,0
157003,30,16,173,0
157014,26,16,172,0
157025,29,20,187,0
157036,33,9,193,0
157047,32,6,192,0
157058,30,10,197,0
157069,23,15,205,0
157080,15,16,205,0
157091,5,21,211,0
157102,-14,26,218,0
157113,-31,19,228,0
157124,-35,21,235,0
157135,-37,33,242,0
157146,-40,39,242,0
157157,-34,24,252,0
157168,-22,23,267,0
157179,-7,12,282,0
157190,1,13,282,0
157201,0,16,269,0
157212,-10,15,261,0
157223,-17,12,256,0
157234,-5,13,263,0
157245,28,31,281,0
157256,63,42,303,0
157267,71,46,314,1
157278,84,36,286,0
157289,119,24,280,0
157300,146,24,319,0
157311,143,26,365,0
157322,98,-7,282,0
157333,78,-25,200,0
157344,76,-38,150,0
157355,72,-32,142,0
157366,72,-20,144,0
157377,61,-16,148,0
157388,44,-5,150,0
157399,24,5,153,0
157410,29,20,171,0
157421,48,30,193,0
157432,66,39,199,0
157443,75,44,201,0
157454,79,38,200,0
157465,85,34,197,0
157476,82,41,195,0
157487,59,45,212,0
157498,43,32,212,0
157509,26,27,214,0
157520,8,21,222,0
157531,-1,20,227,0
157542,-6,17,231,0
157553,-7,11,227,0
157564,-7,13,223,0
157575,-4,20,221,0
157586,0,24,218,0
157597,3,27,222,0
157608,5,32,223,0
157619,7,40,225,0
157630,6,45,229,0
157641,4,49,228,0
157652,4,54,225,0
157663,2,52,219,0
157674,0,49,216,0
157685,1,40,212,0
157696,4,41,210,0
157707,11,42,206,0
157718,16,42,206,0
157729,23,40,209,0
157740,26,39,215,0
157751,28,36,220,0
157762,32,35,226,0
157773,35,30,234,0
157784,39,16,240,0
157795,38,11,235,0
157806,36,17,235,0
157817,32,34,239,0
157828,19,58,241,0
157839,0,73,239,0
157850,-22,74,239,0
157861,-43,77,238,0
157872,-59,77,231,1
157883,-57,69,243,0
157894,-45,61,264,0
157905,-34,49,287,0
157916,-18,35,311,0
157927,4,25,317,0
157938,26,32,319,0
157949,45,37,319,0
157960,56,37,310,0
157971,78,39,289,0
157982,83,22,284,0
157993,99,10,265,0
158004,122,15,236,0
158015,141,23,219,0
158026,151,35,217,0
158037,144,37,216,0
158048,137,42,210,0
158059,126,42,209,0
158070,106,32,219,0
158081,89,20,229,0
158092,74,11,235,0
158103,60,11,236,0
158114,48,5,232,0
158125,41,7,227,0
158136,32,12,214,0
158147,35,16,205,0
158158,37,19,199,0
158169,37,24,199,0
158180,38,25,203,0
158191,40,26,204,0
158202,42,24,204,0
158213,46,19,209,0
158224,48,13,212,0
158235,53,9,206,0
158246,58,8,200,0
158257,60,7,201,0
158268,59,2,204,0
158279,52,3,207,0
158290,44,4,198,0
158301,29,7,180,0
158312,12,2,180,0
158323,5,8,190,0
158334,0,8,192,0
158345,-2,6,200,0
158356,-5,0,207,0
158367,1,16,208,0
158378,-1,20,210,0
158389,-1,30,225,0
158400,3,30,234,0
158411,9,28,241,0
158422,6,23,233,0
158433,-3,14,242,0
158444,-11,6,235,0
158455,-24,11,227,0
158466,-32,20,231,0
158477,-34,15,236,0
158488,-34,14,225,1
158499,-44,17,218,0
158510,-51,22,221,0
158521,-50,31,247,0
158532,-22,53,303,0
158543,18,67,373,0
158554,65,66,428,0
158565,101,50,410,0
158576,143,31,353,0
158587,187,-9,357,0
158598,195,-55,411,0
158609,175,-18,342,0
158620,124,-17,230,0
158631,70,-40,133,0
158642,50,-59,105,1
158653,26,-63,108,0
158664,15,-51,129,0
158675,12,-38,157,0
158686,27,-25,171,0
158697,50,-16,176,0
158708,65,-11,188,0
158719,71,4,215,0
158730,80,8,229,0
158741,88,11,238,0
158752,84,11,229,0
158763,79,13,224,0
158774,64,13,217,0
158785,45,12,215,0
158796,15,14,223,0
158807,3,14,215,0
158818,-2,8,210,0
158829,-2,12,209,0
158840,-12,10,203,0
158852,-17,16,207,0
158863,-12,18,204,0
158874,-10,16,204,0
158885,-8,19,206,0
158896,-6,21,207,0
158907,-12,24,212,0
158918,-15,27,217,0
158929,-21,25,220,0
158940,-21,23,220,0
158951,-14,21,217,0
158962,-11,18,216,0
158973,1,18,217,0
158984,11,18,220,0
158995,22,19,224,0
159006,29,19,229,0
159017,28,18,231,0
159028,28,8,232,0
159039,27,3,227,0
159050,21,-3,215,0
159061,11,0,204,0
159072,4,7,196,0
159083,-1,11,192,0
159094,-5,15,193,0
159105,-10,28,203,0
159116,-12,36,215,0
159127,-16,45,227,1
159138,-13,49,244,0
159149,-5,44,259,0
159160,15,42,275,0
159171,33,43,294,0
159182,35,41,310,0
159193,28,27,321,0
159204,12,6,332,0
159215,5,1,331,0
159226,5,0,331,0
159237,24,2,328,0
159248,69,12,305,0
159259,91,15,288,0
159270,104,-35,246,0
159281,110,-27,216,0
159292,110,-3,198,0
159303,103,11,204,0
159314,101,26,218,0
159325,98,41,231,0
159336,84,47,234,0
159347,67,37,238,0
159358,47,31,252,0
159369,29,25,259,0
159380,18,21,260,0
159391,11,21,261,0
159402,9,21,250,0
159413,16,17,238,0
159424,30,16,210,0
159435,33,16,199,0
159446,40,16,193,0
159457,40,18,191,0
159468,43,14,191,0
159479,47,12,191,0
159490,49,9,192,0
159501,53,8,191,0
159512,58,8,193,0
159523,57,1,197,0
159534,60,-1,206,0
159545,56,-1,194,0
159556,48,-1,194,0
159567,36,-7,194,0
159578,25,-17,189,0
159589,2,0,201,0
159600,-2,7,195,0
159611,-12,20,195,0
159622,-18,18,195,0
159633,-18,15,189,0
159644,-24,16,193,0
159655,-31,19,203,0
159666,-47,21,213,0
159677,-58,15,226,0
159688,-53,11,242,0
159699,-51,16,241,0
159710,-53,26,235,0
159721,-52,29,237,1
159732,-37,29,265,0
159743,-36,25,284,0
159754,-34,21,255,0
159765,-40,18,249,0
159776,-29,22,263,0
159787,10,39,304,0
159798,65,54,349,0
159809,89,55,374,0
159820,121,32,357,0
159831,144,14,312,0
159842,176,9,318,0
159853,185,-3,356,0
159864,153,-1,331,0
159875,111,-9,260,0
159886,81,-22,198,0
159897,65,-36,165,0
159908,56,-43,151,0
159919,29,-39,136,0
159930,18,-28,142,0
159941,13,-12,156,0
159952,24,14,190,0
159963,49,25,205,0
159974,65,39,220,0
159986,73,33,215,0
159997,72,28,205,0
160008,74,21,201,0
160019,75,24,206,0
160030,78,26,213,0
160041,67,27,222,0
160052,54,26,219,0
160063,32,16,214,0
160074,22,16,222,0
160085,15,15,224,0
160096,11,17,224,0
160107,6,16,224,0
160118,1,18,221,0
160129,-8,18,219,0
160140,-10,19,216,0
160151,-8,20,215,0
160162,-3,21,217,0
160173,0,25,219,0
160184,4,30,222,0
160195,5,34,228,0
160206,7,36,231,0
160217,10,38,230,0
160228,9,38,225,0
160239,11,36,224,0
160250,15,37,221,0
160261,19,33,218,0
160272,22,32,216,0
160283,26,30,218,0
160294,33,25,218,0
160305,41,18,219,0
160316,45,9,221,0
160327,45,6,218,0
160338,42,4,215,0
160349,33,7,217,0
160360,26,9,217,0
160371,19,15,220,0
160382,12,21,222,0
160393,5,31,222,0
160404,6,36,226,0
160415,7,36,231,0
160426,4,36,229,0
160437,0,37,230,0
160448,-2,41,235,0
160460,-2,53,247,1
160471,-5,56,256,0
160482,1,57,264,0
160493,13,59,269,0
160504,16,52,283,0
160515,9,31,302,0
160526,-1,9,310,0
160537,-9,3,311,0
160548,3,16,307,0
160559,30,14,281,0
160570,57,15,261,0
160581,70,17,265,1
160592,78,-2,256,0
160603,89,-11,234,0
160614,106,-1,210,0
160625,123,15,197,0
160636,129,25,188,0
160647,130,37,198,0
160658,124,49,210,0
160669,114,46,222,0
160680,97,34,235,0
160691,73,20,239,0
160702,35,11,251,0
160713,23,9,249,0
160724,19,6,247,0
160735,18,3,242,0
160746,26,4,228,0
160757,33,11,221,0
160768,37,15,216,0
160779,36,20,218,0
160790,37,26,222,0
160801,40,27,224,0
160812,45,23,225,0
160823,49,20,216,0
160834,52,12,205,0
160845,54,10,201,0
160856,58,10,199,0
160867,57,3,195,0
160878,54,1,193,0
160889,50,0,194,0
160900,43,-3,193,0
160911,34,-2,194,0
160922,22,0,191,0
160933,11,1,188,0
160944,4,3,188,0
160955,-1,4,191,0
160966,-1,3,193,0
160977,2,2,196,0
160988,4,6,200,0
160999,4,8,197,0
161010,3,11,205,0
161021,-1,9,207,0
161032,-11,4,211,0
161043,-19,4,211,0
161055,-31,3,217,0
161066,-40,0,221,0
161077,-41,0,226,0
161088,-41,3,232,0
161099,-43,7,245,0
161110,-40,8,259,0
161121,-41,18,260,0
161132,-45,25,264,1
161143,-51,24,272,0
161154,-56,37,269,0
161165,-59,41,258,0
161176,-2,31,304,0
161187,75,44,400,0
161198,141,63,454,0
161209,157,90,433,0
161220,154,37,362,0
161231,191,17,316,0
161242,223,30,288,0
161253,183,-116,420,0
161264,164,-19,284,0
161275,97,8,183,0
161286,71,-27,131,0
161297,63,-21,134,0
161308,47,-27,110,0
161319,19,-38,112,0
161330,9,-26,131,0
161341,15,-31,180,0
161352,47,-21,204,0
161363,78,-14,231,0
161374,95,-9,238,0
161385,95,-14,235,0
161396,93,-12,219,0
161407,82,-2,213,0
161418,80,5,207,0
161429,72,12,197,0
161440,56,15,201,0
161451,44,10,206,0
161462,41,6,210,0
161473,40,2,206,0
161484,37,-2,208,0
161495,42,1,204,0
161506,41,0,211,0
161517,34,3,212,0
161528,26,4,213,0
161539,18,6,213,0
161550,10,9,214,0
161561,1,10,211,0
161572,-6,11,220,0
161583,-11,20,229,0
161594,-11,22,235,0
161605,-7,27,240,0
161616,-5,26,238,0
161627,-2,26,238,0
161638,3,22,233,0
161649,9,18,228,0
161660,14,14,222,0
161671,17,3,215,0
161682,17,1,214,0
161693,16,-5,215,0
161704,13,-7,221,0
161715,7,-9,220,0
161726,5,-6,212,1
161738,1,-2,202,0
161749,0,1,195,0
161760,0,5,192,0
161771,1,11,192,0
161782,5,12,193,0
161793,14,9,195,0
161804,33,-1,199,0
161815,88,-31,211,0
161826,95,-37,225,0
161837,82,-38,249,0
161848,56,-19,284,0
161859,32,8,310,0
161870,21,53,326,0
161881,13,64,354,0
161892,18,30,387,0
161903,35,33,395,0
161914,59,55,373,0
161925,84,52,325,0
161936,106,46,280,0
161947,118,37,242,0
161958,116,23,207,0
161969,108,9,192,0
161980,78,-13,177,0
161991,69,-19,185,0
162002,66,-18,197,0
162013,63,-11,208,0
162024,59,4,222,0
162035,54,12,241,0
162046,36,16,245,0
162057,23,20,258,0
162068,14,13,250,0
162079,12,10,241,0
162090,12,8,230,0
162101,17,2,225,0
162112,19,1,214,0
162123,20,0,212,0
162134,24,-1,205,0
162145,37,3,194,0
162156,41,6,191,0
162167,41,10,192,0
162178,36,12,196,0
162189,26,13,198,0
162200,11,14,198,0
162211,1,10,203,0
162222,-6,3,201,0
162233,-13,0,201,0
162244,-21,-2,196,0
162255,-25,-5,192,0
162266,-29,-7,191,0
162277,-29,-7,191,0
162288,-32,-4,191,0
162299,-36,-8,191,0
162310,-36,-16,196,0
162321,-32,-20,207,0
162332,-32,-19,215,0
162343,-33,-17,223,0
162354,-35,-13,227,0
162365,-34,-7,234,0
162376,-41,17,240,0
162387,-51,18,241,0
162398,-50,17,254,0
162409,-43,4,258,0
162420,-29,-2,251,0
162431,-22,1,246,0
162442,-25,2,254,0
162453,-27,0,268,0
162464,-13,-13,298,1
162475,57,-33,361,0
162486,90,-22,360,0
162497,101,-17,353,0
162508,105,-17,355,0
162519,117,8,362,0
162530,135,36,354,0
162541,152,39,344,0
162552,138,12,312,0
162563,100,-3,267,0
162574,69,-20,221,0
162585,63,-26,178,0
162596,61,-31,148,0
162607,57,-35,137,0
162618,63,-35,137,0
162629,69,-32,122,0
162640,66,-14,133,0
162651,80,-2,161,0
162662,100,8,186,0
162673,114,15,200,0
162684,121,18,208,0
162695,125,21,215,0
162706,121,25,217,0
162717,108,28,220,0
162728,93,30,221,0
162739,81,31,228,0
162750,72,31,225,0
162761,70,29,222,0
162772,68,23,217,0
162783,59,25,218,0
162794,52,22,215,0
162805,43,21,215,0
162816,40,20,222,0
162827,36,21,230,0
162838,32,28,228,0
162849,30,31,230,0
162860,29,29,226,0
162871,25,29,224,0
162882,23,27,221,0
162893,21,26,219,0
162904,16,24,218,0
162915,10,23,217,0
162926,3,29,222,0
162937,-4,30,224,0
162948,-9,33,234,0
162959,-14,32,237,0
162970,-25,24,245,0
162981,-28,23,243,0
162992,-35,20,236,0
163003,-38,20,233,0
163014,-37,20,226,0
163025,-41,22,222,0
163036,-38,19,217,0
163047,-33,15,217,0
163058,-25,13,218,0
163069,-20,10,213,0
163080,-17,6,209,0
163091,-12,8,208,0
163102,-5,12,210,0
163113,1,13,214,0
163124,2,14,216,0
163135,-3,7,214,0
163146,-16,1,209,0
163157,-27,0,209,1
163168,-27,-4,207,0
163179,-17,-9,216,0
163190,-3,-8,232,0
163201,0,-4,250,0
163212,-6,0,260,0
163223,-20,5,267,0
163234,-29,11,276,0
163245,-35,20,285,0
163256,-35,26,293,0
163267,-14,33,292,0
163278,13,52,296,0
163289,57,33,319,0
163300,73,36,313,0
163311,91,52,292,0
163322,105,56,273,0
163333,111,41,243,0
163344,116,13,211,0
163355,116,-3,186,0
163366,116,-19,168,0
163377,113,-30,157,0
163388,107,-31,153,0
163399,97,-23,159,0
163410,84,-16,176,0
163421,74,-13,198,0
163432,64,-4,221,0
163443,53,2,241,0
163454,33,14,260,0
163465,31,18,259,0
163476,27,16,254,0
163487,21,12,250,0
163498,19,7,247,0
163509,20,2,241,0
163520,21,0,238,0
163531,20,1,236,0
163542,23,1,230,0
163553,24,3,227,0
163564,26,4,224,0
163575,23,8,221,0
163586,20,6,223,0
163597,15,7,223,0
163608,13,8,225,0
163619,10,5,219,0
163630,10,7,215,0
163641,7,5,205,0
163652,5,6,201,0
163663,4,4,196,0
163674,2,1,193,0
163685,3,2,187,0
163696,5,1,176,0
163707,5,8,170,0
163718,2,4,181,0
163729,1,1,196,0
163740,0,4,205,0
163751,-7,12,212,0
163762,-11,15,215,0
163773,-17,22,211,0
163784,-33,22,211,0
163795,-29,19,215,0
163806,-31,58,226,0
163817,-39,51,240,0
163828,-28,34,244,1
163839,-10,24,241,0
163850,9,10,249,0
163861,30,9,254,0
163872,36,18,259,0
163883,28,20,266,0
163894,21,16,283,0
163905,18,5,307,0
163916,29,12,324,0
163927,45,21,337,0
163938,63,29,347,0
163949,73,19,325,0
163960,70,7,290,0
163971,69,7,250,0
163982,69,10,244,0
163993,69,4,273,0
164004,67,-5,292,0
164015,57,-3,284,0
164026,46,-6,252,0
164037,34,-16,223,0
164048,25,-30,205,0
164059,26,-37,190,0
164070,39,-37,174,0
164081,52,-29,166,0
164092,64,-20,165,0
164103,72,-5,166,0
164114,80,16,187,0
164125,86,22,204,0
164136,93,23,221,0
164147,101,24,227,0
164158,107,20,227,0
164169,110,10,217,0
164180,108,8,213,0
164191,98,5,206,0
164202,91,7,209,0
164213,85,6,216,0
164224,80,4,218,0
164235,76,4,219,0
164246,76,9,223,0
164257,72,10,226,0
164268,59,11,230,0
164279,45,16,235,0
164290,42,16,230,0
164301,38,13,223,0
164312,39,12,220,0
164323,37,10,210,0
164334,37,8,210,0
164345,33,8,211,0
164356,33,10,215,0
164367,32,11,219,0
164378,34,14,226,0
164389,36,14,234,0
164400,38,12,240,0
164411,41,13,242,0
164422,44,14,240,0
164433,41,18,240,0
164444,37,18,236,0
164455,36,22,233,0
164466,35,18,233,0
164477,35,13,231,0
164488,34,11,228,0
164499,35,11,228,0
164510,34,13,228,0
164521,33,17,229,0
164532,30,22,225,0
164543,29,29,227,0
164554,24,36,228,0
164565,19,39,228,0
164576,13,45,227,0
164587,8,49,225,0
164598,4,53,223,0
164609,0,49,224,1
164620,-2,46,227,0
164631,-1,47,228,0
164642,2,50,226,0
164653,3,46,223,0
164664,15,20,219,0
164675,35,-7,225,0
164686,50,-40,225,0
164697,59,-54,224,0
164708,62,-58,230,0
164719,55,-62,233,0
164730,45,-51,230,0
164741,42,-32,230,0
164752,50,-14,228,0
164763,88,15,221,1
164774,107,33,229,0
164785,114,47,234,0
164796,114,43,229,0
164807,107,32,224,0
164818,103,9,216,0
164829,101,-12,212,0
164840,98,-33,216,0
164851,92,-42,218,0
164862,87,-35,219,0
164873,72,-25,214,0
164884,60,-18,217,0
164895,53,-17,220,0
164907,47,-13,230,0
164918,28,-10,252,0
164929,19,-7,265,0
164940,10,-6,275,0
164951,3,-4,280,0
164962,1,-6,278,0
164973,6,-9,269,0
164984,13,-11,257,0
164995,21,-12,247,0
165006,24,-13,235,0
165017,29,-10,234,0
165028,31,-9,234,0
165039,33,-7,234,0
165050,38,-8,231,0
165061,42,-7,231,0
165072,47,-6,230,0
165083,58,-5,233,0
165094,63,-9,231,0
165105,68,-14,226,0
165116,76,-15,230,0
165127,79,-8,222,0
165138,79,5,209,0
165149,75,7,217,0
165160,67,4,220,0
165171,66,7,224,0
165182,59,7,223,0
165193,51,1,220,0
165204,47,2,215,0
165215,39,4,211,0
165226,31,1,209,0
165237,18,-7,209,0
165248,19,-13,212,0
165259,21,-12,219,0
165270,20,-8,220,0
165281,15,-5,226,0
165292,10,-6,229,0
165303,10,-11,229,0
165314,9,-13,227,0
165325,10,-18,223,0
165336,13,-24,219,0
165347,20,-30,218,0
165358,29,-32,216,0
165369,36,-35,217,0
165380,43,-35,217,0
165391,43,-31,220,0
165402,41,-30,217,0
165413,36,-32,213,0
165424,34,-33,210,0
165435,33,-35,205,0
165446,33,-38,202,0
165457,33,-43,206,0
165468,36,-50,209,0
165479,36,-54,214,0
165490,39,-57,221,0
165501,38,-51,227,1
165512,36,-52,232,0
165523,35,-56,238,0
165534,30,-52,241,0
165545,24,-49,244,0
165556,24,-50,248,0
165567,40,-59,248,0
165578,52,-41,254,0
165589,53,-44,270,0
165600,68,-39,276,0
165611,85,-35,281,0
165622,75,-27,276,0
165633,61,-14,274,0
165644,47,-3,253,1
165655,39,-4,256,0
165666,27,7,219,0
165677,19,15,191,0
165688,30,16,179,0
165699,37,14,173,0
165710,47,16,172,0
165721,58,17,177,0
165732,113,1,199,0
165743,133,-11,201,0
165754,146,-13,205,0
165765,150,-12,208,0
165776,141,-9,209,0
165787,127,-1,216,0
165798,110,10,226,0
165810,85,26,236,0
165821,58,39,236,0
165832,30,49,239,0
165843,9,56,242,0
165854,3,61,249,0
165865,3,61,253,0
165876,24,48,242,0
165887,38,38,237,0
165898,52,28,232,0
165909,55,22,225,0
165920,61,20,219,0
165931,63,14,218,0
165942,62,14,216,0
165953,54,11,216,0
165964,46,9,215,0
165975,42,12,220,0
165986,37,15,230,0
165997,33,16,235,0
166009,28,22,234,0
166020,22,24,236,0
166031,8,17,234,0
166042,2,17,231,0
166053,0,18,233,0
166064,-3,17,236,0
166075,-5,16,236,0
166086,-6,13,236,0
166097,-5,13,237,0
166108,-6,15,234,0
166119,-9,17,235,0
166130,-9,17,235,0
166141,-5,18,238,0
166152,-6,16,237,0
166163,-4,12,236,0
166174,-8,11,234,0
166185,-8,9,231,0
166196,-9,13,226,0
166207,-10,15,225,0
166218,-8,19,226,0
166229,-7,22,233,0
166240,-1,16,232,0
166251,3,22,225,0
166262,2,25,224,0
166273,1,26,222,0
166284,-7,24,221,0
166295,-10,17,220,0
166306,-14,15,220,0
166317,-19,10,222,0
166328,-23,1,225,0
166340,-20,1,226,0
166351,-13,3,223,0
166362,-7,5,216,0
166373,-9,6,209,1
166384,-11,3,204,0
166395,-16,1,206,0
166406,-10,1,204,0
166417,-2,-9,209,0
166428,3,-21,226,0
166439,10,-21,243,0
166450,3,-16,245,0
166461,-9,-10,243,0
166472,-26,-11,243,0
166483,-24,-3,252,0
166494,-2,36,255,0
166505,26,44,324,0
166516,42,52,347,0
166527,52,62,341,0
166538,58,71,312,0
166549,72,71,277,0
166560,89,64,253,0
166571,97,52,228,0
166582,96,26,206,0
166593,92,3,191,0
166604,88,-4,178,0
166615,75,-1,170,0
166626,59,-6,163,0
166637,50,-3,170,0
166648,45,12,200,0
166659,39,34,237,0
166670,21,59,291,0
166681,21,63,287,0
166692,23,54,277,0
166703,29,46,266,0
166714,24,32,258,0
166725,26,29,257,0
166736,27,25,260,0
166747,25,23,256,0
166758,28,23,245,0
166769,35,22,233,0
166780,47,28,223,0
166791,49,27,213,0
166802,55,26,203,0
166813,54,25,197,0
166824,43,21,194,0
166835,34,19,197,0
166846,25,17,196,0
166857,17,16,194,0
166868,9,12,192,0
166879,4,9,192,0
166890,1,8,189,0
166901,-5,7,189,0
166912,-7,8,192,0
166923,-9,8,195,0
166934,-9,8,193,0
166945,-11,9,191,0
166956,-15,11,193,0
166967,-17,11,200,0
166978,-21,13,205,0
166989,-24,16,212,0
167000,-28,35,227,0
167011,-38,37,237,0
167022,-46,29,244,0
167033,-40,24,244,0
167044,-35,20,245,0
167056,-28,17,252,0
167067,-22,9,262,0
167078,-16,4,282,1
167089,-12,4,288,0
167100,-10,11,284,0
167111,-18,24,281,0
167122,-15,30,290,0
167133,10,35,313,0
167144,100,18,392,0
167155,121,6,386,0
167166,131,4,325,0
167177,151,13,276,0
167188,167,22,270,0
167199,138,1,308,0
167210,95,6,261,0
167221,52,-11,189,0
167232,22,-36,144,0
167243,16,-60,129,0
167254,24,-65,123,0
167265,26,-62,129,0
167276,37,-48,134,0
167287,38,-27,140,0
167298,34,-14,145,0
167309,48,14,192,0
167320,60,37,229,0
167331,74,39,250,0
167342,84,36,260,0
167353,83,22,247,0
167364,75,12,234,0
167375,66,11,219,0
167386,63,9,207,0
167397,58,14,203,0
167408,48,17,203,0
167419,40,22,209,0
167430,34,20,212,0
167441,29,16,208,0
167452,33,12,211,0
167463,38,11,211,0
167474,31,13,211,0
167485,21,14,216,0
167496,10,14,222,0
167507,1,12,228,0
167518,-5,12,229,0
167529,-3,15,227,0
167540,0,18,224,0
167551,2,21,220,0
167562,5,27,222,0
167573,6,32,222,0
167584,4,35,222,0
167595,2,34,223,0
167606,1,36,226,0
167617,-1,39,221,0
167628,-1,43,219,0
167639,1,41,219,0
167650,3,40,219,0
167661,11,35,217,0
167672,20,32,217,0
167683,26,27,214,0
167694,28,16,219,0
167705,26,3,219,0
167716,26,-5,217,0
167727,22,-7,216,0
167738,20,-3,219,0
167749,20,7,222,1
167760,15,27,224,0
167771,-3,42,228,0
167782,-29,42,225,0
167793,-41,41,218,0
167804,5,44,223,0
167815,28,32,264,0
167826,36,6,302,0
167837,48,-1,315,0
167848,47,10,322,0
167859,35,26,335,0
167870,31,19,334,0
167881,36,30,322,0
167892,37,40,319,0
167903,43,33,312,0
167914,56,15,290,0
167925,78,17,259,0
167936,101,34,227,0
167947,113,51,206,0
167958,117,47,191,0
167969,110,26,192,0
167980,96,14,191,0
167991,74,7,197,0
168002,56,0,217,0
168013,43,-2,234,0
168024,36,0,242,0
168035,32,2,244,0
168046,31,5,236,0
168057,29,8,228,0
168068,25,13,222,0
168079,22,15,215,0
168090,26,11,207,0
168101,25,11,203,0
168112,24,11,206,0
168123,24,16,216,0
168134,37,18,227,0
168145,45,15,228,0
168156,52,11,228,0
168167,57,14,221,0
168178,57,9,216,0
168189,48,10,214,0
168200,38,8,210,0
168211,28,9,208,0
168222,16,9,203,0
168233,6,7,200,0
168244,-1,3,198,0
168255,-2,3,196,0
168266,0,6,193,0
168277,-1,6,194,0
168288,2,19,205,0
168299,15,16,210,0
168310,27,32,192,0
168321,6,35,193,0
168332,2,25,214,0
168343,0,19,220,0
168355,-7,18,219,0
168366,-13,19,223,0
168377,-16,20,233,0
168388,-15,18,245,0
168399,-17,23,256,0
168410,-26,24,270,0
168421,-33,24,268,0
168432,-35,27,262,0
168443,-44,17,256,0
168454,-44,13,256,0
168465,-51,21,261,0
168476,-41,28,282,0
168487,-19,31,312,1
168498,13,38,343,0
168509,58,43,371,0
168520,95,40,375,0
168531,133,13,357,0
168542,182,-10,343,0
168553,180,-34,321,0
168564,152,-42,255,0
168575,123,-44,178,0
168586,96,-43,148,0
168597,80,-46,127,0
168608,39,-50,105,0
168619,25,-47,116,0
168630,21,-37,145,0
168641,32,-27,175,0
168652,52,-13,201,0
168663,78,-6,219,0
168674,87,-2,226,0
168685,87,2,232,0
168696,80,4,225,0
168707,72,7,214,0
168718,66,11,210,0
168729,58,13,217,0
168740,45,9,223,0
168751,35,8,221,0
168762,24,2,215,0
168773,5,7,212,0
168784,3,4,210,0
168795,2,5,208,0
168806,4,8,212,0
168817,5,5,214,0
168828,3,5,209,0
168839,3,9,206,0
168850,4,10,208,0
168861,1,14,209,0
168872,-4,15,214,0
168883,-9,19,222,0
168894,-10,24,226,0
168905,-10,27,229,0
168916,-10,29,233,0
168927,-10,28,235,0
168938,-6,23,231,0
168949,-1,17,226,0
168960,1,10,221,0
168971,3,7,220,0
168982,8,5,218,0
168993,13,2,214,0
169004,15,1,217,0
169015,20,-4,219,0
169026,21,-11,215,0
169037,23,-8,210,0
169048,25,-1,210,0
169059,25,9,214,0
169070,14,17,215,1
169081,0,20,214,0
169092,-6,21,218,0
169103,-17,22,224,0
169114,-14,19,230,0
169125,1,15,236,0
169136,27,11,245,0
169147,42,4,272,0
169158,39,-3,303,0
169169,26,1,314,0
169180,35,32,302,0
169191,35,55,294,0
169202,29,20,315,0
169213,42,2,340,0
169224,61,18,334,0
169235,88,23,306,0
169246,113,27,274,0
169257,133,24,231,0
169268,137,16,202,0
169279,124,10,200,0
169290,110,7,204,0
169301,95,11,207,0
169312,85,13,224,0
169323,70,23,240,0
169334,42,29,253,0
169345,17,25,266,0
169356,5,18,268,0
169367,2,16,274,0
169378,-9,11,260,0
169389,-11,8,233,0
169400,-8,10,221,0
169411,-5,10,202,0
169422,2,10,189,0
169433,16,12,181,0
169444,24,8,182,0
169455,29,12,179,0
169466,30,10,177,0
169477,28,9,180,0
169488,27,8,179,0
169499,22,6,180,0
169510,17,5,181,0
169521,10,3,185,0
169532,2,3,192,0
169543,-4,3,196,0
169554,-16,3,199,0
169565,-23,0,199,0
169576,-30,0,198,0
169587,-31,-7,202,0
169598,-27,-9,204,0
169609,-27,-12,213,0
169620,-23,-20,228,0
169631,-22,-17,219,0
169642,-26,0,223,0
169653,-36,16,245,0
169664,-45,24,257,0
169675,-50,20,256,0
169686,-48,19,261,0
169697,-43,9,274,0
169708,-28,1,284,0
169720,-16,0,284,0
169731,-8,-1,275,0
169742,8,-4,307,0
169753,35,-11,347,1
169764,71,-3,378,0
169775,97,13,374,0
169786,94,1,327,0
169797,79,-12,276,0
169808,76,-9,241,0
169819,92,-4,237,0
169830,114,3,270,0
169841,116,9,285,0
169852,114,7,272,0
169863,109,10,234,0
169874,101,6,200,0
169885,92,3,192,0
169896,80,-10,180,0
169907,55,-29,158,0
169918,47,-34,157,0
169929,56,-29,170,0
169940,75,-22,185,0
169951,91,-9,199,0
169962,90,3,210,0
169973,81,16,212,0
169984,70,26,210,0
169995,65,33,215,0
170006,67,36,222,0
170017,66,40,228,0
170028,62,37,226,0
170039,53,32,225,0
170050,47,31,221,0
170061,40,26,216,0
170072,33,24,212,0
170083,29,20,211,0
170094,23,23,210,0
170105,12,24,215,0
170116,4,28,219,0
170127,-2,25,223,0
170138,-9,31,227,0
170149,-17,32,236,0
170160,-22,27,237,0
170171,-26,30,233,0
170182,-28,32,237,0
170193,-28,28,237,0
170204,-23,26,236,0
170215,-19,23,233,0
170226,-22,17,223,0
170237,-28,16,218,0
170248,-31,12,212,0
170259,-27,8,204,0
170270,-20,5,203,0
170281,-16,6,205,0
170292,-14,4,204,0
170303,-14,8,206,0
170314,-12,10,207,0
170325,-11,11,208,0
170336,-5,16,207,0
170347,-2,16,208,0
170358,-2,17,208,0
170369,-4,14,205,0
170380,-12,10,199,0
170391,-4,-2,199,1
170402,8,-10,215,0
170413,15,-14,239,0
170424,10,-16,262,0
170435,5,-5,281,0
170446,-3,5,300,0
170457,0,9,313,0
170468,16,35,317,0
170479,26,32,339,0
170490,47,-2,365,0
170501,73,10,368,0
170512,96,36,353,0
170523,112,43,317,0
170534,117,42,275,0
170545,108,39,234,0
170556,87,22,173,0
170567,73,13,169,0
170578,63,5,168,0
170589,59,2,174,0
170600,50,7,194,0
170611,45,6,211,0
170622,40,2,230,0
170633,29,1,245,0
170644,20,0,248,0
170655,20,-1,250,0
170666,18,1,240,0
170677,24,5,241,0
170688,25,3,236,0
170699,26,6,232,0
170710,31,1,229,0
170721,34,0,215,0
170732,40,0,209,0
170743,43,0,207,0
170754,44,2,207,0
170765,43,2,206,0
170776,37,5,204,0
170787,32,6,202,0
170798,23,8,203,0
170809,15,9,205,0
170820,7,8,202,0
170831,3,8,200,0
170842,0,7,198,0
170853,-1,7,199,0
170864,-2,7,198,0
170875,-5,4,195,0
170886,-11,2,186,0
170898,-13,-1,185,0
170909,-16,0,191,0
170920,-18,0,196,0
170931,-20,1,204,0
170942,-24,5,209,0
170953,-27,6,215,0
170964,-28,6,224,0
170975,-29,7,232,0
170986,-33,5,240,0
170997,-17,12,259,0
171008,-32,44,256,0
171019,-33,5,257,0
171030,-5,-19,271,0
171041,2,-3,285,0
171052,2,-5,304,0
171063,3,-14,318,0
171074,7,-17,330,0
171085,20,-16,342,0
171096,40,-13,345,0
171107,55,-13,330,1
171118,64,-16,313,0
171129,66,-17,292,0
171141,65,-4,272,0
171152,73,7,295,0
171163,72,19,301,0
171174,60,-5,287,0
171185,36,-7,227,0
171196,34,-19,193,0
171207,42,-33,167,0
171218,39,-26,155,0
171229,35,-20,156,0
171240,45,-15,147,0
171251,39,-4,137,0
171262,38,7,145,0
171273,44,13,164,0
171284,46,23,193,0
171295,61,21,217,0
171306,79,29,229,0
171317,97,20,239,0
171328,98,16,234,0
171339,100,9,231,0
171350,77,16,221,0
171361,69,16,217,0
171372,66,17,215,0
171383,57,21,215,0
171394,46,21,218,0
171405,35,21,222,0
171416,24,23,221,0
171427,23,21,220,0
171438,16,22,219,0
171449,7,26,216,0
171460,3,22,210,0
171471,0,24,211,0
171482,-1,17,210,0
171493,-6,19,210,0
171504,-11,17,211,0
171515,-13,20,221,0
171526,-10,21,226,0
171537,-9,21,233,0
171548,-9,23,233,0
171559,-10,21,234,0
171570,-9,20,228,0
171581,-9,23,224,0
171592,-13,28,229,0
171603,-15,30,236,0
171614,-13,24,233,0
171625,-6,19,226,0
171636,-4,16,218,0
171647,-8,10,212,0
171658,-10,4,210,0
171669,-3,-4,208,0
171680,12,1,216,0
171691,17,2,217,0
171703,24,9,216,0
171714,23,27,213,0
171725,14,32,207,0
171736,1,27,199,0
171747,-15,22,192,0
171758,-28,15,189,1
171769,-27,19,194,0
171780,-6,6,210,0
171791,19,0,238,0
171802,33,-3,267,0
171813,30,-2,290,0
171824,-3,5,308,0
171835,-2,27,309,0
171846,-13,39,319,0
171857,-16,4,349,0
171868,10,-3,373,0
171879,52,26,369,0
171890,87,49,350,0
171901,117,47,306,0
171912,135,40,256,0
171923,135,29,213,0
171934,131,16,178,0
171945,123,10,159,0
171956,111,-2,151,0
171967,92,-9,157,0
171978,79,-17,166,0
171989,54,0,204,0
172000,36,7,234,0
172011,16,5,255,0
172022,6,3,259,0
172033,2,4,263,0
172044,0,0,258,0
172055,1,-3,241,0
172066,6,0,242,0
172077,10,2,237,0
172088,14,2,227,0
172099,20,5,220,0
172110,23,8,214,0
172121,26,10,207,0
172132,30,6,203,0
172143,34,7,207,0
172154,35,11,194,0
172165,30,12,195,0
172176,22,11,196,0
172187,14,9,193,0
172198,7,6,191,0
172209,2,4,192,0
172220,-2,2,191,0
172231,-6,2,194,0
172242,-13,3,193,0
172253,-19,2,191,0
172264,-24,1,188,0
172275,-30,-1,186,0
172286,-28,-7,191,0
172297,-25,-11,198,0
172308,-20,-15,209,0
172319,-17,-9,210,0
172330,-18,-7,221,0
172341,-22,0,227,0
172352,-25,8,239,0
172363,-38,54,262,0
172374,-58,52,267,0
172385,-59,37,270,0
172396,-50,24,269,0
172407,-28,16,271,0
172418,1,12,283,0
172429,28,3,306,1
172440,58,-11,337,0
172451,105,-20,376,0
172462,143,-9,386,0
172473,148,1,352,0
172484,123,-10,303,0
172495,106,3,290,0
172506,81,10,280,0
172517,66,-3,261,0
172528,50,-14,231,0
172539,47,-11,188,0
172550,56,21,154,0
172561,78,-48,191,0
172572,68,21,170,0
172583,71,-7,169,0
172594,69,-7,164,0
172605,56,3,155,0
172616,58,0,158,0
172627,60,9,174,0
172638,70,8,192,0
172649,110,8,216,0
172660,122,11,220,0
172671,119,12,221,0
172682,108,20,220,0
172693,92,27,219,0
172704,82,35,217,0
172715,79,37,215,0
172726,78,43,217,0
172737,73,45,223,0
172748,67,41,221,0
172759,62,42,224,0
172770,57,36,228,0
172781,52,35,226,0
172792,52,33,224,0
172803,47,36,223,0
172814,32,40,220,0
172825,25,37,218,0
172836,20,35,218,0
172847,14,35,217,0
172858,8,36,216,0
172869,0,38,222,0
172880,-5,37,230,0
172891,-6,41,233,0
172902,-6,42,232,0
172913,-9,42,231,0
172924,-12,39,231,0
172935,-14,37,229,0
172946,-16,36,229,0
172957,-20,33,233,0
172968,-24,22,225,0
172979,-27,17,224,0
172990,-30,20,221,0
173001,-33,21,217,0
173012,-30,18,210,0
173023,-24,17,207,0
173034,-19,13,203,0
173045,-16,10,206,0
173056,-12,10,209,0
173067,-7,10,216,0
173078,-2,11,222,0
173089,0,15,222,0
173100,-2,15,222,1
173111,-13,11,221,0
173122,-20,8,219,0
173133,-5,6,229,0
173144,2,-2,246,0
173155,9,-13,263,0
173166,11,-17,284,0
173177,11,-6,303,0
173188,30,34,315,0
173199,33,52,335,0
173210,38,28,364,0
173221,55,12,362,0
173232,62,30,341,0
173243,70,43,313,0
173254,87,37,269,0
173265,99,36,221,0
173276,104,31,181,0
173287,96,30,166,0
173298,74,37,160,0
173309,64,35,178,0
173320,52,36,199,0
173331,36,37,229,0
173342,27,31,243,0
173353,19,28,254,0
173364,13,24,253,0
173375,18,14,249,0
173386,17,9,245,0
173397,26,9,239,0
173408,32,10,227,0
173419,35,14,236,0
173430,29,16,236,0
173441,25,17,226,0
173452,18,19,220,0
173463,16,15,204,0
173474,16,12,198,0
173485,14,10,195,0
173496,10,5,192,0
173507,8,3,191,0
173518,7,1,192,0
173529,6,-1,192,0
173540,5,-4,188,0
173551,3,-8,185,0
173562,1,-10,182,0
173573,-3,-9,184,0
173584,-8,-10,189,0
173595,-12,-12,189,0
173606,-18,-12,188,0
173617,-27,-15,191,0
173628,-37,-21,195,0
173639,-36,-20,199,0
173650,-37,-15,206,0
173661,-42,-8,216,0
173672,-46,-8,227,0
173683,-48,-4,238,0
173694,-50,9,249,0
173705,-59,20,261,0
173716,-57,18,265,0
173727,-48,16,260,0
173738,-34,4,265,0
173749,-17,-10,273,0
173760,1,-17,270,1
173771,22,-12,287,0
173782,56,-2,335,0
173793,149,34,433,0
173804,135,32,392,0
173815,111,-3,318,0
173826,111,0,280,0
173837,140,-1,306,0
173848,115,-7,326,0
173859,71,0,271,0
173870,53,-12,195,0
173881,35,-10,174,0
173892,31,-23,170,0
173903,27,-18,162,0
173914,27,-19,152,0
173925,28,-19,153,0
173936,29,-23,152,0
173947,30,-17,157,0
173958,58,12,193,0
173969,76,16,201,0
173980,84,19,214,0
173991,92,18,216,0
174002,96,17,215,0
174013,92,19,210,0
174024,90,21,207,0
174035,86,19,214,0
174046,78,22,214,0
174057,66,19,219,0
174068,55,18,221,0
174079,44,16,222,0
174090,37,19,221,0
174101,36,16,221,0
174112,33,17,218,0
174123,17,23,222,0
174134,9,24,222,0
174145,3,19,221,0
174156,-1,16,217,0
174167,-2,14,215,0
174178,-6,13,216,0
174189,-8,16,219,0
174200,-9,20,222,0
174211,-10,21,223,0
174222,-6,23,223,0
174233,-1,23,225,0
174244,1,24,224,0
174255,2,25,224,0
174266,4,26,225,0
174277,13,20,220,0
174288,18,17,217,0
174299,16,12,217,0
174310,12,8,213,0
174321,12,0,204,0
174332,15,-3,208,0
174343,19,-4,215,0
174354,24,1,220,1
174365,25,4,218,0
174376,18,9,217,0
174387,2,14,209,0
174398,-16,15,199,0
174409,-32,17,190,0
174420,-37,19,192,0
174431,-18,17,203,0
174442,30,3,261,0
174453,43,-7,292,0
174464,48,4,319,0
174475,41,22,330,0
174486,44,46,323,0
174497,40,52,321,0
174508,37,25,336,0
174519,45,8,336,0
174530,68,3,311,0
174541,95,7,278,0
174552,114,11,246,0
174563,122,9,213,0
174574,117,7,190,0
174585,107,4,174,0
174596,94,10,173,0
174607,61,21,190,0
174618,40,20,211,0
174629,27,19,228,0
174640,12,16,249,0
174651,1,12,255,0
174662,-1,11,261,0
174673,3,9,265,0
174684,2,7,256,0
174695,6,10,251,0
174706,17,5,237,0
174717,27,1,222,0
174728,34,5,221,0
174739,37,6,217,0
174750,41,4,215,0
174761,45,6,211,0
174772,52,9,208,0
174783,53,8,211,0
174794,51,8,210,0
174805,49,5,205,0
174816,39,2,204,0
174827,32,5,189,0
174838,24,8,185,0
174849,14,3,192,0
174860,9,-5,196,0
174871,7,-1,194,0
174882,2,0,189,0
174893,-4,0,186,0
174904,-11,0,184,0
174915,-13,-1,184,0
174926,-13,0,189,0
174937,-16,1,199,0
174948,-20,4,204,0
174959,-27,3,211,0
174970,-31,2,219,0
174981,-29,4,228,0
174992,-11,-2,244,0
175003,-1,20,266,0
175014,6,20,274,0
175025,17,14,272,0
175036,24,25,273,0
175047,20,28,289,0
175058,17,33,314,0
175069,24,37,347,0
175080,44,39,382,0
175091,69,53,404,0
175102,52,28,339,0
175113,62,20,286,0
175124,74,5,245,1
175135,88,-18,261,0
175146,81,-36,295,0
175157,67,-15,250,0
175168,50,-27,190,0
175179,45,-32,169,0
175190,52,-41,165,0
175201,51,-34,158,0
175212,50,-27,157,0
175223,51,-14,156,0
175234,60,-6,156,0
175245,66,-1,166,0
175256,69,19,196,0
175267,73,24,217,0
175278,72,19,221,0
175289,71,10,220,0
175300,69,9,219,0
175311,65,11,222,0
175322,62,10,225,0
175333,55,11,228,0
175344,49,12,225,0
175355,49,8,217,0
175366,44,8,214,0
175377,39,7,215,0
175388,31,9,216,0
175399,25,13,217,0
175410,18,15,218,0
175421,15,15,217,0
175432,9,17,220,0
175443,8,15,218,0
175454,7,13,215,0
175465,3,14,216,0
175476,4,13,218,0
175487,3,13,219,0
175498,4,16,220,0
175509,5,20,221,0
175520,5,24,227,0
175531,3,28,233,0
175542,0,32,238,0
175553,-3,34,237,0
175564,-3,35,231,0
175575,-5,36,227,0
175586,-7,37,220,0
175597,-5,36,220,0
175608,-1,34,221,0
175619,0,29,224,0
175630,6,22,221,0
175641,9,16,221,0
175652,12,6,220,0
175663,18,1,217,0
175674,27,1,220,0
175685,38,3,222,0
175696,46,11,225,0
175707,40,22,225,0
175718,27,23,221,0
175729,9,26,207,0
175740,-9,28,193,0
175751,-7,28,205,0
175762,17,33,221,0
175773,43,38,250,1
175784,54,33,282,0
175795,51,24,306,0
175806,42,18,312,0
175817,24,18,310,0
175828,12,22,303,0
175839,4,19,297,0
175850,11,14,286,0
175861,25,11,287,0
175872,38,-2,293,0
175883,54,-10,288,0
175894,69,-4,261,0
175905,87,0,231,0
175916,95,8,181,0
175927,100,2,168,0
175938,98,5,178,0
175949,89,5,185,0
175960,77,6,193,0
175971,62,7,205,0
175982,51,5,227,0
175993,40,4,252,0
176004,28,5,270,0
176015,18,3,276,0
176026,16,2,276,0
176037,22,2,269,0
176048,30,11,258,0
176059,30,15,247,0
176070,28,15,235,0
176081,32,8,225,0
176092,30,5,221,0
176103,30,4,218,0
176114,36,2,219,0
176125,39,-6,219,0
176136,54,0,212,0
176147,52,1,210,0
176158,52,-2,202,0
176169,54,5,187,0
176180,52,8,177,0
176191,44,9,177,0
176202,37,19,185,0
176213,24,20,201,0
176224,17,19,205,0
176235,4,28,209,0
176246,3,28,215,0
176257,3,26,216,0
176268,9,25,214,0
176279,13,26,214,0
176290,14,28,215,0
176301,12,32,219,0
176312,12,34,225,0
176323,7,33,228,0
176334,8,33,233,0
176345,11,28,233,0
176356,14,23,229,0
176368,13,19,220,0
176379,11,13,216,0
176390,6,2,218,0
176401,4,0,220,0
176412,3,1,225,0
176423,3,3,227,0
176434,4,10,225,0
176445,2,13,226,0
176456,2,16,235,0
176467,4,15,241,0
176478,6,15,250,0
176489,13,15,261,0
176500,25,23,279,0
176511,46,28,308,0
176522,71,27,336,0
176533,96,34,339,0
176544,99,15,308,0
176555,99,12,284,1
176566,93,21,268,0
176577,81,20,256,0
176588,61,9,246,0
176599,54,3,247,0
176610,48,-8,248,0
176621,35,-12,234,0
176632,28,-17,212,0
176643,23,-23,187,0
176654,25,-25,176,0
176665,29,-19,171,0
176676,33,-12,173,0
176687,44,-3,179,0
176698,60,5,188,0
176709,87,22,222,0
176720,97,25,235,0
176731,99,22,239,0
176743,91,15,235,0
176754,85,12,232,0
176765,76,9,229,0
176776,69,6,222,0
176787,62,3,212,0
176798,53,5,215,0
176809,49,5,216,0
176820,52,2,218,0
176831,53,4,216,0
176842,49,7,222,0
176853,48,11,228,0
176864,45,10,229,0
176875,46,10,228,0
176886,43,10,228,0
176897,38,9,225,0
176908,36,10,224,0
176919,32,5,222,0
176930,31,0,221,0
176941,33,-1,222,0
176952,35,0,218,0
176963,39,-1,218,0
176974,43,0,218,0
176985,48,1,220,0
176996,53,4,223,0
177007,58,6,226,0
177018,59,9,230,0
177029,57,10,245,0
177040,55,6,239,0
177051,51,11,237,0
177062,43,7,241,0
177073,36,0,236,0
177084,33,-1,224,0
177095,29,5,227,0
177106,22,3,233,0
177117,23,7,230,0
177128,23,13,232,0
177139,27,9,238,0
177150,39,7,228,0
177161,47,7,223,0
177172,51,4,216,0
177183,50,9,219,0
177194,42,5,228,0
177205,40,1,220,0
177216,38,4,219,0
177227,38,9,220,0
177238,39,14,223,0
177249,35,12,226,1
177260,35,12,226,0
177271,39,16,229,0
177282,39,20,227,0
177293,41,22,227,0
177304,42,22,223,0
177315,36,21,215,0
177326,21,19,212,0
177337,15,19,224,0
177348,21,8,232,0
177359,34,-28,243,0
177370,34,-37,241,0
177381,29,-38,232,0
177392,26,-35,227,0
177403,31,-49,222,0
177414,32,-48,218,0
177425,39,-32,225,0
177436,49,-14,235,0
177447,61,-1,246,0
177458,63,11,258,0
177469,60,15,264,0
177480,59,13,259,0
177491,55,10,250,0
177502,47,1,247,0
177513,40,-21,245,0
177524,27,-39,232,0
177535,21,-38,225,0
177546,22,-35,223,0
177557,30,-34,221,0
177568,40,-37,219,0
177579,49,-38,217,0
177590,60,-36,212,0
177601,68,-33,212,0
177612,72,-32,214,0
177623,74,-34,219,0
177634,73,-34,216,0
177645,73,-30,214,0
177656,66,-26,217,0
177667,61,-28,222,0
177678,56,-28,227,0
177689,39,-26,226,0
177700,36,-23,226,0
177711,36,-26,229,0
177722,43,-33,240,0
177733,56,-36,240,0
177744,65,-21,215,0
177755,64,-18,216,0
177766,68,-19,216,0
177777,71,-20,214,0
177788,67,-23,217,0
177799,65,-27,225,0
177810,63,-24,228,0
177821,61,-27,228,0
177832,60,-27,227,0
177843,59,-31,219,0
177854,56,-25,213,0
177865,54,-25,216,0
177876,51,-24,219,0
177887,49,-25,223,0
177898,47,-25,224,0
177909,47,-22,223,0
177920,42,-21,222,0
177931,38,-23,221,0
177942,36,-27,222,0
177953,37,-27,225,0
177964,40,-27,230,0
177975,44,-25,232,0
177986,48,-22,234,0
177997,51,-25,235,0
178008,51,-23,235,0
178019,55,-23,229,0
178030,59,-23,226,0
178041,63,-21,225,0
178052,65,-20,225,0
178063,65,-21,223,0
178074,65,-20,222,0
178085,67,-18,222,0
178096,67,-18,222,0
178107,66,-19,222,0
178118,66,-18,223,0
178129,64,-18,226,0
178140,61,-16,226,0
178151,58,-16,225,0
178162,56,-16,225,0
178173,54,-16,224,0
178184,51,-17,221,0
178195,47,-18,222,0
178206,47,-17,219,0
178217,49,-20,219,0
178228,53,-20,219,0
178239,56,-20,220,0
178250,61,-18,223,0
178261,64,-18,226,0
178272,65,-19,229,0
178283,67,-19,230,0
178294,67,-20,229,0
178305,67,-18,228,0
178316,66,-18,228,0
178327,67,-20,227,0
178338,68,-20,225,0
178349,68,-20,224,0
178360,70,-18,225,0
178371,71,-20,223,0
178382,70,-19,223,0
178393,71,-20,221,0
178404,73,-22,220,0
178415,73,-24,220,0
178426,72,-24,216,0
178437,72,-25,215,0
178448,71,-24,214,0
178459,73,-25,214,0
178470,73,-23,214,0
178481,73,-24,214,0
178492,73,-24,215,0
178503,73,-24,215,0
178514,71,-23,212,0
178525,70,-23,212,0
178536,70,-25,212,0
178547,71,-25,212,0
178558,73,-25,214,0
178569,74,-23,218,0
178580,75,-23,222,0
178591,74,-24,225,0
178602,73,-24,225,0
178613,71,-25,223,0
178624,70,-25,222,0
178635,71,-26,224,0
178646,71,-27,223,0
178657,71,-27,223,0
178668,74,-25,223,0
178679,76,-25,224,0
178690,75,-24,224,0
178701,75,-26,224,0
178712,76,-25,223,0
178723,76,-25,222,0
178734,75,-25,223,0
178745,74,-25,222,0
178756,72,-24,221,0
178767,73,-24,221,0
178778,72,-24,221,0
178789,71,-24,222,0
178800,72,-25,221,0
178811,71,-24,219,0
178822,69,-23,218,0
178833,67,-26,219,0
178844,69,-24,219,0
178855,68,-24,218,0
178866,70,-26,218,0
178877,71,-26,218,0
178888,73,-26,219,0
178899,75,-27,221,0
178910,73,-30,222,0
178921,75,-32,223,0
178932,76,-32,224,0
178943,78,-32,224,0
178954,80,-32,225,0
178965,81,-30,223,0
178977,77,-31,219,0
178988,76,-32,218,0
178999,76,-35,217,0
179010,76,-37,220,0
179021,75,-38,226,0
179032,75,-38,230,0
179043,73,-37,229,0
179054,71,-25,222,0
179065,69,-29,224,0
179076,65,-37,224,0
179087,66,-42,225,0
179098,66,-45,217,0
179109,70,-46,214,0
179120,71,-46,215,0
179131,72,-41,214,0
179142,65,-38,212,0
179153,62,-37,214,0
179164,60,-36,212,0
179175,56,-34,211,0
179186,58,-34,211,0
179197,59,-35,213,0
179208,63,-37,213,0
179219,66,-36,214,0
179230,71,-39,215,0
179241,76,-40,214,0
179252,77,-39,215,0
179263,77,-39,217,0
179274,76,-39,220,0
179285,74,-38,219,0
179296,72,-35,218,0
179307,70,-37,219,0
179318,69,-39,220,0
179329,69,-38,219,0
179340,71,-39,221,0
179351,68,-39,218,0
179362,68,-39,218,0
179373,67,-37,219,0
179384,66,-37,221,0
179395,66,-39,221,0
179406,64,-40,222,0
179417,64,-38,222,0
179428,63,-38,220,0
179439,62,-38,220,0
179450,61,-40,222,0
179461,60,-40,221,0
179472,57,-39,218,0
179483,57,-39,215,0
179494,54,-37,213,0
179505,53,-36,213,0
179516,52,-38,209,0
179527,51,-39,210,0
179538,51,-41,210,0
179549,53,-45,210,0
179560,51,-42,209,0
179571,51,-41,207,0
179582,51,-38,204,0
179593,51,-37,201,0
179604,51,-34,200,0
179615,52,-33,203,0
179626,53,-27,204,0
179637,46,-26,205,0
179648,47,-24,209,0
179659,47,-23,216,0
179670,48,-28,216,0
179681,51,-33,215,0
179692,54,-24,204,0
179703,58,-28,209,0
179714,56,-28,202,0
179725,55,-25,206,1
179736,53,-26,215,0
179747,53,-30,226,0
179758,51,-34,234,0
179769,55,-27,241,0
179780,61,-20,257,0
179791,61,-25,276,0
179802,67,-11,295,0
179813,67,-6,296,0
179824,68,-6,294,0
179835,72,-5,292,0
179846,78,-1,292,0
179857,83,0,286,0
179868,85,-1,278,0
179879,82,-2,255,0
179890,79,-2,225,0
179901,83,-9,211,0
179912,89,-15,200,0
179923,97,-23,196,0
179934,104,-28,191,0
179945,105,-20,196,0
179956,103,-4,198,0
179967,86,14,201,0
179978,82,23,208,0
179989,80,29,212,0
180000,83,36,211,0
180011,95,39,209,0
180022,103,42,212,0
180033,108,52,215,0
180044,108,59,213,0
180055,106,62,216,0
180066,107,66,218,0
180077,97,75,210,0
180088,81,80,209,0
180099,71,79,220,0
180110,73,78,225,0
180121,78,83,226,0
180132,77,79,219,0
180143,74,72,202,0
180154,81,63,194,0
180165,91,62,188,0
180176,92,63,186,0
180187,81,64,187,0
180198,67,69,196,0
180209,61,69,214,0
180220,51,64,229,0
180231,45,52,231,0
180242,46,53,232,0
180253,44,49,225,0
180264,53,44,216,0
180275,66,43,218,0
180286,80,49,224,0
180297,77,54,229,0
180308,73,58,235,0
180319,68,64,236,0
180330,59,61,230,0
180341,52,57,224,0
180352,53,59,226,0
180363,57,50,224,0
180374,63,41,223,0
180385,71,38,222,0
180396,76,38,221,0
180407,81,35,216,0
180418,85,39,212,0
180429,87,46,215,0
180440,82,52,221,0
180451,74,50,228,0
180462,69,47,226,0
180473,69,49,221,0
180484,69,48,218,0
180495,68,46,217,0
180506,67,49,211,0
180517,66,52,207,0
180528,61,51,212,0
180539,58,50,214,0
180550,55,54,217,0
180561,55,52,223,0
180572,59,49,224,0
180583,64,45,223,0
180594,66,48,221,0
180605,67,50,216,0
180616,66,55,206,0
180627,69,56,208,0
180638,71,56,211,0
180649,77,53,210,0
180660,79,47,209,0
180671,84,47,211,0
180682,90,45,212,0
180693,89,45,213,0
180704,88,50,215,0
180715,81,57,217,0
180726,71,59,220,0
180737,65,61,221,0
180748,65,59,220,0
180759,66,60,218,0
180770,62,59,220,0
180781,64,54,229,0
180792,67,51,223,0
180803,74,49,215,0
180814,76,51,212,0
180825,77,52,211,0
180836,75,54,212,0
180847,69,57,216,0
180858,65,54,223,0
180869,66,51,226,0
180880,63,46,225,0
180891,64,44,224,0
180902,63,46,223,0
180913,64,43,221,0
180924,67,46,217,0
180935,70,48,216,0
180946,71,47,214,0
180957,70,50,216,0
180968,62,51,223,0
180979,55,52,230,0
180990,46,55,234,0
181001,39,51,234,0
181012,38,48,225,0
181023,41,46,217,0
181034,47,39,212,0
181045,54,37,209,0
181056,58,34,210,0
181067,57,31,214,0
181078,58,29,220,0
181089,56,29,226,0
181100,56,28,236,0
181111,53,22,240,0
181122,49,20,232,0
181133,42,21,225,0
181144,36,23,216,0
181155,34,32,211,0
181166,38,34,213,1
181177,37,32,220,0
181188,34,33,232,0
181199,36,39,238,0
181210,42,42,240,0
181221,51,31,245,0
181232,60,16,258,0
181243,60,6,258,0
181254,57,3,250,0
181265,74,12,247,0
181276,91,11,245,0
181287,111,3,247,0
181298,129,3,249,0
181309,141,7,253,0
181320,144,11,259,0
181331,132,15,259,0
181342,120,21,253,0
181353,104,24,237,0
181364,93,24,216,0
181375,85,21,200,0
181386,79,16,189,0
181397,73,13,183,0
181408,68,8,181,0
181419,68,4,180,0
181430,69,3,178,0
181441,71,1,178,0
181452,75,0,171,0
181463,79,0,168,0
181474,81,-3,175,0
181485,88,-1,187,0
181496,90,2,200,0
181507,83,0,212,0
181518,77,-2,221,0
181529,66,0,229,0
181540,61,2,236,0
181551,59,2,244,0
181562,52,13,252,0
181573,46,22,259,0
181584,49,30,262,0
181595,52,41,257,0
181606,52,40,254,0
181617,48,38,249,0
181628,44,36,238,0
181639,38,35,226,0
181650,31,32,220,0
181661,24,27,212,0
181672,24,22,201,0
181683,26,21,194,0
181694,27,28,188,0
181705,27,25,197,0
181716,31,24,204,0
181727,37,36,212,0
181738,37,47,216,0
181749,38,54,217,0
181760,46,38,227,0
181771,52,30,226,0
181782,59,27,226,0
181793,59,21,218,0
181804,57,26,219,0
181815,56,27,222,0
181826,55,34,223,0
181837,52,36,226,0
181848,59,39,232,0
181859,60,55,237,0
181870,60,55,238,0
181881,66,48,241,0
181892,73,48,245,0
181903,78,49,235,0
181914,76,45,237,0
181925,83,43,233,0
181936,85,45,226,0
181947,82,35,227,0
181958,89,26,233,0
181969,92,21,222,0
181980,98,22,212,0
181991,96,35,214,0
182002,86,38,240,0
182013,84,28,257,0
182024,88,38,247,0
182035,89,39,237,0
182046,84,38,228,0
182057,78,43,226,0
182068,72,42,224,0
182079,71,35,218,0
182090,67,26,216,0
182101,63,25,221,0
182112,52,28,228,0
182123,41,29,236,0
182134,31,34,237,0
182145,22,39,235,0
182156,15,40,226,0
182167,14,36,221,0
182178,17,30,218,0
182189,24,21,217,0
182200,32,14,220,0
182211,43,10,218,0
182222,51,8,215,0
182233,56,5,216,0
182244,57,0,208,0
182255,56,-4,205,0
182266,58,-11,200,0
182277,58,-16,200,0
182288,58,-19,200,0
182299,61,-20,207,0
182310,62,-17,201,0
182321,60,-14,200,0
182332,63,-19,199,0
182343,75,-14,207,0
182354,89,-9,223,0
182365,90,-1,235,1
182376,79,10,248,0
182387,72,11,264,0
182398,71,10,289,0
182409,63,0,309,0
182420,64,15,286,0
182431,64,14,284,0
182442,65,4,246,0
182453,60,11,228,0
182464,52,27,227,0
182475,42,26,233,0
182486,26,46,240,0
182497,14,63,238,0
182508,-7,40,227,0
182519,3,64,221,0
182530,2,62,199,0
182541,15,64,193,0
182552,26,60,195,0
182563,41,50,201,0
182574,63,64,207,0
182585,64,63,215,0
182596,65,62,225,0
182607,65,64,229,0
182618,62,61,223,0
182629,56,54,221,0
182640,50,51,217,0
182651,41,48,212,0
182662,37,41,213,0
182673,32,37,211,0
182684,28,37,212,0
182695,26,35,212,0
182706,26,33,210,0
182717,23,34,214,0
182728,26,37,215,0
182739,33,39,225,0
182750,35,37,230,0
182761,33,37,236,0
182772,27,37,235,0
182783,23,36,233,0
182795,20,41,228,0
182806,20,42,225,0
182817,28,38,223,0
182828,35,35,221,0
182839,42,33,217,0
182850,46,37,219,0
182861,44,40,220,0
182872,42,42,219,0
182883,34,46,224,0
182894,28,47,232,0
182905,26,43,232,0
182916,27,40,233,0
182927,28,37,232,0
182938,27,36,231,0
182949,30,33,229,0
182960,32,32,227,0
182971,35,36,228,0
182982,37,39,231,0
182993,38,39,230,0
183004,38,41,228,0
183015,39,44,227,0
183026,41,47,228,0
183037,40,45,232,0
183048,37,41,227,0
183059,34,37,227,0
183070,34,36,224,0
183081,35,39,225,0
183092,34,42,227,0
183103,35,42,229,0
183114,32,44,229,0
183125,32,46,230,0
183136,31,49,228,0
183147,30,49,227,0
183158,30,51,225,0
183169,33,55,226,0
183180,35,56,226,0
183191,35,57,227,0
183202,37,57,229,0
183213,46,48,225,0
183224,53,45,224,0
183235,58,46,222,0
183246,61,45,223,0
183257,60,46,225,0
183268,58,48,226,0
183279,57,49,227,0
183290,56,49,227,0
183301,52,50,228,0
183312,48,51,228,0
183323,45,53,227,0
183334,44,54,227,0
183345,46,55,228,0
183356,50,57,226,0
183367,51,62,230,0
183378,51,58,228,0
183389,53,59,225,0
183400,57,62,226,0
183411,56,63,224,0
183422,50,62,224,0
183433,49,60,226,0
183444,50,56,225,0
183455,52,51,224,0
183466,51,35,228,0
183477,52,22,230,1
183488,53,12,233,0
183499,55,3,230,0
183510,57,-6,223,0
183521,60,-11,219,0
183532,61,-8,215,0
183543,51,13,213,0
183554,45,26,218,0
183565,39,37,225,0
183576,36,42,234,0
183587,38,35,241,0
183598,41,31,238,0
183610,41,21,230,0
183621,43,8,221,0
183632,51,0,209,0
183643,57,-4,200,0
183654,60,-5,195,0
183665,61,0,200,0
183676,56,7,207,0
183687,39,7,205,0
183698,32,4,200,0
183709,25,-2,194,0
183720,21,-7,187,0
183731,15,-7,182,0
183742,12,-15,182,0
183753,11,-19,189,0
183764,14,-14,209,0
183775,20,-17,242,0
183786,25,-2,271,0
183797,26,4,286,0
183808,23,5,295,0
183819,21,3,298,0
183830,14,2,296,0
183841,9,1,293,0
183852,4,-3,281,0
183863,6,-1,276,0
183874,8,4,261,0
183885,13,5,251,0
183896,16,4,248,0
183907,20,4,245,0
183918,22,5,241,0
183929,25,6,238,0
183940,25,9,238,0
183951,25,11,235,0
183962,24,16,230,0
183973,21,16,223,0
183984,23,16,221,0
183995,22,18,219,0
184006,25,17,218,0
184017,30,16,211,0
184028,33,16,208,0
184039,37,14,207,0
184050,39,10,208,0
184061,40,8,210,0
184072,43,8,215,0
184083,43,10,219,0
184094,42,9,224,0
184105,41,7,224,0
184116,41,5,226,0
184127,38,2,226,0
184138,35,1,229,0
184149,34,1,232,0
184160,32,1,233,0
184171,32,0,235,0
184182,31,2,236,0
184193,30,2,236,0
184204,32,2,234,0
184215,32,4,233,0
184226,35,4,231,0
184237,37,6,230,0
184248,37,7,228,0
184259,37,7,228,0
184270,36,9,228,0
184281,37,10,228,0
184293,37,11,227,0
184304,37,11,228,0
184315,39,10,230,0
184326,37,2,225,0
184337,37,1,226,0
184348,37,3,228,0
184359,37,5,232,0
184370,37,5,234,0
184381,38,6,234,0
184392,37,6,233,0
184403,38,7,232,0
184414,39,8,231,0
184425,41,6,230,0
184436,42,5,228,0
184447,42,4,227,0
184458,43,2,228,0
184469,43,3,228,0
184480,44,3,230,0
184491,41,3,229,0
184502,41,3,230,0
184513,39,3,233,0
184524,38,5,230,0
184535,36,6,228,0
184546,37,6,227,0
184557,35,6,227,0
184568,34,4,225,0
184579,34,5,226,0
184590,35,5,228,0
184601,36,5,229,0
184612,36,7,227,0
184623,38,7,229,0
184634,38,6,229,0
184645,40,4,229,0
184656,41,3,230,0
184667,43,3,228,0
184678,44,2,228,0
184689,45,3,227,0
184700,45,3,227,0
184711,44,3,228,0
184722,45,3,230,0
184733,45,2,229,0
184744,45,2,230,0
184755,45,3,231,0
184766,43,3,231,0
184777,44,2,231,0
184788,44,1,231,0
184799,43,1,232,0
184810,44,1,232,0
184821,46,0,231,0
184832,47,0,232,0
184843,47,1,230,0
184854,47,1,228,0
184865,47,0,230,0
184876,46,0,229,0
184887,46,0,230,0
184898,46,0,227,0
184909,44,1,230,0
184920,43,1,231,0
184931,44,1,231,0
184942,45,1,232,0
184953,44,1,230,0
184964,45,3,230,0
184975,47,4,228,0
184986,44,4,230,0
184997,43,3,230,0
185008,41,3,229,0
185019,40,1,231,0
185030,40,1,235,0
185041,40,1,234,0
185052,43,0,236,0
185063,43,-1,238,0
185074,45,-1,236,0
185085,49,-4,234,0
185096,51,-1,231,0
185107,52,1,228,0
185118,54,2,234,0
185129,50,-1,232,0
185140,46,-1,229,0
185151,41,-4,228,0
185162,37,-3,227,0
185173,36,-1,233,0
185184,37,-6,234,0
185195,40,-6,236,0
185206,41,-5,240,0
185217,40,0,241,0
185228,37,-1,239,0
185239,37,-3,234,0
185250,36,-4,232,0
185261,34,-5,231,0
185272,34,-5,231,0
185283,31,-4,232,0
185294,27,-6,231,0
185305,24,-8,230,0
185316,23,-7,232,0
185327,21,-5,231,0
185338,19,-5,229,0
185349,18,-8,226,0
185360,15,-12,223,0
185371,15,-13,220,0
185382,13,-12,217,0
185393,15,-14,215,0
185404,15,-14,213,0
185415,15,-13,215,0
185426,15,-13,215,0
185437,14,-12,214,0
185448,15,-12,215,0
185459,14,-13,214,0
185470,12,-15,215,0
185481,11,-16,213,0
185492,11,-18,214,0
185503,13,-17,214,0
185514,12,-18,215,0
185525,10,-18,215,0
185536,11,-17,215,0
185547,9,-17,218,0
185558,6,-17,219,0
185569,4,-13,221,0
185580,2,-13,220,0
185591,0,-11,221,0
185602,-2,-9,222,0
185613,-6,-9,222,0
185624,-8,-6,221,0
185635,-12,-10,220,0
185646,-12,-12,219,0
185657,-13,-15,218,0
185668,-11,-14,217,1
185679,-11,-10,220,0
185690,-12,-8,226,0
185701,-12,-7,239,0
185712,-5,-7,252,0
185723,4,-1,262,0
185734,17,0,271,0
185745,29,1,278,0
185756,41,0,278,0
185767,50,1,273,0
185778,56,1,265,0
185789,65,-6,273,0
185800,96,3,299,0
185811,91,10,298,0
185822,79,6,270,0
185833,68,-3,237,0
185844,61,1,216,0
185855,58,1,207,0
185866,54,-3,207,0
185877,51,-5,214,0
185888,52,-6,215,0
185899,49,-10,215,0
185910,46,-14,211,0
185921,43,-16,207,0
185932,47,-16,202,0
185943,51,-17,200,0
185955,69,-16,203,0
185966,75,-9,204,0
185977,73,-1,212,0
185988,73,3,219,0
185999,73,5,227,0
186010,70,5,232,0
186021,65,7,226,0
186032,58,3,221,0
186043,52,8,218,0
186054,49,12,218,0
186065,48,16,221,0
186076,51,19,224,0
186087,55,21,225,0
186098,63,20,221,0
186109,65,21,219,0
186120,65,22,220,0
186131,64,27,225,0
186142,61,33,227,0
186153,53,36,233,0
186164,44,36,236,0
186175,37,37,241,0
186186,32,36,241,0
186197,29,42,238,0
186208,24,41,236,0
186219,26,37,234,0
186230,28,34,233,0
186241,30,33,232,0
186252,29,39,228,0
186263,27,43,229,0
186274,25,44,232,0
186285,25,42,233,0
186296,25,35,234,0
186307,24,33,230,0
186318,24,30,227,0
186329,27,22,226,0
186340,27,21,221,0
186351,28,23,219,0
186362,28,23,218,0
186373,29,22,220,0
186384,33,20,225,0
186395,33,20,228,0
186406,34,23,232,0
186417,33,25,233,0
186428,33,26,234,0
186439,31,23,232,0
186450,29,21,233,0
186461,30,18,229,0
186472,30,14,227,0
186483,32,10,224,0
186494,32,8,220,0
186505,30,7,221,0
186516,28,7,220,0
186527,27,6,222,0
186538,25,10,226,0
186549,24,14,230,0
186560,25,13,233,0
186571,26,12,233,0
186582,30,12,233,0
186593,33,10,229,0
186604,35,11,224,0
186615,35,11,222,0
186626,32,12,225,0
186637,30,7,227,0
186648,29,5,225,0
186659,27,8,226,0
186670,24,6,228,0
186681,22,9,232,0
186692,17,8,234,0
186703,14,9,231,0
186714,15,15,230,0
186725,14,17,229,0
186736,14,23,230,0
186747,12,25,230,0
186758,8,26,228,0
186769,-7,24,230,0
186780,-14,25,235,0
186791,-21,28,240,1
186802,-24,28,240,0
186813,-22,33,243,0
186824,-16,36,244,0
186835,-8,36,239,0
186846,2,34,229,0
186857,11,25,226,0
186868,17,18,228,0
186879,13,12,239,0
186890,3,13,247,0
186901,-6,18,251,0
186912,-11,24,246,0
186923,-8,36,242,0
186934,2,25,261,1
186945,9,19,273,0
186956,24,21,280,0
186967,45,33,283,0
186978,58,42,279,0
186989,65,47,268,0
187000,76,47,263,0
187011,88,43,252,0
187022,93,35,239,0
187033,92,19,223,0
187044,95,3,212,0
187055,98,-11,188,0
187066,103,-18,169,0
187077,95,-19,159,0
187088,82,-13,167,0
187099,61,7,199,0
187110,50,15,233,0
187121,42,15,263,0
187132,36,19,283,0
187143,31,27,278,0
187154,25,25,273,0
187165,21,25,266,0
187176,19,26,259,0
187187,20,17,259,0
187198,25,13,253,0
187209,34,12,240,0
187220,41,9,230,0
187231,44,6,225,0
187242,45,3,213,0
187253,43,4,199,0
187264,43,4,196,0
187275,38,2,197,0
187286,32,1,196,0
187297,24,2,195,0
187308,18,2,201,0
187319,9,3,206,0
187330,2,4,211,0
187341,-3,1,212,0
187352,-8,0,207,0
187363,-10,0,202,0
187374,-14,-1,202,0
187385,-16,-2,199,0
187396,-15,-4,200,0
187407,-17,-4,200,0
187418,-18,-11,200,0
187429,-18,-15,205,0
187440,-17,-15,205,0
187451,-17,-13,210,0
187462,-15,-15,219,0
187473,-17,-17,217,0
187484,-20,-13,214,0
187495,-25,-8,218,0
187506,-30,-4,226,0
187517,-31,7,235,0
187528,-36,7,236,0
187539,-34,-2,236,0
187550,-31,-14,239,0
187561,-26,-15,241,0
187572,-27,-4,242,0
187583,-38,-5,257,0
187594,-32,-6,284,1
187605,-4,-10,318,0
187616,43,-12,347,0
187627,78,-1,359,0
187638,86,1,335,0
187649,87,-21,309,0
187660,105,-12,311,0
187671,144,-2,364,0
187682,163,10,388,0
187693,120,9,352,0
187704,68,-9,273,0
187715,37,-13,206,0
187726,22,-31,182,0
187737,14,-46,170,0
187748,19,-38,147,0
187759,30,-32,146,0
187770,40,-32,149,0
187781,50,-22,162,0
187792,61,-5,173,0
187803,68,3,187,0
187814,71,9,198,0
187825,77,10,206,0
187836,83,17,219,0
187847,86,18,225,0
187858,85,22,232,0
187869,78,20,234,0
187880,74,19,232,0
187891,71,14,226,0
187902,70,10,223,0
187913,71,6,212,0
187924,70,4,217,0
187935,63,6,219,0
187946,53,10,220,0
187957,42,13,225,0
187968,34,13,225,0
187979,31,17,227,0
187990,24,17,226,0
188001,17,16,222,0
188012,14,15,223,0
188023,5,14,218,0
188034,-1,13,214,0
188045,-2,17,219,0
188056,-4,17,224,0
188067,-3,17,227,0
188078,0,17,227,0
188089,3,17,225,0
188100,2,18,227,0
188111,4,18,226,0
188122,3,14,223,0
188133,-1,16,221,0
188144,-1,17,227,0
188155,0,18,227,0
188166,1,20,225,0
188177,3,21,226,0
188188,4,17,226,0
188199,3,14,224,0
188210,4,8,222,0
188221,3,2,220,0
188232,5,-1,221,0
188243,13,2,225,0
188254,13,11,229,0
188265,13,12,229,0
188276,12,16,226,0
188287,11,14,221,1
188298,5,6,215,0
188310,0,1,207,0
188321,-2,-2,206,0
188332,-9,1,211,0
188343,-8,2,216,0
188354,0,6,223,0
188365,18,11,230,0
188376,36,6,246,0
188387,54,-1,267,0
188399,50,0,264,0
188410,28,2,270,1
188421,5,-1,281,0
188432,-4,-2,277,0
188443,1,18,272,0
188454,5,13,292,0
188465,20,-1,318,0
188476,45,5,321,0
188487,65,32,308,0
188498,87,46,297,0
188509,105,41,262,0
188520,112,34,226,0
188531,111,19,188,0
188542,107,12,179,0
188553,98,-4,170,0
188564,89,-10,171,0
188575,84,-12,186,0
188586,77,-10,206,0
188597,64,-1,228,0
188608,50,5,245,0
188619,38,10,260,0
188630,33,16,265,0
188641,22,17,265,0
188652,21,26,260,0
188663,18,27,253,0
188674,16,23,244,0
188685,14,14,241,0
188696,29,6,230,0
188707,35,6,219,0
188718,38,3,210,0
188729,43,1,204,0
188740,47,1,201,0
188751,48,0,200,0
188762,48,-1,200,0
188774,47,-2,203,0
188785,44,-1,206,0
188796,40,-1,210,0
188807,34,-1,214,0
188818,30,-3,216,0
188829,23,-6,211,0
188840,16,-9,209,0
188851,6,-9,205,0
188862,4,-8,200,0
188873,1,-5,201,0
188884,0,-1,201,0
188895,1,-2,202,0
188906,0,0,206,0
188917,-1,1,209,0
188928,-1,2,210,0
188939,-6,3,211,0
188950,-9,5,210,0
188961,-10,5,213,0
188972,-12,4,213,0
188983,-14,6,218,0
188994,-15,6,222,0
189005,-22,6,229,0
189016,-24,2,226,0
189027,-23,1,223,0
189038,-20,0,220,0
189049,-17,0,220,0
189060,-16,1,225,0
189071,-15,-2,231,0
189082,-10,2,234,0
189093,-11,8,227,0
189104,-17,3,229,0
189115,-17,2,231,0
189126,-18,8,232,0
189137,-23,12,237,0
189148,-29,8,239,0
189159,-30,5,239,0
189170,-16,4,261,1
189181,27,18,312,0
189192,84,32,362,0
189203,137,58,397,0
189214,157,62,393,0
189225,175,38,364,0
189236,193,33,324,0
189247,201,26,316,0
189258,190,-8,347,0
189269,152,-53,390,0
189280,56,6,281,0
189291,3,2,171,0
189302,-30,-29,146,0
189313,-36,-46,135,0
189324,-17,-34,134,0
189335,14,-23,147,0
189346,38,-22,147,0
189357,61,-16,152,0
189368,81,1,168,0
189379,98,20,196,0
189390,110,30,218,0
189401,117,32,224,0
189412,118,28,221,0
189423,117,27,221,0
189434,110,24,224,0
189445,102,22,224,0
189456,91,17,224,0
189467,81,11,220,0
189478,70,9,211,0
189489,63,5,211,0
189500,53,11,215,0
189511,48,13,219,0
189522,44,16,224,0
189533,44,16,223,0
189544,42,18,222,0
189555,41,15,220,0
189566,39,15,222,0
189577,35,10,219,0
189588,31,7,215,0
189599,28,7,214,0
189610,21,6,216,0
189621,15,4,216,0
189632,11,8,219,0
189643,7,8,224,0
189654,3,8,227,0
189665,1,15,230,0
189676,1,20,229,0
189687,0,23,229,0
189698,1,22,227,0
189709,1,21,226,0
189720,3,18,223,0
189731,3,19,221,0
189742,5,18,223,0
189753,8,19,223,0
189764,10,19,224,0
189775,13,17,229,0
189786,14,16,233,0
189797,18,13,234,0
189808,19,15,232,0
189819,19,12,232,0
189830,24,13,231,0
189841,25,10,231,0
189852,26,6,230,0
189863,26,5,225,0
189874,25,4,223,0
189885,25,7,219,0
189896,23,7,215,0
189907,22,9,215,0
189918,20,11,215,0
189929,16,13,217,0
189940,10,14,221,0
189951,5,18,223,0
189962,1,25,223,0
189973,-2,37,225,1
189984,-6,41,229,0
189995,13,44,250,0
190006,24,35,264,0
190017,29,15,275,0
190028,31,0,274,0
190039,28,-5,267,0
190050,25,-2,269,0
190061,8,3,288,0
190072,0,17,310,0
190083,12,44,317,0
190094,44,63,309,0
190105,76,69,294,0
190116,100,47,264,0
190127,116,30,238,0
190138,127,7,201,0
190149,124,-5,174,0
190160,109,-20,141,0
190171,101,-23,137,0
190182,91,-20,146,0
190193,78,-7,171,0
190204,63,1,193,0
190215,49,8,209,0
190226,30,9,227,0
190237,19,7,255,0
190248,8,12,273,0
190259,0,17,292,0
190270,1,20,288,0
190281,6,22,280,0
190292,14,26,268,0
190303,21,29,265,0
190314,36,38,262,0
190325,47,37,251,0
190336,58,29,248,0
190347,63,29,243,0
190358,66,25,236,0
190369,70,17,231,0
190380,74,12,223,0
190391,76,12,213,0
190402,74,13,207,0
190413,71,10,201,0
190424,70,6,200,0
190435,68,4,202,0
190446,64,5,201,0
190457,56,10,200,0
190468,49,15,201,0
190479,29,20,198,0
190490,22,21,201,0
190501,19,24,207,0
190512,17,26,206,0
190523,23,28,210,0
190534,29,27,211,0
190545,31,27,216,0
190556,32,22,219,0
190567,31,31,212,0
190578,22,28,213,0
190589,21,22,216,0
190600,21,24,218,0
190611,21,22,221,0
190622,22,16,222,0
190633,22,8,216,0
190644,13,9,221,0
190655,7,4,219,0
190666,5,5,213,0
190677,5,16,215,0
190689,5,23,222,0
190700,4,32,231,0
190711,3,40,239,0
190722,2,42,240,0
190733,1,48,242,0
190744,-3,53,243,0
190756,-15,56,251,0
190767,-25,52,260,0
190778,-42,34,261,0
190789,-46,30,256,1
190800,-43,31,258,0
190811,-12,42,290,0
190822,22,48,321,0
190833,46,48,336,0
190844,54,47,322,0
190855,63,35,294,0
190866,96,29,278,0
190877,138,24,318,0
190888,147,15,366,0
190899,124,20,343,0
190910,97,23,270,0
190921,62,13,206,0
190932,30,-18,162,0
190943,12,-52,118,0
190954,14,-45,128,0
190965,22,-42,143,0
190976,34,-33,151,0
190987,52,-23,170,0
190998,72,-7,192,0
191009,87,-1,210,0
191020,96,0,219,0
191031,98,2,221,0
191042,94,5,226,0
191053,88,7,227,0
191064,79,5,226,0
191075,67,5,229,0
191086,58,3,226,0
191097,53,1,222,0
191108,51,1,218,0
191119,50,0,219,0
191130,49,1,214,0
191141,45,-1,212,0
191152,48,-3,212,0
191163,47,0,215,0
191174,48,1,215,0
191185,43,1,213,0
191196,38,2,211,0
191207,35,1,210,0
191218,29,5,211,0
191229,26,7,212,0
191240,23,10,215,0
191251,20,9,220,0
191262,17,9,224,0
191273,20,12,225,0
191284,17,12,228,0
191295,18,13,227,0
191306,16,14,227,0
191317,15,11,226,0
191328,13,12,228,0
191339,11,16,235,0
191350,14,12,236,0
191361,15,14,229,0
191372,16,14,221,0
191383,14,13,218,0
191394,14,10,220,0
191405,16,9,221,0
191416,21,6,224,0
191427,25,3,226,0
191438,26,1,229,0
191450,24,0,226,0
191460,20,0,222,0
191471,19,9,220,0
191482,20,17,220,0
191493,17,26,219,0
191504,15,36,218,0
191515,8,40,216,0
191526,-1,33,211,0
191537,-10,31,208,0
191548,-22,33,205,0
191559,-23,34,211,0
191570,-9,41,227,0
191581,-3,38,240,1
191592,3,29,253,0
191603,6,19,277,0
191614,1,16,279,0
191625,-6,16,286,0
191636,-17,8,294,0
191647,-14,17,295,0
191658,-10,25,301,0
191669,9,22,315,0
191680,42,27,325,0
191691,70,47,317,0
191702,95,52,293,0
191714,115,46,269,0
191725,128,39,242,0
191736,131,31,217,0
191747,129,11,183,0
191758,116,1,171,0
191769,100,-4,175,0
191780,83,-9,191,0
191791,70,-15,207,0
191802,57,-5,221,0
191813,36,2,244,0
191824,17,15,256,0
191836,5,25,268,0
191847,-3,33,268,0
191858,-12,35,262,0
191869,-15,37,258,0
191880,-13,30,248,0
191891,-4,23,237,0
191902,9,15,223,0
191913,18,15,219,0
191925,25,7,214,0
191936,36,5,202,0
191947,41,3,199,0
191958,44,0,194,0
191969,47,1,196,0
191980,47,0,201,0
191991,48,3,207,0
192002,48,5,211,0
192013,44,2,209,0
192024,43,2,207,0
192035,37,3,209,0
192046,23,4,211,0
192057,18,3,208,0
192068,11,4,206,0
192079,5,6,202,0
192090,1,6,197,0
192101,-2,5,194,0
192112,-5,5,203,0
192123,-8,6,208,0
192134,-10,6,211,0
192145,-9,13,211,0
192156,-13,25,219,0
192167,-15,26,227,0
192178,-21,32,225,0
192189,-23,32,226,0
192200,-27,39,230,0
192211,-38,31,240,0
192222,-35,23,234,0
192233,-27,16,231,0
192244,-17,14,232,0
192255,-8,17,230,0
192266,-6,20,230,0
192277,-6,24,236,0
192288,-8,26,240,0
192299,-11,26,247,0
192310,-18,24,255,0
192321,-25,23,264,0
192332,-22,25,286,0
192343,-3,30,324,1
192354,31,28,350,0
192365,71,34,375,0
192376,101,17,325,0
192387,117,16,290,0
192398,125,28,276,0
192409,115,14,255,0
192420,102,-9,263,0
192431,79,-29,260,0
192442,66,-26,221,0
192453,57,-36,188,0
192464,52,-39,175,0
192475,44,-33,162,0
192486,39,-24,159,0
192497,41,-8,163,0
192508,49,-3,175,0
192519,58,-1,182,0
192530,65,0,192,0
192541,65,5,208,0
192552,67,6,211,0
192563,68,7,213,0
192574,73,5,215,0
192585,75,6,214,0
192596,76,6,218,0
192607,76,7,211,0
192618,74,5,207,0
192629,73,7,208,0
192640,75,6,212,0
192651,68,9,219,0
192662,58,15,223,0
192673,50,17,223,0
192684,47,17,218,0
192695,42,19,216,0
192706,33,17,221,0
192717,26,14,223,0
192728,18,17,223,0
192739,13,18,222,0
192750,8,15,222,0
192761,5,14,220,0
192772,2,13,218,0
192783,3,16,225,0
192794,5,15,230,0
192805,4,18,232,0
192816,13,15,227,0
192827,17,17,223,0
192838,19,17,226,0
192849,22,15,222,0
192860,19,13,224,0
192871,19,14,225,0
192882,17,15,225,0
192893,17,12,223,0
192904,17,10,223,0
192915,21,10,223,0
192926,19,11,223,0
192937,17,11,227,0
192948,16,13,229,0
192959,15,15,227,0
192970,18,14,228,0
192981,20,14,223,0
192992,25,14,220,0
193003,24,14,219,0
193014,23,11,219,0
193025,14,3,218,0
193036,11,1,220,0
193048,12,4,220,0
193059,8,8,221,0
193070,4,10,225,0
193081,2,14,226,0
193092,0,20,225,0
193103,0,21,226,0
193114,2,26,225,1
193125,12,30,227,0
193136,26,34,234,0
193147,35,33,248,0
193158,37,20,261,0
193169,28,4,267,0
193180,5,-1,268,0
193191,0,-1,279,0
193202,10,2,278,0
193213,30,27,284,0
193224,48,34,296,0
193235,61,24,306,0
193246,77,14,303,0
193257,99,18,284,0
193268,117,32,264,0
193279,128,27,228,0
193290,130,22,201,0
193301,130,12,182,0
193312,122,5,180,0
193323,115,-4,182,0
193334,98,-8,187,0
193346,67,-4,206,0
193357,51,2,223,0
193368,33,8,242,0
193379,22,10,256,0
193390,15,14,259,0
193401,11,17,258,0
193412,12,16,250,0
193423,16,15,243,0
193434,18,16,239,0
193445,21,15,233,0
193456,20,13,226,0
193467,23,9,217,0
193478,27,9,211,0
193489,39,10,219,0
193500,43,2,223,0
193511,51,2,217,0
193522,56,0,217,0
193533,61,-1,214,0
193544,63,-2,213,0
193555,63,-3,211,0
193566,63,-3,210,0
193577,64,-4,210,0
193588,60,-3,207,0
193599,54,-1,206,0
193610,45,-1,207,0
193621,34,0,213,0
193632,21,2,217,0
193643,9,5,216,0
193654,-4,20,200,0
193665,-3,21,208,0
193676,-3,15,205,0
193687,-1,17,216,0
193698,4,21,219,0
193709,8,26,222,0
193720,11,32,227,0
193731,14,32,231,0
193742,18,33,237,0
193753,19,29,238,0
193764,16,25,239,0
193775,13,21,239,0
193786,9,18,235,0
193797,7,15,231,0
193808,6,11,232,0
193819,10,11,225,0
193830,10,10,224,0
193841,12,11,224,0
193852,12,12,231,0
193863,17,16,241,0
193874,18,16,243,0
193885,19,22,234,0
193896,14,37,228,0
193907,9,33,244,0
193918,13,29,254,0
193929,14,33,254,0
193940,8,39,245,0
193951,0,48,235,0
193962,-9,50,230,0
193973,-16,45,229,0
193984,-33,37,228,0
193995,-39,39,221,1
194006,-14,48,251,0
194017,25,62,279,0
194028,62,78,308,0
194039,82,87,318,0
194050,100,78,305,0
194061,87,34,261,0
194072,106,-3,317,0
194083,154,7,278,0
194094,133,4,315,0
194105,128,-2,329,0
194116,90,16,298,0
194127,66,12,222,0
194138,49,-17,182,0
194149,24,-36,150,0
194160,27,-30,151,0
194171,33,-21,159,0
194182,46,-23,158,0
194193,55,-18,158,0
194204,64,-1,169,0
194215,72,13,195,0
194226,78,21,207,0
194237,79,25,221,0
194248,80,26,228,0
194259,83,32,239,0
194271,80,33,247,0
194282,75,30,251,0
194293,69,14,239,0
194304,67,7,229,0
194315,64,2,217,0
194326,65,-1,210,0
194337,71,-1,206,0
194348,76,-1,206,0
194359,79,-2,207,0
194370,83,0,212,0
194381,82,0,216,0
194392,77,1,214,0
194403,70,1,215,0
194414,64,1,213,0
194425,57,4,208,0
194436,50,5,208,0
194447,43,4,208,0
194458,32,11,215,0
194469,29,15,222,0
194480,26,18,226,0
194491,25,17,230,0
194502,27,17,231,0
194513,30,15,230,0
194524,31,10,229,0
194535,32,9,229,0
194546,30,8,230,0
194557,26,4,229,0
194568,20,3,227,0
194579,14,3,227,0
194590,11,4,228,0
194601,10,6,229,0
194612,8,9,230,0
194623,8,10,230,0
194634,9,12,230,0
194645,8,13,232,0
194656,7,16,230,0
194667,6,17,229,0
194678,4,20,225,0
194689,4,20,222,0
194700,2,22,219,0
194711,1,22,220,0
194722,3,22,217,0
194733,4,21,220,0
194744,4,24,223,0
194755,5,24,224,0
194766,3,26,230,0
194777,1,18,228,0
194788,-6,20,218,0
194799,-8,22,216,0
194810,-5,24,214,1
194821,2,31,209,0
194832,3,31,205,0
194843,3,34,201,0
194854,0,37,199,0
194865,0,36,199,0
194876,-1,24,206,0
194887,2,11,224,0
194898,9,4,238,0
194909,15,4,249,0
194920,16,5,260,0
194931,10,6,286,0
194942,10,4,311,0
194953,32,5,339,0
194964,49,14,341,0
194975,79,31,333,0
194986,107,57,323,0
194997,122,68,315,0
195008,128,68,306,0
195019,128,64,280,0
195030,130,61,252,0
195041,137,49,231,0
195052,139,28,213,0
195063,137,1,203,0
195074,128,-18,190,0
195085,119,-35,183,0
195096,106,-47,178,0
195107,98,-49,171,0
195118,88,-21,162,0
195129,72,-11,180,0
195140,60,-1,195,0
195151,49,4,204,0
195162,40,12,215,0
195173,32,20,233,0
195184,32,21,248,0
195195,31,21,252,0
195206,26,16,251,0
195217,23,13,246,0
195228,22,5,238,0
195239,24,3,234,0
195250,24,0,225,0
195261,26,1,221,0
195272,30,0,218,0
195283,36,0,223,0
195294,38,0,222,0
195305,39,0,218,0
195316,39,-1,215,0
195327,39,-2,210,0
195338,38,-4,210,0
195349,34,-2,206,0
195360,32,-3,205,0
195371,27,-2,200,0
195382,23,-1,201,0
195393,21,0,199,0
195404,21,0,199,0
195415,19,2,205,0
195426,20,3,211,0
195437,19,2,208,0
195448,20,3,206,0
195459,19,4,206,0
195470,18,8,211,0
195481,17,12,217,0
195492,16,13,225,0
195503,13,14,230,0
195514,11,13,230,0
195525,12,15,233,0
195537,11,17,235,0
195548,8,20,239,0
195559,10,19,240,0
195570,11,22,240,0
195581,10,23,242,0
195592,4,21,237,0
195603,3,21,234,0
195614,3,21,232,0
195625,6,20,227,0
195636,8,18,226,0
195647,10,20,225,0
195658,11,20,227,0
195669,10,21,230,0
195680,8,17,231,0
195691,4,17,233,1
195702,1,17,233,0
195713,-2,16,232,0
195724,-8,14,231,0
195735,-11,13,230,0
195746,-13,13,231,0
195757,-14,4,237,0
195768,-8,3,243,0
195779,12,6,265,0
195790,45,15,296,0
195801,74,29,320,0
195812,95,36,327,0
195823,102,34,318,0
195834,107,30,296,0
195845,117,21,282,0
195856,129,28,281,0
195867,138,18,293,0
195878,122,26,281,0
195889,88,49,235,0
195900,79,-41,269,0
195911,37,23,188,0
195922,18,-22,152,0
195933,40,-18,148,0
195944,54,-16,150,0
195955,64,-14,158,0
195966,74,-9,168,0
195977,89,-7,177,0
195988,101,0,191,0
195999,110,6,206,0
196010,111,9,215,0
196021,111,11,223,0
196032,106,14,226,0
196043,97,15,228,0
196054,89,12,226,0
196065,84,7,220,0
196076,75,6,214,0
196087,64,1,214,0
196098,59,1,220,0
196109,56,-1,225,0
196120,57,4,226,0
196131,56,5,227,0
196142,58,7,227,0
196153,56,13,226,0
196164,48,18,227,0
196175,43,18,227,0
196186,36,19,223,0
196197,27,18,221,0
196208,21,17,218,0
196219,20,16,217,0
196230,17,16,219,0
196241,14,19,222,0
196252,12,19,227,0
196263,12,20,228,0
196274,12,19,230,0
196285,12,16,230,0
196296,13,15,231,0
196307,16,16,232,0
196318,17,12,233,0
196329,15,11,230,0
196340,9,6,228,0
196351,6,5,228,0
196362,5,3,226,0
196373,4,6,228,0
196384,2,7,230,0
196395,2,8,231,0
196406,2,7,234,0
196417,-1,11,232,0
196428,-4,12,234,0
196439,-5,14,229,0
196450,-4,13,226,0
196461,-6,17,223,0
196472,-11,19,221,0
196483,-10,18,223,0
196494,-4,13,222,0
196505,-1,9,222,0
196516,1,6,218,0
196527,2,3,217,0
196538,3,2,219,0
196549,4,2,222,0
196560,5,4,223,0
196571,5,8,226,0
196582,-5,5,221,0
196593,-8,5,216,0
196604,-12,7,214,0
196615,-13,2,215,0
196626,-6,1,214,0
196637,2,-1,219,0
196648,8,-2,226,1
196659,13,-4,233,0
196670,12,-7,238,0
196681,7,-6,242,0
196692,10,2,238,0
196703,17,25,237,0
196714,14,38,253,0
196725,13,22,280,0
196736,39,16,310,0
196747,61,28,315,0
196758,86,39,313,0
196769,99,50,306,1
196780,109,49,295,0
196791,114,40,275,0
196802,115,27,251,0
196813,115,13,231,0
196824,115,1,216,0
196835,114,-12,198,0
196846,112,-19,184,0
196857,111,-22,176,0
196868,108,-21,170,0
196879,100,-19,168,0
196890,96,-18,167,0
196901,93,-15,178,0
196912,92,-7,186,0
196923,87,3,192,0
196934,76,15,208,0
196945,66,30,233,0
196956,55,49,256,0
196967,39,53,268,0
196978,25,53,278,0
196989,8,45,278,0
197000,0,39,271,0
197011,-2,26,261,0
197022,0,19,254,0
197033,1,11,247,0
197044,5,5,239,0
197055,7,4,230,0
197066,19,1,223,0
197077,24,5,215,0
197088,24,6,208,0
197099,24,10,207,0
197110,20,11,204,0
197121,14,12,206,0
197132,8,15,210,0
197143,2,11,203,0
197154,-4,8,199,0
197165,-8,7,203,0
197176,-13,4,206,0
197187,-11,2,203,0
197198,-11,-3,200,0
197209,-4,-4,202,0
197220,0,-7,201,0
197231,-1,-2,203,0
197242,-9,-2,205,0
197253,-16,-2,204,0
197264,-20,0,206,0
197275,-25,-1,212,0
197286,-25,-1,219,0
197297,-25,-5,224,0
197308,-22,-2,234,0
197319,-22,1,230,0
197330,-26,0,224,0
197341,-29,2,224,0
197352,-32,2,221,0
197363,-27,8,222,0
197374,-29,50,236,0
197385,-33,55,238,0
197396,-5,22,240,0
197407,1,16,243,1
197418,1,16,251,0
197430,-1,9,263,0
197441,-4,2,277,0
197452,4,-9,294,0
197463,30,-23,312,0
197474,59,-18,317,0
197485,74,-4,311,0
197496,80,-3,304,0
197507,87,-7,298,0
197518,94,-4,296,0
197529,98,7,284,0
197540,97,14,277,0
197551,73,8,268,0
197562,52,6,258,0
197573,30,13,237,0
197584,15,8,219,0
197595,7,-2,204,0
197606,1,-12,186,0
197617,10,-12,175,0
197628,32,-15,174,0
197639,54,-23,189,0
197650,71,-26,202,0
197661,84,-16,200,0
197672,89,-13,192,0
197683,93,-6,182,0
197694,96,4,179,0
197705,88,16,192,0
197716,78,29,201,0
197727,69,37,214,0
197738,64,36,224,0
197749,58,34,234,0
197760,57,30,239,0
197771,58,25,236,0
197782,64,20,229,0
197793,69,16,219,0
197804,70,10,217,0
197815,74,15,218,0
197826,76,14,216,0
197837,78,16,217,0
197848,78,17,221,0
197859,76,20,226,0
197870,65,27,232,0
197881,58,28,228,0
197892,48,31,224,0
197903,38,31,219,0
197914,31,30,215,0
197925,23,31,215,0
197936,19,31,215,0
197947,15,30,213,0
197958,12,27,214,0
197969,8,26,216,0
197980,6,27,220,0
197991,6,27,224,0
198002,7,27,231,0
198013,8,27,236,0
198024,10,25,237,0
198035,17,22,235,0
198046,16,21,232,0
198057,16,16,227,0
198068,12,15,226,0
198079,11,15,229,0
198090,11,14,230,0
198101,12,16,232,0
198112,13,16,233,0
198123,13,18,234,0
198134,14,17,233,0
198145,15,14,230,0
198156,16,13,230,0
198167,20,10,227,0
198178,24,12,226,0
198189,23,16,225,1
198200,21,22,223,0
198211,20,21,226,0
198222,17,22,230,0
198234,14,18,231,0
198245,12,15,229,0
198256,10,14,228,0
198267,8,17,225,0
198278,7,20,225,0
198289,1,20,223,0
198300,-5,22,221,0
198311,-11,22,222,0
198322,-13,24,223,0
198333,-6,25,222,1
198344,10,27,222,0
198355,36,8,242,0
198366,36,0,243,0
198377,34,-1,239,0
198388,30,5,231,0
198399,31,17,232,0
198410,23,25,234,0
198421,17,20,247,0
198432,17,7,265,0
198443,24,7,280,0
198454,40,9,287,0
198465,55,19,291,0
198476,62,36,293,0
198488,63,41,282,0
198498,67,46,267,0
198509,76,32,227,0
198520,75,22,217,0
198531,76,8,207,0
198542,78,-3,198,0
198553,81,-10,192,0
198564,80,-14,190,0
198575,75,-16,191,0
198586,69,-17,192,0
198597,65,-20,192,0
198608,65,-23,193,0
198619,66,-22,201,0
198630,61,-13,210,0
198641,55,-5,217,0
198652,52,4,228,0
198663,41,18,231,0
198674,9,28,259,0
198685,-1,27,268,0
198696,-10,27,273,0
198707,-15,21,274,0
198718,-14,17,269,0
198729,-9,10,259,0
198740,-2,9,250,0
198751,5,5,242,0
198762,8,4,238,0
198773,13,1,235,0
198784,15,3,224,0
198795,18,2,215,0
198806,20,2,211,0
198817,25,4,211,0
198828,25,5,206,0
198839,27,2,202,0
198850,26,2,208,0
198861,27,0,208,0
198872,31,0,208,0
198883,31,1,209,0
198894,30,2,210,0
198905,29,1,210,0
198916,25,1,214,0
198927,23,1,219,0
198938,18,3,222,0
198949,14,4,223,0
198960,12,4,223,0
198971,8,4,223,0
198982,6,3,221,0
198993,6,4,223,0
199004,3,7,228,0
199015,0,10,228,0
199026,-1,11,232,0
199037,-2,12,232,0
199048,-4,14,235,0
199059,-1,15,235,0
199070,-1,17,232,0
199081,0,16,231,0
199092,-1,16,227,0
199103,-1,15,228,0
199114,0,11,228,0
199125,1,10,227,0
199136,1,8,223,0
199147,2,8,222,0
199158,4,9,223,0
199169,1,10,218,0
199180,1,9,218,0
199191,1,8,219,0
199202,2,9,218,0
199213,2,9,221,0
199224,3,8,223,0
199235,2,7,222,0
199246,1,4,221,0
199257,2,6,227,0
199268,8,7,237,0
199279,21,11,255,0
199290,39,19,277,1
199301,58,25,303,0
199312,76,36,320,0
199323,94,49,330,0
199334,126,33,332,0
199345,149,47,318,0
199356,143,40,297,0
199367,120,29,292,0
199378,88,6,269,0
199389,66,0,231,0
199400,36,-1,209,0
199411,17,-22,194,0
199422,13,-39,189,0
199433,9,-50,182,0
199444,12,-43,175,0
199455,17,-37,175,0
199466,26,-29,179,0
199477,41,-15,183,0
199488,58,-3,190,0
199499,87,14,200,0
199510,100,21,206,0
199521,104,25,216,0
199532,105,24,214,0
199543,103,25,212,0
199554,98,24,210,0
199565,90,21,211,0
199576,86,19,213,0
199587,80,21,216,0
199599,78,22,220,0
199610,77,20,223,0
199621,77,18,224,0
199632,74,18,221,0
199643,69,17,219,0
199655,69,18,220,0
199666,70,19,225,0
199677,68,21,227,0
199688,67,25,228,0
199699,65,23,229,0
199710,64,26,228,0
199721,61,25,229,0
199732,60,25,227,0
199743,58,24,228,0
199754,57,20,227,0
199765,57,18,224,0
199776,57,18,221,0
199787,55,20,221,0
199798,49,19,223,0
199809,47,21,223,0
199820,47,20,223,0
199831,46,22,221,0
199842,46,22,223,0
199853,45,24,226,0
199864,45,21,227,0
199875,48,19,231,0
199886,52,17,231,0
199897,53,20,231,0
199908,53,19,229,0
199919,50,22,229,0
199930,49,19,228,0
199941,45,21,229,0
199952,41,23,233,0
199963,37,24,234,0
199974,37,25,234,0
199985,37,24,235,0
199996,38,25,234,0
200007,38,24,229,0
200018,38,22,226,0
200029,39,24,227,0
200040,37,24,227,0
200051,34,28,229,0
200062,33,28,231,0
200073,34,28,231,0
200084,35,27,230,0
200095,37,26,232,0
200106,40,27,230,0
200117,40,27,230,0
200128,39,28,230,0
200139,37,29,231,0
200150,33,29,233,0
200161,28,31,233,0
200172,25,35,231,0
200183,19,40,230,0
200194,16,44,224,0
200205,14,50,229,0
200216,12,53,231,0
200227,16,57,233,0
200238,18,54,234,1
200249,25,39,235,0
200260,37,14,229,0
200271,49,-6,226,0
200282,56,-28,224,0
200293,50,-19,224,0
200304,45,2,229,0
200315,36,18,236,0
200326,31,24,239,0
200337,38,26,237,0
200348,49,26,227,0
200359,61,25,219,0
200370,71,18,210,0
200381,83,11,205,0
200392,91,7,201,0
200403,96,1,197,0
200414,97,3,191,0
200425,98,2,189,0
200436,95,1,192,0
200447,85,0,201,0
200458,59,5,222,0
200469,44,3,237,0
200480,39,12,255,0
200491,18,10,269,0
200502,5,13,273,0
200513,-9,22,266,0
200524,-16,19,277,0
200535,-14,22,277,0
200546,-6,22,271,0
200557,3,22,259,0
200568,10,20,245,0
200579,10,15,242,0
200590,20,6,242,0
200601,29,4,234,0
200612,32,2,225,0
200623,36,-2,216,0
200634,38,-4,213,0
200645,40,-5,215,0
200656,41,-5,217,0
200667,37,-4,216,0
200678,33,-4,216,0
200689,29,0,220,0
200700,27,4,219,0
200711,24,3,218,0
200722,22,4,220,0
200733,22,2,222,0
200744,21,2,225,0
200755,19,1,230,0
200766,17,1,230,0
200777,14,-1,231,0
200788,11,-4,236,0
200800,11,-7,238,0
200811,12,-7,238,0
200822,11,-8,238,0
200833,10,-9,235,0
200844,8,-10,237,0
200855,8,-14,235,0
200866,7,-13,232,0
200877,5,-14,229,0
200888,5,-15,230,0
200899,5,-19,231,0
200910,6,-21,229,0
200921,7,-22,227,0
200932,9,-28,221,0
200943,7,-32,220,0
200954,10,-36,217,0
200965,9,-32,218,0
200976,10,-36,213,0
200987,12,-38,211,0
200998,15,-41,212,0
201009,16,-39,210,0
201020,18,-36,212,0
201031,19,-36,212,0
201042,18,-34,212,0
201053,18,-35,212,0
201064,17,-37,211,0
201075,16,-39,208,0
201086,15,-40,207,0
201097,21,-44,208,0
201108,26,-45,212,0
201119,32,-42,223,0
201130,41,-40,234,0
201141,49,-36,248,0
201152,59,-29,259,0
201163,66,-25,271,1
201174,73,-20,274,0
201185,77,-10,278,0
201196,79,-4,281,0
201207,73,3,275,0
201218,66,5,262,0
201230,62,14,263,0
201241,63,14,269,0
201252,69,7,270,0
201263,71,1,269,0
201274,69,-6,260,0
201285,66,-9,242,0
201296,62,-10,223,0
201307,54,-6,205,0
201318,45,-16,198,0
201329,37,-20,191,0
201340,35,-16,182,0
201351,30,-21,182,0
201362,29,-28,188,0
201373,24,-24,192,0
201384,23,-20,200,0
201395,26,-16,210,0
201406,34,-10,219,0
201417,46,1,235,0
201428,47,11,234,0
201439,48,20,232,0
201450,49,29,228,0
201461,47,36,227,0
201472,43,41,232,0
201483,39,42,237,0
201494,37,40,234,0
201505,42,36,230,0
201516,43,31,226,0
201527,42,30,222,0
201538,41,30,222,0
201549,38,29,227,0
201560,43,31,229,0
201571,48,31,229,0
201582,59,26,229,0
201593,62,30,228,0
201604,57,31,224,0
201615,51,31,223,0
201626,41,30,222,0
201637,32,28,225,0
201648,19,26,228,0
201659,10,25,232,0
201670,7,26,231,0
201681,5,24,230,0
201692,4,25,230,0
201703,3,24,227,0
201714,7,22,228,0
201725,8,20,228,0
201736,9,20,228,0
201747,3,22,234,0
201758,4,23,237,0
201769,6,25,234,0
201781,10,23,235,0
201791,12,21,232,0
201802,14,22,229,0
201813,15,21,228,0
201824,17,18,229,0
201835,15,22,229,0
201846,15,20,228,0
201857,15,20,230,0
201868,13,17,231,0
201879,15,17,231,0
201890,15,14,232,0
201901,15,16,231,0
201912,12,18,229,0
201923,12,15,228,0
201934,11,14,225,0
201945,12,13,222,0
201956,11,11,221,0
201967,9,12,221,0
201978,6,10,221,0
201989,5,12,221,0
202000,3,15,223,0
202011,2,15,226,0
202022,2,14,229,0
202033,2,15,231,0
202044,2,12,234,0
202055,2,12,233,0
202066,0,7,231,1
202077,1,6,230,0
202088,0,3,229,0
202099,0,0,225,0
202110,-1,-1,224,0
202121,0,0,224,0
202132,1,0,221,0
202143,5,3,220,0
202154,6,9,221,0
202165,1,12,228,0
202176,0,19,229,0
202187,2,29,234,0
202198,5,18,244,0
202209,5,3,253,0
202220,1,-2,255,0
202231,-26,2,256,0
202242,-30,14,259,0
202253,-22,34,259,0
202264,-12,45,260,0
202275,2,46,272,0
202286,18,33,284,0
202297,35,26,284,0
202308,48,33,291,0
202319,62,36,281,0
202330,69,39,262,0
202341,70,37,244,0
202352,77,33,219,0
202363,80,28,197,0
202374,86,19,175,0
202385,83,14,159,0
202396,71,10,167,0
202407,66,19,188,0
202418,63,27,216,0
202429,57,30,245,0
202440,47,31,260,0
202451,37,36,268,0
202462,28,37,272,0
202473,23,35,271,0
202484,21,32,269,0
202495,21,23,264,0
202506,23,18,258,0
202517,25,14,258,0
202528,23,9,252,0
202539,23,4,242,0
202550,29,2,231,0
202561,36,2,211,0
202572,38,5,206,0
202583,38,7,206,0
202594,40,9,207,0
202605,41,10,207,0
202616,42,11,207,0
202627,42,10,208,0
202638,40,9,208,0
202649,37,9,209,0
202660,36,6,207,0
202671,32,4,200,0
202682,29,2,196,0
202693,24,2,195,0
202704,18,6,196,0
202715,15,6,197,0
202726,8,8,197,0
202737,5,4,202,0
202748,2,-5,212,0
202759,5,-2,218,0
202770,3,2,209,0
202781,1,12,215,0
202792,-1,15,222,0
202803,1,18,194,0
202814,-3,39,204,0
202825,-4,30,225,0
202836,-7,19,227,0
202847,-10,20,223,0
202858,-16,21,217,0
202869,-19,18,220,0
202880,-20,12,230,0
202891,-22,11,237,0
202902,-22,10,247,0
202913,-23,11,248,0
202924,-28,17,249,0
202935,-37,21,254,1
202946,-44,24,259,0
202957,-38,29,274,0
202968,-8,35,305,0
202979,39,46,344,0
202990,90,62,391,0
203001,117,63,394,0
203012,130,32,368,0
203023,143,11,326,0
203034,143,12,293,0
203045,149,4,300,0
203056,69,-5,267,0
203067,37,3,190,0
203078,23,-32,156,0
203089,26,-44,149,1
203100,29,-45,142,0
203111,30,-28,146,0
203122,34,-17,151,0
203133,44,-10,153,0
203144,56,-4,155,0
203155,64,10,170,0
203166,65,19,188,0
203177,66,28,210,0
203188,71,32,228,0
203199,72,33,237,0
203210,69,27,244,0
203221,68,15,231,0
203232,66,10,224,0
203243,64,10,215,0
203254,63,5,202,0
203265,58,8,201,0
203276,62,13,210,0
203287,60,15,216,0
203298,50,14,218,0
203309,45,16,220,0
203320,43,14,217,0
203331,37,14,218,0
203342,30,11,220,0
203353,24,12,221,0
203364,18,9,219,0
203375,11,5,215,0
203386,5,6,213,0
203397,5,8,214,0
203408,6,11,216,0
203419,7,15,218,0
203430,9,15,223,0
203441,11,18,228,0
203452,8,21,233,0
203463,7,22,231,0
203474,4,23,228,0
203485,2,24,224,0
203496,1,22,220,0
203507,0,23,216,0
203518,0,23,216,0
203529,2,20,222,0
203540,9,21,224,0
203551,15,17,220,0
203562,17,19,220,0
203573,17,18,223,0
203584,23,21,225,0
203595,24,21,229,0
203606,22,11,234,0
203617,23,7,231,0
203628,18,12,226,0
203639,18,15,224,0
203650,20,24,223,0
203661,15,30,222,0
203672,10,31,219,0
203683,6,35,213,0
203694,1,42,208,0
203705,-15,43,210,1
203716,-6,39,214,0
203727,4,30,231,0
203738,17,26,256,0
203749,19,27,283,0
203760,14,25,301,0
203771,4,26,306,0
203782,-11,28,308,0
203793,-26,29,317,0
203804,-22,31,314,0
203815,2,43,307,0
203826,30,45,307,0
203837,60,39,306,0
203848,85,32,303,0
203859,100,27,287,0
203870,115,10,235,0
203881,117,2,203,0
203892,111,-1,184,0
203903,104,-3,171,0
203914,97,-9,173,0
203925,84,-9,182,0
203936,70,-11,185,0
203947,60,-4,190,0
203958,51,5,207,0
203969,39,13,232,0
203980,35,18,246,0
203991,39,22,255,0
204002,41,20,255,0
204013,43,27,250,0
204024,40,24,240,0
204035,41,15,233,0
204046,37,10,229,0
204057,34,8,223,0
204068,35,3,222,0
204079,37,5,216,0
204091,44,7,213,0
204101,49,6,207,0
204112,52,6,204,0
204123,54,8,208,0
204134,55,8,219,0
204145,55,5,218,0
204156,53,7,220,0
204167,47,8,223,0
204178,41,9,222,0
204189,35,6,218,0
204200,23,1,210,0
204211,19,0,204,0
204222,14,0,200,0
204233,9,-1,199,0
204244,5,-1,200,0
204255,6,-2,198,0
204266,8,-1,200,0
204277,11,-1,200,0
204288,15,0,205,0
204299,16,3,199,0
204310,15,9,201,0
204321,13,10,203,0
204332,7,13,201,0
204343,4,14,205,0
204354,-1,16,207,0
204365,-16,14,215,0
204376,-18,12,219,0
204387,-19,10,219,0
204398,-18,6,219,0
204410,-16,7,219,0
204421,-17,7,220,0
204432,-19,8,217,0
204443,-20,8,216,0
204454,-19,7,223,0
204465,-16,7,231,0
204476,-18,10,237,0
204487,-17,9,247,0
204498,-19,13,252,0
204509,-21,19,253,0
204520,-36,20,253,0
204531,-39,16,248,0
204542,-42,8,242,0
204553,-46,-1,238,0
204564,-42,-7,239,0
204575,-2,0,261,0
204586,64,26,318,0
204597,158,54,424,1
204608,225,125,503,0
204619,210,101,443,0
204630,221,30,374,0
204641,281,9,331,0
204652,264,5,263,0
204663,197,-18,258,0
204674,138,-6,247,0
204685,23,-10,189,0
204696,4,-17,164,0
204707,-8,-27,141,0
204718,-10,-30,133,0
204729,-5,-16,139,0
204740,3,-2,149,0
204751,15,2,153,0
204762,33,7,161,0
204773,61,13,172,0
204784,91,18,195,0
204795,118,18,212,0
204806,131,17,219,0
204817,130,17,219,0
204828,129,9,210,0
204839,112,7,196,0
204850,99,7,196,0
204861,80,7,196,0
204872,67,8,197,0
204883,55,6,204,0
204894,50,6,214,0
204905,43,10,220,0
204916,38,11,223,0
204927,36,12,221,0
204938,35,11,215,0
204949,34,11,212,0
204960,35,12,211,0
204971,34,11,207,0
204982,34,15,212,0
204993,29,19,216,0
205004,27,19,224,0
205015,24,19,224,0
205026,18,18,224,0
205037,11,20,225,0
205048,7,18,228,0
205059,6,16,228,0
205070,2,14,226,0
205081,2,12,225,0
205092,2,14,223,0
205103,2,15,222,0
205114,4,17,224,0
205125,7,18,227,0
205136,7,21,227,0
205147,6,18,228,0
205158,6,18,225,0
205169,-3,13,213,0
205180,-6,9,208,0
205191,-4,9,206,0
205202,-1,12,207,0
205213,3,18,213,0
205224,4,21,215,0
205235,2,16,209,0
205246,-5,12,203,0
205257,-13,10,205,0
205268,-17,13,217,0
205279,-14,18,228,1
205290,-3,27,241,0
205301,8,31,248,0
205312,31,23,253,0
205323,45,9,265,0
205334,42,-10,285,0
205345,39,25,288,0
205356,24,48,310,0
205367,6,11,343,0
205378,21,-8,366,0
205389,51,-1,344,0
205400,89,17,328,1
205411,123,22,286,0
205422,134,18,243,0
205433,139,15,217,0
205444,132,15,204,0
205455,119,15,198,0
205466,99,17,192,0
205477,77,18,196,0
205488,55,23,205,0
205499,2,24,244,0
205510,-14,21,251,0
205521,-18,18,258,0
205532,-23,11,259,0
205543,-25,2,253,0
205555,-15,0,236,0
205566,-6,1,223,0
205577,-1,1,216,0
205588,9,1,217,0
205599,17,-1,214,0
205610,28,0,206,0
205621,36,2,195,0
205632,45,4,189,0
205643,48,8,188,0
205654,45,10,185,0
205665,39,10,189,0
205676,32,9,192,0
205687,24,8,194,0
205698,16,6,198,0
205709,11,3,203,0
205720,9,0,206,0
205731,11,0,206,0
205742,8,1,206,0
205753,7,0,209,0
205764,6,-1,204,0
205775,1,0,201,0
205786,-7,0,200,0
205797,-12,-1,201,0
205808,-18,0,203,0
205819,-21,3,217,0
205830,-28,4,226,0
205841,-33,2,234,0
205852,-36,7,237,0
205863,-38,12,236,0
205874,-40,16,239,0
205885,-40,15,241,0
205896,-40,16,241,0
205907,-29,17,249,0
205918,-41,50,249,0
205929,-42,23,249,0
205940,-37,6,245,0
205951,-32,-8,244,0
205962,-22,-20,245,0
205973,-19,-24,251,0
205984,-1,-11,284,0
205995,13,-16,291,0
206006,48,-10,317,0
206017,89,6,340,0
206028,125,21,361,0
206039,135,16,352,1
206050,134,4,329,0
206061,128,-3,295,0
206072,109,6,265,0
206083,82,15,251,0
206094,67,13,249,0
206105,58,-1,246,0
206116,49,-7,231,0
206127,53,-10,205,0
206138,57,-14,182,0
206149,69,-19,166,0
206160,70,-10,168,0
206171,70,-16,169,0
206182,69,-7,176,0
206193,74,-4,181,0
206204,78,0,189,0
206215,78,5,203,0
206226,84,11,217,0
206237,86,13,223,0
206248,84,18,218,0
206259,78,23,218,0
206270,69,26,219,0
206281,61,28,224,0
206292,55,32,226,0
206303,49,28,222,0
206314,46,21,221,0
206325,36,18,214,0
206336,30,17,217,0
206347,27,20,219,0
206358,28,18,218,0
206369,27,17,217,0
206380,25,17,214,0
206391,22,18,216,0
206403,16,22,219,0
206414,10,23,220,0
206425,7,24,221,0
206436,1,25,221,0
206447,-3,24,223,0
206458,-15,31,232,0
206469,-19,29,234,0
206480,-18,32,237,0
206491,-18,31,234,0
206502,-22,30,236,0
206513,-23,29,232,0
206524,-24,31,225,0
206535,-25,30,221,0
206546,-28,28,217,0
206557,-25,10,203,0
206568,-23,2,197,0
206579,-22,3,200,0
206590,-14,4,208,0
206601,-7,2,213,0
206612,1,7,210,0
206623,12,21,209,0
206634,3,13,207,0
206645,-11,2,196,0
206656,-25,2,190,0
206667,-23,4,196,0
206678,-8,-2,210,0
206689,12,-7,226,0
206700,26,-17,247,0
206711,25,-16,267,0
206722,10,-2,294,0
206733,-10,9,321,0
206744,-24,20,339,0
206755,-11,29,340,0
206766,26,61,338,0
206777,61,73,354,0
206788,100,34,319,0
206799,111,40,284,0
206810,117,39,245,0
206821,119,30,200,1
206832,110,11,169,0
206843,92,5,152,0
206854,74,4,154,0
206865,69,10,172,0
206876,63,16,196,0
206887,57,14,227,0
206898,50,8,248,0
206909,39,5,259,0
206920,26,7,260,0
206931,21,8,257,0
206942,20,10,254,0
206953,19,9,236,0
206964,26,9,235,0
206975,22,7,233,0
206986,24,3,233,0
206997,30,-4,228,0
207008,31,-8,220,0
207019,35,-4,210,0
207030,38,-4,201,0
207041,41,-2,194,0
207052,39,-1,188,0
207063,38,0,183,0
207075,34,2,184,0
207086,30,0,190,0
207097,24,0,195,0
207108,22,-3,195,0
207119,21,-5,195,0
207130,20,-7,194,0
207141,18,-6,193,0
207152,13,-8,193,0
207163,9,-9,194,0
207174,5,-8,193,0
207185,4,-8,194,0
207196,3,-6,194,0
207207,4,-3,199,0
207218,6,1,208,0
207229,0,4,211,0
207240,-4,1,217,0
207251,-10,2,216,0
207262,-22,6,220,0
207273,-23,7,225,0
207284,-21,5,233,0
207295,-17,16,245,0
207306,-26,26,246,0
207317,-26,-1,251,0
207328,-16,-18,254,0
207339,-9,-16,263,0
207350,-6,-5,267,0
207361,-6,-8,272,0
207372,-1,-7,282,0
207383,10,5,300,0
207394,24,7,317,0
207405,61,10,344,0
207416,117,29,387,1
207427,143,19,374,0
207438,134,3,332,0
207449,138,10,293,0
207460,112,10,257,0
207471,71,5,254,0
207482,39,1,222,0
207493,22,0,197,0
207504,13,-8,185,0
207515,18,-15,182,0
207526,26,-20,170,0
207537,38,-13,161,0
207548,42,-12,158,0
207559,50,-11,158,0
207570,59,-2,165,0
207581,66,4,177,0
207592,105,8,202,0
207603,130,9,210,0
207614,140,5,207,0
207625,133,7,203,0
207636,123,13,207,0
207647,101,21,212,0
207658,89,22,208,0
207669,80,27,212,0
207680,69,31,218,0
207691,54,29,218,0
207702,42,25,221,0
207713,35,29,221,0
207724,35,29,219,0
207735,31,25,215,0
207746,27,20,215,0
207757,23,26,213,0
207768,21,26,214,0
207779,18,26,217,0
207790,15,26,218,0
207801,15,26,221,0
207812,15,27,223,0
207823,15,28,229,0
207834,15,26,231,0
207845,12,27,231,0
207856,12,26,231,0
207867,10,22,226,0
207878,7,23,224,0
207889,4,22,226,0
207900,5,21,225,0
207911,4,20,229,0
207922,3,20,233,0
207933,3,18,233,0
207944,4,16,233,0
207955,3,18,227,0
207966,1,14,221,0
207977,-2,15,215,0
207988,-6,5,205,0
207999,-1,3,197,0
208010,-1,15,204,0
208021,-1,20,211,0
208032,1,24,218,0
208043,3,33,226,0
208054,6,33,229,0
208065,1,27,230,0
208076,-16,1,220,0
208087,-25,1,213,0
208098,-26,12,218,0
208109,-23,17,227,0
208120,-16,18,235,0
208131,0,16,237,1
208142,23,1,235,0
208153,47,-23,236,0
208164,59,-47,245,0
208175,54,-49,256,0
208186,32,-24,261,0
208197,16,0,270,0
208208,5,6,298,0
208219,1,-1,344,0
208230,17,12,380,0
208242,119,41,342,0
208253,156,46,297,0
208264,165,26,243,0
208275,163,10,211,0
208286,153,1,192,0
208297,134,-9,186,0
208308,120,-7,174,0
208319,91,-8,180,0
208330,66,-12,200,0
208341,50,-10,210,0
208352,26,-2,236,0
208363,7,6,262,0
208374,-7,9,276,0
208385,-17,11,272,0
208396,-6,8,247,0
208407,6,4,228,0
208418,17,3,212,0
208429,29,1,202,0
208440,37,1,194,0
208451,40,2,197,0
208462,43,4,194,0
208473,47,5,194,0
208484,48,4,192,0
208495,50,1,188,0
208506,47,0,189,0
208518,43,2,191,0
208529,35,4,195,0
208540,17,4,208,0
208551,8,2,214,0
208562,2,1,214,0
208573,-2,-3,207,0
208584,-5,-6,200,0
208595,-7,-2,198,0
208606,-9,-5,198,0
208617,-10,-6,200,0
208628,-12,-4,203,0
208639,-13,-7,204,0
208650,-12,-4,205,0
208661,-16,0,212,0
208672,-19,0,213,0
208683,-25,2,216,0
208694,-29,1,221,0
208705,-38,-1,230,0
208716,-40,-5,230,0
208727,-40,-5,232,0
208738,-39,-3,236,0
208749,-37,0,242,0
208760,-34,0,249,0
208771,-30,1,250,0
208782,-30,19,254,0
208793,-36,20,248,0
208804,-32,7,246,0
208815,-24,0,241,0
208826,-17,-4,242,0
208837,-13,-6,240,0
208848,-13,-9,248,0
208859,-15,-15,261,0
208870,-21,-26,273,0
208881,-18,-20,276,0
208892,-1,-20,289,0
208903,33,-18,307,0
208914,76,-14,322,1
208925,115,-11,321,0
208936,138,4,303,0
208947,155,-2,304,0
208958,164,9,297,0
208969,170,42,297,0
208980,159,52,290,0
208991,130,36,273,0
209002,107,27,248,0
209013,93,11,217,0
209024,76,1,176,0
209035,57,-11,144,1
209046,57,-17,149,0
209057,62,-27,152,0
209069,60,-29,160,0
209080,61,-18,165,0
209091,73,-10,180,0
209102,90,3,203,0
209113,107,12,217,0
209124,112,17,222,0
209135,108,20,226,0
209146,110,25,231,0
209157,105,26,225,0
209168,90,27,218,0
209179,70,33,213,0
209190,60,36,213,0
209201,46,40,214,0
209212,38,39,216,0
209224,33,40,220,0
209235,32,34,219,0
209246,32,35,216,0
209257,31,28,215,0
209268,29,27,216,0
209279,27,25,221,0
209290,21,28,224,0
209301,19,30,229,0
209312,16,30,233,0
209323,13,30,232,0
209334,6,29,230,0
209345,3,30,231,0
209356,1,26,231,0
209367,0,22,229,0
209378,-8,22,227,0
209389,-14,22,224,0
209400,-16,23,226,0
209411,-18,21,225,0
209422,-16,21,226,0
209433,-13,20,224,0
209444,-11,23,224,0
209455,-6,23,225,0
209466,-1,23,223,0
209477,1,21,222,0
209488,1,20,219,0
209499,2,20,217,0
209510,2,18,218,0
209521,3,21,221,0
209532,1,22,225,0
209543,0,22,225,0
209554,0,23,228,0
209565,-1,19,228,0
209576,0,11,225,0
209587,0,9,223,0
209598,-1,10,220,0
209609,2,11,222,0
209620,6,10,226,0
209631,9,9,225,0
209642,5,12,222,0
209653,0,12,219,0
209664,-7,16,213,1
209675,1,15,215,0
209686,14,4,225,0
209697,23,-8,241,0
209708,15,-22,256,0
209719,0,-25,264,0
209730,-20,-20,275,0
209741,-42,-1,289,0
209753,-52,10,307,0
209763,-24,25,318,0
209774,24,53,318,0
209785,64,63,321,0
209796,95,57,314,0
209807,122,68,314,0
209818,133,65,277,0
209829,157,24,200,0
209840,158,5,169,0
209851,143,1,147,0
209862,118,-8,138,0
209873,91,-12,138,0
209884,63,-12,162,0
209895,42,-12,188,0
209906,28,-6,213,0
209917,16,5,243,0
209928,11,12,259,0
209939,1,21,274,0
209950,6,20,275,0
209961,13,21,270,0
209972,20,20,260,0
209984,23,21,248,0
209995,17,18,242,0
210006,15,12,235,0
210017,18,6,227,0
210028,21,2,217,0
210039,26,1,211,0
210050,31,0,207,0
210061,38,-1,201,0
210072,40,-1,198,0
210083,40,0,198,0
210094,40,-1,201,0
210105,38,-5,202,0
210116,35,-7,203,0
210127,31,-7,204,0
210138,15,-1,197,0
210149,9,0,196,0
210160,3,3,194,0
210171,2,5,194,0
210182,2,6,192,0
210193,1,4,194,0
210204,2,3,195,0
210215,3,2,197,0
210226,2,0,198,0
210237,1,0,199,0
210248,0,-1,205,0
210259,0,-3,211,0
210270,0,-7,219,0
210281,3,4,209,0
210292,-1,23,218,0
210303,-13,8,241,0
210315,-13,9,230,0
210326,-17,12,235,0
210337,-19,17,245,0
210348,-32,32,250,0
210359,-42,16,251,1
210370,-43,11,249,0
210381,-45,11,249,0
210392,-44,19,255,0
210403,-39,25,267,0
210414,-20,25,297,0
210425,18,34,343,0
210436,72,49,398,0
210447,125,63,427,0
210458,123,19,350,0
210469,134,13,301,0
210480,133,11,295,0
210491,114,-15,284,0
210502,71,-35,248,0
210513,55,-37,197,0
210524,36,-43,160,0
210535,34,-46,146,0
210546,46,-35,153,0
210557,47,-21,153,0
210568,45,-13,151,0
210579,48,0,154,0
210590,56,-1,155,0
210602,63,10,179,0
210612,71,17,198,0
210623,83,18,215,0
210634,90,16,223,0
210645,88,14,231,0
210656,82,7,235,0
210667,72,8,231,0
210678,72,6,223,0
210689,69,11,218,0
210700,64,10,217,0
210711,64,10,212,0
210722,65,11,211,0
210733,58,11,208,0
210744,56,9,211,0
210755,49,12,214,0
210766,45,11,216,0
210777,32,10,225,0
210788,25,12,223,0
210799,19,11,217,0
210810,16,12,213,0
210821,11,12,210,0
210832,8,15,210,0
210843,5,21,217,0
210854,1,25,225,0
210865,0,26,233,0
210876,-1,27,237,0
210887,-7,30,239,0
210898,-4,30,234,0
210909,0,28,229,0
210920,0,25,227,0
210931,0,23,223,0
210942,5,20,223,0
210953,13,20,226,0
210964,18,22,228,0
210975,23,14,223,0
210986,25,9,220,0
210997,20,6,216,0
211008,19,1,215,0
211019,21,-4,216,0
211030,27,-10,215,0
211041,29,-3,213,0
211052,29,8,212,0
211063,28,18,212,0
211074,23,23,216,0
211085,16,29,217,1
211096,-9,29,209,0
211107,-6,31,207,0
211118,7,35,218,0
211129,26,24,234,0
211140,38,10,256,0
211151,39,-2,284,0
211162,36,-8,304,0
211173,31,1,312,0
211184,26,19,319,0
211195,31,43,318,0
211206,33,33,327,0
211217,41,13,337,0
211228,57,19,329,0
211239,69,23,313,0
211250,90,20,289,0
211261,115,14,230,0
211272,114,14,198,0
211283,100,10,171,0
211294,90,-1,163,0
211305,85,-11,163,0
211316,74,-10,171,0
211327,66,-2,182,0
211338,55,5,193,0
211349,41,14,218,0
211360,32,13,243,0
211371,27,12,256,0
211382,18,11,259,0
211393,15,9,252,0
211404,18,7,247,0
211415,16,5,235,0
211426,15,2,229,0
211437,21,1,225,0
211448,25,1,227,0
211459,31,-3,229,0
211470,39,-3,222,0
211481,50,-1,212,0
211492,51,-3,205,0
211503,55,-2,204,0
211514,54,-2,205,0
211525,53,0,209,0
211537,50,4,210,0
211548,45,3,205,0
211559,39,3,203,0
211570,33,1,204,0
211581,23,-4,202,0
211592,21,-6,200,0
211603,19,-4,198,0
211614,18,-3,193,0
211625,15,-3,192,0
211636,14,0,193,0
211647,13,0,196,0
211658,13,0,202,0
211669,14,0,208,0
211680,11,4,208,0
211691,6,3,214,0
211702,2,5,217,0
211713,0,11,215,0
211724,-2,18,219,0
211735,-7,29,232,0
211746,-24,22,246,0
211757,-26,14,240,0
211768,-23,10,236,0
211779,-18,6,241,0
211790,-12,5,244,0
211801,-11,5,249,0
211812,-13,5,256,0
211823,-19,7,255,0
211834,-28,4,256,0
211845,-35,1,256,0
211856,-34,2,264,0
211867,-27,6,278,0
211878,0,23,303,1
211889,34,32,330,0
211900,63,45,356,0
211911,90,28,332,0
211922,109,22,303,0
211933,128,10,286,0
211944,139,-11,309,0
211955,114,-25,297,0
211966,92,-24,249,0
211977,69,-28,185,0
211988,60,-38,166,0
211999,63,-38,151,0
212010,69,-31,149,0
212021,74,-21,147,0
212032,74,-8,153,0
212043,72,-1,159,0
212054,72,2,179,0
212065,73,13,198,0
212076,69,17,220,0
212087,75,13,223,0
212098,78,5,222,0
212109,72,6,220,0
212120,64,8,220,0
212131,56,11,217,0
212142,53,11,213,0
212153,53,11,210,0
212164,51,15,219,0
212175,55,19,226,0
212186,55,19,228,0
212197,53,19,228,0
212208,50,16,220,0
212219,47,13,215,0
212230,46,15,214,0
212241,40,11,215,0
212252,35,12,217,0
212263,33,14,218,0
212274,28,18,218,0
212285,21,19,217,0
212296,14,22,223,0
212307,9,27,226,0
212318,5,25,228,0
212329,1,24,231,0
212340,-1,24,233,0
212351,1,20,233,0
212362,3,21,229,0
212373,4,20,226,0
212384,3,20,220,0
212395,2,18,217,0
212406,1,25,227,0
212417,0,28,231,0
212428,0,25,233,0
212439,2,19,229,0
212450,1,14,220,0
212461,1,10,217,0
212472,-1,9,218,0
212483,0,5,221,0
212494,3,2,222,0
212505,7,2,225,0
212516,13,9,224,0
212527,20,14,223,0
212538,23,19,221,0
212549,22,21,218,0
212560,19,18,213,0
212571,4,15,208,0
212582,-3,13,206,0
212593,-8,12,206,0
212604,-9,13,216,1
212615,-5,12,222,0
212626,6,19,230,0
212637,26,19,247,0
212648,45,11,257,0
212659,55,4,268,0
212670,48,1,277,0
212681,22,6,289,0
212692,-5,10,301,0
212703,-6,32,299,0
212714,8,35,298,0
212725,45,28,306,0
212736,119,34,298,0
212747,134,31,290,0
212758,137,18,279,0
212769,131,15,256,0
212780,123,8,228,0
212791,107,-1,199,0
212802,92,-10,176,0
212813,73,-10,162,0
212824,59,-2,170,0
212835,50,0,185,0
212846,50,6,207,0
212857,51,18,238,0
212868,54,15,254,0
212879,56,13,257,0
212890,52,12,267,0
212901,46,14,260,0
212912,40,15,244,0
212923,32,12,230,0
212934,25,13,231,0
212945,25,11,230,0
212956,33,7,226,0
212967,41,5,221,0
212978,52,4,218,0
212989,55,5,210,0
213000,56,4,202,0
213011,54,2,204,0
213022,53,0,210,0
213033,48,-1,221,0
213044,42,0,223,0
213055,30,-4,222,0
213066,29,-2,220,0
213077,24,0,205,0
213088,18,1,211,0
213099,12,5,207,0
213110,8,8,200,0
213121,8,9,199,0
213132,12,9,201,0
213143,13,6,205,0
213154,13,9,203,0
213165,13,14,203,0
213176,13,15,206,0
213187,14,14,210,0
213198,16,15,216,0
213209,17,13,222,0
213220,15,11,228,0
213231,13,9,231,0
213242,13,1,241,0
213253,12,0,242,0
213264,8,-1,234,0
213275,11,-1,233,0
213286,12,-2,234,0
213297,11,-19,239,0
213308,13,-19,253,0
213319,17,-18,258,0
213330,8,-17,258,0
213341,5,-11,242,0
213352,0,-2,218,0
213363,-9,-2,195,0
213374,-14,4,191,0
213385,-9,3,194,0
213396,-3,-1,194,0
213407,6,-8,194,0
213418,13,-15,194,0
213429,20,-20,201,0
213440,26,-25,208,0
213452,33,-25,210,0
213463,31,-24,211,1
213474,22,-22,200,0
213485,17,-14,196,0
213496,26,5,200,0
213507,58,40,232,0
213518,111,76,295,0
213529,155,117,375,0
213540,187,67,446,0
213551,193,55,411,0
213562,174,56,356,0
213573,134,46,306,0
213584,78,23,264,0
213595,23,1,213,0
213606,-1,-11,182,0
213617,-10,-18,149,0
213628,-4,-31,152,0
213639,0,-34,163,0
213650,2,-22,174,0
213661,10,-2,190,0
213672,23,25,203,0
213683,31,45,208,0
213694,43,50,211,0
213705,70,61,216,0
213716,75,57,210,0
213727,76,62,212,0
213738,72,62,217,0
213749,68,60,218,0
213760,59,52,222,0
213771,56,43,220,0
213782,59,31,213,0
213793,62,23,210,0
213804,63,16,215,0
213815,63,14,217,0
213826,60,14,218,0
213837,55,16,220,0
213848,50,21,222,0
213859,45,28,218,0
213870,46,39,210,0
213881,51,43,216,0
213892,56,44,221,0
213903,57,42,226,0
213914,56,35,231,0
213925,54,27,235,0
213936,56,24,230,0
213947,55,29,223,0
213958,54,29,220,0
213969,53,31,221,0
213980,50,34,220,0
213991,52,35,221,0
214002,52,35,222,0
214013,54,35,225,0
214024,57,32,225,0
214035,62,32,228,0
214046,63,32,228,0
214057,62,33,225,0
214068,63,39,222,0
214079,60,39,220,0
214090,59,39,219,0
214101,59,41,221,0
214112,55,42,226,0
214123,55,42,231,0
214134,51,41,233,0
214145,46,36,235,0
214156,48,31,231,0
214167,50,35,226,0
214178,48,44,221,0
214189,52,47,219,0
214200,54,40,224,0
214212,57,38,228,0
214223,58,40,232,0
214234,55,38,232,0
214245,53,37,231,0
214256,50,34,229,0
214267,48,32,226,0
214278,48,31,224,0
214290,49,35,220,0
214301,47,42,220,0
214312,47,43,221,0
214323,47,42,226,0
214334,43,38,236,0
214345,44,38,235,0
214356,46,37,232,0
214367,46,36,227,0
214378,46,40,227,0
214389,48,41,227,0
214400,48,39,227,0
214411,46,40,228,0
214422,41,39,230,0
214433,39,40,234,0
214444,38,39,235,0
214455,38,36,236,0
214466,37,33,235,0
214477,37,34,230,0
214488,34,33,224,0
214499,27,24,228,0
214510,27,26,228,0
214521,27,24,228,0
214532,28,24,231,1
214543,31,29,232,0
214554,38,30,232,0
214565,47,31,230,0
214576,52,20,232,0
214587,61,22,239,0
214599,65,17,228,0
214610,69,18,229,0
214621,70,13,233,0
214632,65,14,235,0
214643,59,5,227,0
214654,59,6,224,0
214665,59,4,217,0
214676,58,16,220,0
214687,53,11,206,0
214698,45,21,209,0
214709,38,27,217,0
214720,28,28,220,0
214731,21,28,223,0
214742,17,24,229,0
214753,11,17,233,0
214764,9,15,237,0
214775,5,14,235,0
214786,9,13,236,0
214797,13,9,235,0
214808,26,5,233,0
214819,33,8,235,0
214830,38,9,232,0
214841,41,10,231,0
214852,44,5,229,0
214863,45,5,230,0
214874,46,5,229,0
214885,46,5,231,0
214896,47,5,227,0
214907,46,2,227,0
214918,48,2,225,0
214929,49,4,224,0
214940,46,3,224,0
214951,44,5,225,0
214962,42,4,226,0
214973,36,3,228,0
214984,33,5,228,0
214995,32,6,228,0
215006,28,5,234,0
215017,33,9,232,0
215028,32,7,234,0
215039,32,6,232,0
215050,34,8,230,0
215061,34,8,228,0
215072,36,8,227,0
215083,35,6,227,0
215094,37,5,231,0
215105,33,7,233,0
215116,38,2,231,0
215127,39,2,232,0
215138,36,4,227,0
215149,35,5,227,0
215160,35,7,227,0
215171,34,6,229,0
215182,35,5,230,0
215193,34,5,233,0
215204,32,5,231,0
215215,32,4,229,0
215226,31,5,230,0
215237,32,6,229,0
215248,32,8,230,0
215259,32,5,231,0
215270,34,6,232,0
215281,34,6,233,0
215292,35,5,233,0
215303,36,3,231,0
215314,37,3,229,0
215325,37,3,229,0
215336,36,3,227,0
215347,36,4,229,0
215358,35,4,231,0
215369,33,3,231,0
215380,33,3,232,0
215391,34,3,231,0
215402,34,3,231,0
215413,33,1,228,0
215424,32,3,226,0
215435,30,6,226,0
215446,31,7,227,0
215457,30,6,233,0
215468,33,5,235,0
215479,33,4,234,0
215490,34,6,231,0
215501,34,5,228,0
215512,31,6,228,0
215523,32,6,230,0
215534,32,6,232,0
215545,34,5,231,0
215556,35,4,232,0
215567,37,3,228,0
215578,38,5,229,0
215589,40,7,230,0
