timestamp,accX,accY,accZ,step
623216,23,-8,231,0
623227,24,-7,233,0
623238,25,-8,230,0
623248,28,-7,227,0
623259,30,-10,229,0
623270,29,-10,226,0
623281,26,-8,225,0
623292,24,-6,228,0
623303,24,-5,227,0
623314,25,-7,230,0
623325,26,-7,231,0
623336,24,-6,230,0
623346,24,-7,231,0
623357,24,-6,231,0
623368,24,-7,231,0
623379,23,-6,230,0
623390,25,-4,229,0
623401,24,-5,231,0
623412,25,-5,231,0
623423,27,-6,231,0
623434,29,-5,233,0
623445,31,-5,230,0
623456,32,-5,228,0
623467,33,-5,229,0
623478,33,-7,230,0
623489,35,-7,230,0
623500,35,-7,230,0
623511,34,-8,230,0
623522,32,-8,230,0
623533,30,-6,230,0
623544,30,-5,228,0
623555,28,-5,229,0
623566,27,-3,231,0
623577,26,-3,230,0
623588,23,-3,229,0
623599,23,-3,228,0
623610,23,-6,229,0
623621,25,-6,230,0
623632,24,-4,231,0
623643,23,-5,232,0
623654,21,-4,232,0
623665,20,-2,230,0
623676,19,-2,231,0
623687,21,-4,230,0
623698,24,-5,230,0
623709,26,-5,231,0
623720,30,-8,234,0
623731,33,-10,232,0
623742,33,-10,228,0
623753,34,-9,226,0
623764,34,-8,224,0
623775,33,-8,225,0
623787,33,-5,227,0
623798,32,-10,236,0
623809,32,-9,238,0
623820,31,-10,235,0
623831,27,-10,231,0
623842,27,-10,228,0
623853,25,-9,229,0
623864,25,-6,229,0
623875,24,-5,229,0
623886,28,-6,232,0
623897,27,-6,232,0
623908,27,-6,232,0
623919,27,-5,230,0
623930,27,-7,229,0
623941,27,-5,230,0
623952,27,-5,230,0
623963,31,-6,230,0
623974,32,-6,232,0
623985,34,-6,229,0
623996,34,-6,230,0
624007,35,-6,229,0
624018,36,-7,229,0
624029,36,-8,228,0
624040,36,-8,227,0
624051,36,-8,229,0
624062,36,-7,230,0
624073,34,-7,231,0
624084,34,-5,231,0
624095,33,-7,232,0
624106,31,-5,232,0
624117,31,-6,232,0
624128,31,-8,229,0
624139,31,-9,228,0
624150,29,-9,228,0
624161,29,-8,228,0
624172,29,-8,228,0
624183,27,-9,227,0
624194,21,-14,233,0
624205,19,-10,227,0
624216,17,-8,230,0
624227,16,-3,227,0
624238,17,0,227,0
624249,16,-5,227,0
624260,15,0,224,0
624271,15,-1,224,0
624282,16,1,229,0
624293,22,4,238,0
624304,26,4,238,0
624315,30,2,235,0
624326,35,1,232,0
624337,36,2,229,0
624348,38,1,225,0
624359,39,2,225,0
624370,41,2,226,0
624381,40,3,228,0
624392,41,3,229,0
624403,41,4,228,0
624414,40,5,230,0
624425,41,5,229,0
624436,42,7,231,0
624447,41,6,229,0
624458,39,4,229,0
624469,39,2,228,0
624480,40,4,229,0
624491,41,4,227,0
624502,40,5,229,0
624513,39,7,228,0
624524,36,9,228,0
624535,36,11,231,0
624546,35,13,231,0
624557,35,12,231,0
624568,35,13,228,0
624579,36,14,228,0
624590,36,13,227,0
624601,37,13,228,0
624612,36,14,228,0
624623,37,15,228,0
624634,37,17,228,0
624645,37,18,227,0
624656,37,20,229,0
624667,36,20,227,0
624678,36,19,230,0
624689,36,18,228,0
624700,36,18,229,0
624711,35,17,231,0
624722,35,20,232,0
624733,36,21,232,0
624744,40,21,234,0
624755,44,19,234,0
624766,45,21,232,0
624777,48,20,230,0
624788,52,16,226,0
624799,51,17,222,0
624810,50,17,222,0
624821,46,15,222,0
624832,44,13,224,0
624843,44,11,228,0
624854,45,8,229,0
624865,43,8,231,0
624876,44,8,234,0
624887,45,9,235,0
624898,44,11,235,0
624909,42,13,236,0
624920,40,16,239,0
624931,39,16,242,0
624942,39,14,244,0
624953,39,6,243,0
624964,41,2,238,0
624975,42,0,230,0
624986,43,-1,229,0
624997,46,-4,226,0
625008,45,-4,226,0
625019,47,-4,225,0
625030,45,-3,227,0
625041,43,-4,227,0
625052,38,-7,233,0
625063,36,-8,237,0
625074,32,-9,239,0
625085,28,-12,238,0
625096,25,-13,239,0
625107,23,-10,240,0
625118,18,-11,240,0
625129,15,-11,244,0
625140,13,-12,242,0
625151,12,-11,240,0
625162,13,-12,235,0
625173,13,-14,232,0
625184,14,-17,230,0
625195,16,-16,230,0
625206,15,-17,228,0
625217,14,-17,227,0
625228,13,-16,222,0
625239,15,-15,223,0
625250,14,-14,223,0
625261,15,-14,223,0
625272,18,-10,224,0
625283,17,-8,220,0
625294,17,-5,222,0
625305,15,-3,223,0
625316,14,-2,224,0
625327,10,-1,223,0
625338,10,-3,222,0
625349,10,-4,220,0
625360,10,-5,218,0
625371,10,-6,218,0
625382,11,-5,214,0
625393,8,-5,214,0
625404,6,-5,214,0
625415,6,-4,214,0
625426,10,-4,224,0
625437,7,-8,220,0
625448,-3,0,212,0
625459,-7,-1,213,0
625470,-3,-1,215,0
625481,-4,-2,219,0
625492,-6,-1,219,0
625503,-7,-1,218,0
625515,-9,-2,220,0
625526,-12,0,222,0
625537,-14,-1,224,0
625548,-14,1,226,0
625559,-10,0,231,0
625570,-6,2,236,0
625581,-3,0,239,0
625592,-1,2,237,0
625603,-5,-5,232,0
625614,-8,-6,232,0
625625,-11,-8,236,0
625636,-13,-3,237,0
625647,-15,-3,237,0
625658,-17,-5,238,0
625669,-18,-3,239,0
625680,-15,-8,242,0
625691,-13,-11,246,0
625702,-11,-12,251,0
625713,-10,-10,254,0
625724,-11,-7,253,0
625735,-14,-15,261,0
625746,8,-7,279,0
625757,35,15,310,0
625768,62,17,329,0
625779,74,17,321,0
625790,78,9,315,0
625801,80,17,301,0
625812,72,8,278,0
625823,65,-24,269,0
625834,56,-49,271,0
625845,46,-31,245,0
625856,22,-19,198,1
625867,-3,26,137,0
625878,11,-125,215,0
625889,77,-9,155,0
625900,65,10,151,0
625911,77,-11,183,0
625923,94,-14,223,0
625934,94,-13,240,0
625945,97,-18,240,0
625956,97,-22,226,0
625967,89,-27,214,0
625978,78,-28,206,0
625989,67,-26,202,0
626000,59,-25,196,0
626011,54,-17,195,0
626022,53,-10,200,0
626033,50,-2,210,0
626044,46,2,221,0
626055,39,3,228,0
626066,39,3,231,0
626077,40,-1,216,0
626088,41,-4,210,0
626099,38,-1,207,0
626110,32,0,204,0
626121,27,4,210,0
626132,28,7,209,0
626143,31,10,206,0
626154,33,13,208,0
626165,33,10,211,0
626176,31,5,214,0
626187,24,8,218,0
626198,24,9,225,0
626209,29,6,228,0
626220,27,4,227,0
626231,27,4,228,0
626242,25,6,231,0
626253,22,5,228,0
626264,17,4,222,0
626275,11,4,222,0
626286,8,2,224,0
626297,6,3,229,0
626308,3,5,232,0
626319,2,8,232,0
626330,2,11,231,0
626341,1,13,227,0
626352,1,14,223,0
626363,0,17,221,0
626374,0,19,225,0
626385,1,15,225,0
626396,3,9,218,0
626407,2,2,213,0
626418,2,3,217,0
626429,6,5,221,0
626440,8,14,225,0
626451,7,14,227,0
626462,8,29,231,0
626473,-3,23,233,0
626484,-16,25,232,0
626495,-21,22,227,0
626506,-13,30,222,0
626517,-4,22,227,0
626528,5,6,241,1
626539,-3,-12,260,0
626550,-9,-24,274,0
626561,-14,-15,283,0
626572,-12,12,315,0
626583,-1,23,333,0
626594,26,13,354,0
626605,72,15,351,0
626616,114,30,336,0
626627,147,31,305,0
626638,161,19,265,0
626649,166,13,236,0
626660,159,5,210,0
626671,150,5,194,0
626682,139,2,185,0
626693,126,-8,177,0
626704,102,-11,176,0
626716,52,-8,194,0
626727,34,0,212,0
626738,17,9,229,0
626749,4,5,231,0
626760,1,3,236,0
626771,1,6,243,0
626782,4,13,244,0
626793,4,17,243,0
626805,9,10,238,0
626816,17,7,232,0
626827,23,2,221,0
626838,31,-1,215,0
626849,38,-5,208,0
626860,44,-2,206,0
626871,53,0,195,0
626882,53,3,200,0
626893,54,2,200,0
626904,52,2,212,0
626915,46,-1,210,0
626926,40,-3,209,0
626937,31,-6,205,0
626948,22,-6,200,0
626960,17,-4,198,0
626971,11,-4,196,0
626982,5,-3,196,0
626993,3,-6,198,0
627004,1,-4,194,0
627015,0,-4,188,0
627026,-5,-2,192,0
627037,-8,-11,203,0
627048,-4,-6,201,0
627059,-11,12,198,0
627070,-24,13,213,0
627081,-28,8,223,0
627092,-31,11,221,0
627103,-29,18,224,0
627114,-30,43,230,0
627126,-44,45,243,0
627137,-43,18,250,0
627148,-32,2,251,0
627159,-27,0,256,0
627170,-34,-2,253,0
627181,-40,1,252,0
627192,-46,-3,262,0
627203,-28,-14,295,0
627214,8,-8,338,0
627225,56,5,377,0
627236,97,28,393,0
627247,105,31,383,1
627258,114,9,363,0
627269,136,12,334,0
627280,145,8,319,0
627291,143,-22,320,0
627302,109,-32,300,0
627313,81,-10,234,0
627324,60,-23,189,0
627335,54,-35,154,0
627346,47,-32,146,0
627357,45,-26,136,0
627368,46,-27,139,0
627379,54,-25,145,0
627390,67,-17,162,0
627401,78,-3,190,0
627412,93,1,204,0
627423,106,1,211,0
627434,114,1,209,0
627445,113,2,207,0
627456,106,8,209,0
627467,96,12,213,0
627478,89,16,218,0
627489,84,14,215,0
627500,58,9,216,0
627511,44,10,213,0
627522,33,7,212,0
627533,30,6,219,0
627544,25,11,224,0
627555,21,15,228,0
627566,12,18,228,0
627577,5,16,226,0
627588,1,16,223,0
627599,-5,14,219,0
627610,-9,16,221,0
627621,-14,19,223,0
627632,-17,19,231,0
627643,-17,19,233,0
627654,-7,14,233,0
627665,4,8,230,0
627676,13,5,228,0
627687,21,3,227,0
627698,27,1,225,0
627709,28,0,224,0
627720,27,-2,224,0
627731,27,-1,222,0
627742,28,0,219,0
627753,25,1,216,0
627764,21,6,214,0
627775,19,15,223,0
627786,10,13,222,0
627797,5,8,222,0
627808,2,6,217,0
627819,1,2,217,0
627830,1,-3,210,0
627841,5,0,213,0
627852,7,3,216,0
627863,3,3,218,0
627874,1,5,223,0
627885,-5,2,223,0
627896,-11,1,222,0
627907,-16,-1,219,0
627918,-17,1,225,0
627929,-10,7,235,0
627940,6,19,243,0
627951,24,22,254,0
627962,37,17,263,0
627973,41,9,275,0
627984,12,-5,290,1
627995,-10,-8,301,0
628006,-27,-7,308,0
628017,-17,8,312,0
628028,12,24,316,0
628039,52,31,323,0
628050,86,37,320,0
628061,109,41,298,0
628072,127,36,259,0
628083,137,26,219,0
628094,139,13,187,0
628105,134,4,171,0
628116,129,0,166,0
628127,113,-4,166,0
628138,96,-5,176,0
628149,76,0,191,0
628160,44,-1,229,0
628171,29,0,250,0
628182,17,3,256,0
628193,10,3,257,0
628204,10,5,257,0
628215,14,8,252,0
628226,17,6,242,0
628237,19,8,233,0
628248,19,7,226,0
628259,17,6,221,0
628270,16,3,217,0
628281,17,2,210,0
628292,23,3,207,0
628303,31,3,206,0
628314,36,3,210,0
628325,47,-1,211,0
628336,49,-3,211,0
628347,47,-5,214,0
628358,41,-8,219,0
628369,38,-10,216,0
628381,27,-12,214,0
628392,14,-11,215,0
628403,3,-11,211,0
628414,-2,-8,209,0
628425,-7,-2,207,0
628436,-12,-3,205,0
628447,-12,0,201,0
628458,-10,3,198,0
628469,-14,12,202,0
628480,-13,9,212,0
628491,-16,5,214,0
628502,-15,5,213,0
628513,-18,14,211,0
628524,-28,22,209,0
628535,-41,13,215,0
628546,-43,6,216,0
628557,-42,12,211,0
628568,-45,16,214,0
628579,-44,16,226,0
628590,-37,11,240,0
628601,-31,7,253,0
628612,-27,2,256,0
628623,-27,4,251,0
628634,-24,17,241,0
628645,-7,21,271,0
628656,29,32,320,0
628667,72,48,366,0
628678,108,69,409,0
628689,117,53,393,0
628700,127,10,330,1
628711,127,-15,282,0
628722,103,-18,265,0
628733,69,-27,249,0
628744,39,-34,240,0
628755,23,-44,252,0
628766,18,-38,236,0
628777,27,-27,207,0
628788,35,-47,187,0
628799,45,-33,180,0
628810,44,-28,189,0
628821,51,-24,187,0
628832,57,-19,180,0
628843,66,-12,184,0
628854,71,2,195,0
628865,68,6,200,0
628876,64,16,202,0
628887,63,16,201,0
628898,62,14,208,0
628909,59,13,213,0
628920,61,16,217,0
628931,64,15,217,0
628943,70,2,215,0
628954,66,0,210,0
628965,61,1,216,0
628976,52,3,219,0
628987,51,4,224,0
628998,51,3,220,0
629009,47,1,216,0
629020,46,0,217,0
629031,42,0,220,0
629042,38,-3,224,0
629053,35,0,226,0
629064,32,1,220,0
629075,28,4,214,0
629086,22,7,213,0
629097,19,9,213,0
629108,13,14,217,0
629119,13,17,218,0
629130,12,18,220,0
629141,13,19,224,0
629152,12,21,223,0
629163,9,21,227,0
629174,7,22,222,0
629185,4,20,220,0
629196,4,21,219,0
629207,5,22,219,0
629218,7,25,219,0
629229,11,31,221,0
629240,13,37,222,0
629251,14,36,223,0
629262,16,37,225,0
629273,20,32,237,0
629285,25,24,240,0
629296,29,10,242,0
629307,31,2,236,0
629318,29,0,231,0
629329,29,0,227,0
629340,16,1,225,0
629351,-3,6,215,0
629362,-27,23,209,0
629373,-45,35,203,1
629384,-33,45,213,0
629395,-3,60,238,0
629406,39,57,274,0
629417,64,31,312,0
629428,66,6,322,0
629439,62,2,320,0
629450,53,9,315,0
629461,28,0,322,0
629472,21,-3,312,0
629483,30,13,303,0
629494,58,29,295,0
629505,85,29,280,0
629516,111,31,258,0
629527,131,31,228,0
629538,142,32,202,0
629549,140,27,180,0
629560,134,20,167,0
629571,126,16,162,0
629582,113,14,163,0
629593,77,4,186,0
629604,58,-4,197,0
629615,49,-8,214,0
629626,43,-10,223,0
629637,35,-14,227,0
629648,29,-14,229,0
629659,34,-12,227,0
629670,41,-4,223,0
629681,45,6,218,0
629692,46,16,215,0
629703,44,23,216,0
629714,45,24,219,0
629725,37,25,228,0
629736,32,24,236,0
629747,27,21,244,0
629758,22,18,241,0
629769,20,17,233,0
629780,21,20,231,0
629791,24,23,229,0
629802,28,23,222,0
629813,24,17,219,0
629824,29,15,216,0
629835,31,19,211,0
629846,29,16,203,0
629857,25,12,205,0
629868,27,8,209,0
629879,29,7,209,0
629890,31,11,215,0
629901,36,12,221,0
629913,55,9,220,0
629924,53,17,215,0
629935,50,12,217,0
629946,51,11,209,0
629957,40,8,201,0
629968,22,3,200,0
629979,5,-2,197,0
629990,-9,-2,199,0
630001,-18,-1,205,0
630012,-21,2,221,0
630023,-23,8,227,0
630034,-25,15,228,0
630045,-26,24,232,0
630056,-24,32,247,0
630067,-38,46,255,0
630078,-49,50,250,0
630089,-57,44,251,0
630100,-49,38,270,0
630111,-9,45,302,0
630122,20,59,339,1
630133,49,53,379,0
630144,69,48,355,0
630155,101,15,315,0
630166,125,3,286,0
630178,144,-12,289,0
630189,152,-47,304,0
630200,141,-54,290,0
630211,122,-48,236,0
630222,72,-58,152,0
630233,63,-57,133,0
630244,56,-41,130,0
630255,45,-33,141,0
630266,34,-26,153,0
630277,38,-10,166,0
630288,48,0,186,0
630299,67,9,215,0
630310,77,11,234,0
630321,79,7,243,0
630332,75,3,244,0
630343,67,0,235,0
630354,64,0,222,0
630365,62,0,212,0
630376,60,-4,204,0
630387,58,-3,203,0
630398,49,1,206,0
630409,43,3,208,0
630420,40,4,216,0
630431,38,5,218,0
630442,33,5,218,0
630453,29,3,217,0
630464,25,0,218,0
630475,18,-1,219,0
630486,14,1,220,0
630497,10,4,223,0
630508,7,5,223,0
630519,7,13,228,0
630530,11,18,230,0
630541,13,17,224,0
630552,13,16,223,0
630563,10,15,222,0
630574,11,12,223,0
630585,12,11,221,0
630596,13,12,218,0
630607,14,13,220,0
630618,16,9,220,0
630629,17,10,221,0
630640,19,8,222,0
630651,20,6,219,0
630662,18,2,218,0
630673,16,1,215,0
630684,9,-3,215,0
630695,7,-2,217,0
630706,14,-3,220,0
630717,18,2,225,0
630728,21,6,226,0
630739,20,10,227,0
630750,15,14,230,0
630761,4,16,233,0
630773,-10,17,237,0
630784,-18,15,238,0
630795,-19,17,241,0
630806,-9,24,247,0
630817,6,31,253,1
630828,23,35,265,0
630839,28,24,285,0
630850,29,7,298,0
630861,30,-3,301,0
630872,36,0,301,0
630883,44,2,303,0
630894,52,-18,301,0
630905,66,-30,288,0
630916,81,-17,273,0
630927,97,-14,253,0
630938,114,-13,223,0
630949,124,-10,199,0
630960,128,6,193,0
630971,124,15,182,0
630982,119,16,181,0
630993,112,14,188,0
631004,101,11,195,0
631015,81,3,199,0
631026,37,7,233,0
631037,14,11,250,0
631048,-5,13,262,0
631059,-13,15,263,0
631070,-14,19,261,0
631081,-12,23,253,0
631092,-4,19,242,0
631103,2,13,233,0
631114,12,13,230,0
631125,17,11,226,0
631136,24,10,228,0
631148,29,4,236,0
631158,38,7,235,0
631169,43,8,232,0
631180,45,5,225,0
631191,42,0,213,0
631202,42,-1,209,0
631213,40,-7,207,0
631224,36,-11,205,0
631235,29,-12,201,0
631246,21,-9,200,0
631257,13,-2,198,0
631268,6,-1,195,0
631279,1,1,193,0
631290,-4,3,194,0
631301,-8,7,194,0
631312,-10,7,194,0
631323,-13,12,196,0
631334,-13,10,195,0
631345,-15,5,197,0
631356,-10,2,209,0
631367,-10,13,220,0
631378,-5,-3,202,0
631389,9,30,188,0
631400,-5,34,217,0
631411,-8,15,242,0
631422,-5,7,233,0
631433,-9,13,233,0
631444,-15,29,244,0
631455,-23,24,257,0
631466,-23,15,257,0
631477,-22,20,254,1
631488,-23,30,257,0
631499,-34,37,264,0
631510,-47,35,271,0
631521,-19,28,321,0
631532,12,34,349,0
631543,46,44,366,0
631554,63,39,355,0
631565,74,18,334,0
631576,104,18,330,0
631587,141,-4,352,0
631598,146,-14,351,0
631609,113,-18,279,0
631620,100,-30,203,0
631631,85,-46,158,0
631642,72,-61,138,0
631653,71,-57,128,0
631664,63,-43,129,0
631675,61,-28,136,0
631686,65,-17,158,0
631697,67,-4,186,0
631708,67,9,210,0
631719,64,11,224,0
631730,66,5,224,0
631741,71,1,221,0
631752,70,-3,217,0
631763,69,-2,225,0
631774,66,0,229,0
631785,59,-2,230,0
631796,54,-2,225,0
631807,48,0,217,0
631818,47,-3,211,0
631829,46,-1,208,0
631840,43,0,214,0
631851,27,3,225,0
631862,21,0,225,0
631873,15,3,222,0
631884,7,3,221,0
631895,5,4,218,0
631906,2,2,214,0
631917,-3,5,212,0
631928,-7,3,214,0
631939,-12,5,221,0
631950,-15,6,226,0
631961,-15,8,234,0
631972,-15,10,235,0
631983,-14,8,232,0
631994,-12,7,227,0
632005,-8,7,223,0
632016,-5,11,220,0
632027,-1,11,217,0
632038,0,11,217,0
632049,5,10,217,0
632060,12,9,217,0
632071,13,7,217,0
632082,12,2,219,0
632093,6,0,222,0
632104,9,0,226,0
632115,12,-3,227,0
632126,15,-8,227,0
632137,17,-10,223,0
632148,22,-6,215,0
632159,25,0,212,0
632170,24,5,212,0
632181,17,11,210,0
632192,11,20,210,1
632203,0,22,204,0
632214,-2,27,200,0
632225,6,37,205,0
632236,19,39,227,0
632247,22,24,255,0
632258,13,5,283,0
632269,3,0,300,0
632280,3,2,310,0
632291,1,13,322,0
632302,-1,7,329,0
632313,13,9,333,0
632324,31,22,330,0
632335,52,39,323,0
632346,71,35,300,0
632357,82,14,270,0
632368,100,4,245,0
632379,112,2,213,0
632390,119,2,186,0
632401,120,2,164,0
632412,116,-1,159,0
632423,113,-2,163,0
632434,107,0,174,0
632445,100,2,191,0
632456,88,8,211,0
632467,71,11,225,0
632478,55,10,240,0
632489,40,14,253,0
632500,29,14,255,0
632511,19,12,243,0
632522,17,11,236,0
632533,18,11,231,0
632544,20,12,228,0
632555,22,7,227,0
632566,24,5,225,0
632577,28,7,227,0
632588,31,4,223,0
632599,36,1,221,0
632610,40,-2,219,0
632621,46,0,220,0
632632,52,-1,218,0
632643,54,-2,214,0
632654,55,-1,211,0
632665,50,-1,212,0
632676,36,-1,210,0
632687,25,1,207,0
632698,14,2,206,0
632709,5,5,202,0
632720,-4,6,203,0
632731,-14,1,208,0
632742,-15,1,207,0
632753,-11,15,205,0
632764,-16,19,209,0
632775,-11,22,216,0
632786,-5,14,210,0
632797,4,20,196,0
632808,3,28,204,0
632819,6,24,215,0
632830,9,21,210,0
632841,1,14,222,0
632852,-1,12,220,0
632863,0,9,221,0
632874,2,12,221,0
632885,0,17,231,0
632896,-3,6,249,0
632907,-5,4,254,0
632918,-11,16,254,0
632929,-26,35,256,0
632940,-43,43,263,0
632951,-54,38,271,1
632962,-53,29,281,0
632973,-37,27,301,0
632984,-10,32,321,0
632995,20,37,338,0
633006,40,32,333,0
633017,57,25,303,0
633028,81,23,287,0
633039,111,12,296,0
633050,114,-5,309,0
633061,93,-21,289,0
633072,94,-19,232,0
633083,70,-37,180,0
633094,62,-42,164,0
633105,59,-43,153,0
633116,49,-28,143,0
633127,49,-20,141,0
633138,40,-18,135,0
633149,37,-11,148,0
633160,44,3,179,0
633171,69,18,237,0
633182,75,15,246,0
633193,75,11,242,0
633204,76,2,233,0
633215,68,3,228,0
633226,65,4,222,0
633237,64,1,215,0
633248,65,0,205,0
633259,62,-1,201,0
633270,54,0,201,0
633281,46,2,207,0
633292,43,4,210,0
633303,49,5,214,0
633314,51,6,215,0
633325,44,8,219,0
633336,31,6,222,0
633347,26,10,220,0
633358,18,12,219,0
633369,13,10,216,0
633380,8,14,218,0
633391,6,17,222,0
633402,3,19,228,0
633413,3,20,233,0
633424,0,19,236,0
633435,-1,17,239,0
633446,0,15,234,0
633457,0,13,229,0
633468,0,13,225,0
633479,1,13,221,0
633490,4,14,222,0
633501,12,14,222,0
633512,18,17,224,0
633523,22,18,225,0
633534,26,16,226,0
633545,26,15,223,0
633556,24,12,220,0
633567,20,8,217,0
633578,16,6,216,0
633589,12,4,214,0
633600,13,3,214,0
633611,13,2,218,0
633622,13,3,221,0
633633,11,9,226,0
633644,7,13,226,0
633655,1,22,228,0
633666,-12,29,231,0
633677,-20,26,231,1
633688,-11,27,225,0
633699,8,42,226,0
633710,24,43,243,0
633721,35,16,263,0
633732,32,-11,278,0
633743,31,-21,288,0
633754,31,-16,305,0
633765,35,-1,313,0
633776,28,3,318,0
633787,33,9,316,0
633798,52,21,307,0
633809,65,18,294,1
633820,75,11,281,0
633831,109,16,243,0
633842,127,13,214,0
633854,135,9,194,0
633865,140,7,184,0
633876,130,3,172,0
633887,118,-4,163,0
633898,105,-13,162,0
633909,87,-16,175,0
633920,69,-11,191,0
633931,51,-6,209,0
633942,31,-1,225,0
633953,15,1,239,0
633964,3,2,244,0
633975,-3,5,253,0
633986,-3,13,253,0
633997,-1,20,252,0
634008,5,30,257,0
634019,7,27,255,0
634030,15,20,250,0
634041,25,14,246,0
634052,27,5,240,0
634063,29,1,232,0
634074,33,-2,221,0
634085,35,-1,218,0
634096,41,-2,217,0
634107,47,-3,215,0
634118,52,-2,212,0
634129,57,-2,209,0
634140,57,3,210,0
634151,52,7,211,0
634162,44,7,207,0
634173,31,11,212,0
634184,23,13,210,0
634195,15,12,206,0
634206,11,12,206,0
634217,6,11,202,0
634228,3,9,203,0
634239,0,0,210,0
634250,4,-8,207,0
634261,9,1,196,0
634272,5,2,192,0
634283,2,4,194,0
634294,4,4,207,0
634306,2,4,211,0
634317,2,7,209,0
634328,0,13,215,0
634340,-1,12,220,0
634351,-1,17,223,0
634362,-1,23,235,0
634373,-2,27,243,0
634385,-4,15,250,0
634396,-5,7,254,0
634407,-10,8,262,0
634418,-21,10,269,0
634429,-40,16,292,1
634440,-21,18,321,0
634451,6,18,353,0
634462,29,27,369,0
634473,37,33,357,0
634484,29,27,324,0
634495,19,18,287,0
634506,19,10,262,0
634517,25,6,256,0
634528,30,-4,255,0
634539,36,-14,259,0
634550,43,-25,251,0
634561,61,-23,221,0
634572,60,-27,193,0
634583,64,-41,178,0
634594,71,-28,156,0
634605,74,-18,153,0
634616,79,-10,151,0
634627,84,0,160,0
634638,88,9,178,0
634649,86,16,201,0
634660,76,24,219,0
634671,69,19,232,0
634683,64,16,233,0
634694,64,11,229,0
634705,64,5,218,0
634716,60,2,217,0
634727,55,1,214,0
634738,52,5,213,0
634749,50,6,217,0
634760,46,10,218,0
634771,41,12,219,0
634782,36,15,223,0
634793,30,14,228,0
634804,26,12,224,0
634815,25,12,222,0
634826,18,14,218,0
634837,12,10,216,0
634848,7,9,216,0
634859,4,10,217,0
634870,2,10,219,0
634881,3,10,224,0
634892,2,11,226,0
634903,3,15,228,0
634914,6,12,232,0
634925,8,12,231,0
634936,8,14,230,0
634947,7,11,227,0
634958,5,12,225,0
634969,3,12,223,0
634980,0,9,218,0
634991,-1,7,215,0
635002,-1,4,215,0
635013,0,8,214,0
635024,2,11,215,0
635035,4,14,219,0
635046,8,16,227,0
635057,15,15,232,0
635068,18,8,233,0
635079,18,0,223,0
635090,28,-2,223,0
635101,34,2,222,0
635112,33,12,220,0
635123,23,20,216,0
635134,7,24,211,0
635145,-8,26,208,0
635156,-18,28,206,0
635167,-17,33,208,1
635178,-6,29,224,0
635189,6,23,249,0
635200,10,9,282,0
635211,3,3,304,0
635222,0,6,318,0
635233,3,16,331,0
635244,28,33,328,0
635255,43,35,323,0
635266,58,34,321,0
635277,70,24,306,0
635288,82,14,286,0
635299,93,9,265,0
635310,105,2,233,0
635321,113,-4,200,0
635332,115,-4,175,0
635343,107,-1,161,0
635354,98,-6,154,0
635365,91,-8,160,0
635376,80,-7,169,0
635387,65,-2,181,0
635398,51,0,192,0
635409,28,7,231,0
635420,23,12,255,0
635431,21,15,263,0
635442,24,18,264,0
635453,29,19,261,0
635464,32,21,256,0
635475,34,18,251,0
635486,32,15,241,0
635497,29,17,235,0
635508,30,16,226,0
635520,31,12,227,0
635531,36,9,223,0
635542,46,9,220,0
635553,54,2,209,0
635564,58,0,202,0
635575,61,2,204,0
635586,62,2,205,0
635597,59,1,205,0
635608,54,1,205,0
635619,48,1,202,0
635630,40,0,202,0
635641,32,1,200,0
635652,26,3,197,0
635663,20,5,194,0
635674,12,8,195,0
635685,6,10,197,0
635696,6,10,198,0
635707,5,12,200,0
635718,4,8,200,0
635729,5,6,205,0
635740,7,5,214,0
635751,9,10,220,0
635762,7,12,223,0
635773,8,12,228,0
635784,4,11,229,0
635795,2,7,226,0
635806,-3,7,226,0
635817,-10,5,228,0
635828,-15,3,235,0
635839,-13,2,238,0
635850,-11,9,243,0
635861,-9,18,249,0
635872,-11,26,257,0
635883,-16,33,257,0
635894,-20,36,258,1
635905,-28,27,257,0
635917,-16,16,271,0
635928,15,23,323,0
635939,58,32,367,0
635950,91,43,377,0
635961,97,39,343,0
635972,93,29,304,0
635983,118,19,297,0
635994,144,0,340,0
636005,128,19,335,0
636016,107,12,288,0
636027,70,-2,222,0
636038,61,-45,169,0
636049,43,-47,151,0
636060,47,-34,144,0
636071,47,-32,135,0
636082,53,-17,127,0
636093,51,-11,137,0
636104,60,-1,161,0
636115,69,2,188,0
636126,85,4,200,0
636137,103,2,212,0
636148,114,0,212,0
636159,117,0,213,0
636170,113,3,213,0
636181,105,2,216,0
636192,95,2,217,0
636203,75,3,220,0
636214,69,2,228,0
636225,65,2,228,0
636236,61,4,235,0
636247,56,5,235,0
636258,50,8,228,0
636269,48,6,226,0
636280,47,5,225,0
636291,48,4,222,0
636302,49,2,218,0
636313,48,5,217,0
636324,46,3,213,0
636335,46,3,213,0
636346,46,2,217,0
636357,46,5,220,0
636368,52,7,227,0
636379,50,6,229,0
636390,48,2,228,0
636401,45,0,225,0
636412,43,-2,221,0
636423,41,-5,222,0
636434,41,-10,220,0
636445,40,-12,220,0
636456,39,-10,222,0
636467,37,-6,222,0
636478,38,-1,222,0
636489,39,0,225,0
636500,41,3,226,0
636511,40,8,229,0
636522,38,16,236,0
636533,30,22,249,0
636544,26,19,242,0
636555,22,18,241,0
636566,14,18,240,0
636577,8,14,239,0
636588,6,11,238,0
636599,4,6,233,0
636610,5,2,232,0
636621,6,1,230,0
636632,5,-5,226,0
636643,5,-7,220,0
636654,6,-3,221,0
636665,2,2,225,0
636676,0,3,224,0
636687,-2,7,225,0
636698,-3,22,223,0
636709,0,24,222,1
636720,0,22,222,0
636731,2,13,224,0
636742,14,1,232,0
636753,31,-26,240,0
636764,45,-55,248,0
636775,44,-67,252,0
636786,34,-64,245,0
636797,21,-51,233,0
636808,22,-29,225,0
636819,36,-11,230,0
636830,46,-9,247,0
636841,51,-22,257,0
636852,61,-27,260,0
636863,91,0,281,0
636874,106,11,283,0
636886,127,22,280,0
636897,137,23,266,0
636908,141,13,251,0
636919,135,3,232,0
636930,122,-8,217,0
636941,111,-15,204,0
636952,99,-23,196,0
636963,87,-35,192,0
636974,77,-47,193,0
636985,79,-49,186,0
636996,90,-46,182,0
637007,106,-39,182,0
637018,100,-18,185,0
637029,84,-9,191,0
637040,72,1,200,0
637051,59,9,209,0
637062,45,19,221,0
637073,27,21,226,0
637084,14,21,234,0
637095,9,10,236,0
637106,2,1,240,0
637117,-10,-4,246,0
637128,-19,-8,251,0
637139,-24,-10,255,0
637150,-24,-13,255,0
637161,-21,-14,249,0
637172,-12,-15,246,0
637183,2,-19,244,0
637194,10,-21,242,0
637205,18,-25,240,0
637216,25,-26,237,0
637227,32,-25,227,0
637238,39,-25,218,0
637249,46,-24,214,0
637260,48,-23,216,0
637271,52,-23,216,0
637282,56,-24,219,0
637293,57,-22,219,0
637304,58,-20,221,0
637315,55,-15,221,0
637326,54,-8,221,0
637337,52,-4,222,0
637348,53,1,227,0
637359,51,3,228,0
637370,50,6,232,0
637381,50,5,237,0
637392,51,2,241,0
637403,50,0,245,0
637414,49,-3,245,0
637425,46,-8,246,0
637436,43,-10,243,0
637447,41,-17,247,0
637458,41,-21,249,0
637469,39,-26,244,0
637480,40,-21,239,0
637491,36,-22,224,0
637502,36,-19,227,0
637513,27,-20,226,0
637524,29,-19,227,0
637535,29,-22,222,0
637546,26,-29,216,0
637557,28,-34,215,0
637568,31,-36,212,0
637579,35,-35,208,0
637590,37,-36,211,0
637601,37,-38,214,0
637612,35,-37,218,0
637623,35,-39,222,0
637634,34,-39,222,0
637645,34,-38,223,0
637656,32,-42,219,0
637667,28,-44,217,0
637678,21,-47,215,0
637689,18,-50,213,0
637700,17,-51,213,0
637711,17,-53,212,0
637722,18,-52,211,0
637733,22,-51,208,0
637744,24,-51,210,0
637755,27,-53,212,0
637766,29,-53,211,0
637777,30,-54,206,0
637788,35,-57,200,0
637799,42,-60,197,0
637810,48,-59,192,0
637821,52,-57,190,0
637832,58,-57,193,1
637843,66,-52,207,0
637854,70,-38,219,0
637865,67,-18,242,0
637876,53,-6,267,0
637887,37,-4,293,0
637898,31,3,310,0
637909,26,14,319,0
637920,24,16,330,0
637931,23,-2,331,0
637942,27,-18,304,0
637953,32,-35,278,0
637964,41,-51,255,0
637975,56,-61,243,0
637986,67,-53,234,0
637997,74,-48,218,0
638008,78,-30,196,0
638019,68,-15,182,0
638030,64,-5,186,0
638041,63,-4,189,0
638052,65,-9,192,0
638063,63,-8,192,0
638074,59,-4,195,0
638085,55,-4,195,0
638096,50,-3,195,0
638107,54,-1,196,0
638118,60,6,204,0
638129,62,11,211,0
638140,63,12,222,0
638151,67,14,237,0
638162,74,13,241,0
638173,73,13,236,0
638184,69,14,234,0
638195,64,16,236,0
638206,59,19,235,0
638217,59,26,233,0
638228,60,24,232,0
638239,61,28,231,0
638250,61,26,227,0
638261,63,25,225,0
638272,62,20,223,0
638283,68,21,227,0
638294,66,20,225,0
638305,64,12,225,0
638316,58,8,225,0
638327,50,7,223,0
638338,32,8,222,0
638349,26,11,225,0
638360,20,11,228,0
638371,18,16,236,0
638382,18,21,242,0
638393,15,22,244,0
638404,15,19,244,0
638415,14,16,242,0
638426,13,14,239,0
638437,13,7,237,0
638448,11,6,233,0
638459,8,4,231,0
638470,6,3,231,0
638481,3,4,235,0
638492,6,3,236,0
638503,15,3,238,0
638514,18,4,240,0
638525,22,4,243,0
638536,24,1,240,0
638547,22,0,230,0
638558,18,2,222,0
638569,14,7,218,0
638580,11,13,219,0
638591,6,14,220,0
638602,0,20,219,0
638613,-8,20,218,0
638624,-15,19,219,0
638635,-18,18,223,0
638646,-23,17,228,0
638657,-24,16,232,0
638668,-20,14,236,0
638679,-15,11,233,0
638690,-10,10,228,0
638701,-9,7,227,0
638712,-7,4,225,0
638723,-7,1,230,0
638734,-5,-2,230,0
638745,-3,-8,227,0
638756,-3,-9,226,0
638767,-4,-7,226,0
638778,-2,-6,225,0
638789,0,-5,225,0
638800,0,-3,224,0
638811,4,-2,229,1
638822,10,-4,234,0
638833,24,-15,242,0
638844,28,-24,249,0
638855,17,-32,254,0
638866,4,-35,258,0
638877,2,-28,263,0
638888,22,-16,263,0
638899,35,-9,269,0
638910,56,2,273,0
638921,61,8,291,0
638932,74,19,304,0
638943,83,33,308,0
638954,97,49,302,0
638965,106,55,282,0
638976,111,41,247,0
638987,112,30,215,0
638998,84,8,172,0
639009,67,1,162,0
639020,53,0,164,0
639031,36,6,174,0
639042,22,11,190,0
639053,11,12,207,0
639064,3,10,227,0
639075,1,12,244,0
639086,3,16,257,0
639097,11,17,268,0
639108,17,11,260,0
639119,22,8,254,0
639130,24,10,253,0
639141,25,5,244,0
639152,28,3,240,0
639163,32,-1,224,0
639174,31,0,221,0
639185,33,0,214,0
639196,32,0,208,0
639207,33,0,208,0
639218,35,2,209,0
639229,38,4,213,0
639240,39,5,217,0
639251,39,5,217,0
639262,39,6,219,0
639273,39,5,216,0
639284,39,5,211,0
639295,34,3,211,0
639306,30,2,211,0
639317,28,2,211,0
639328,23,9,209,0
639339,19,12,211,0
639350,17,14,215,0
639361,17,14,217,0
639372,20,10,218,0
639383,20,9,217,0
639395,18,8,221,0
639406,22,3,224,0
639417,21,5,224,0
639428,18,8,223,0
639439,19,16,226,0
639450,18,17,223,0
639461,17,21,223,0
639472,5,18,219,0
639483,1,11,214,0
639494,-1,9,204,0
639505,-4,9,207,0
639516,-5,9,217,0
639527,-4,11,222,0
639538,-2,12,229,0
639549,-3,14,232,0
639560,-1,16,239,0
639571,-1,18,242,0
639582,-5,19,244,0
639593,-8,22,242,0
639604,-12,19,245,0
639615,-5,21,259,0
639626,13,28,286,1
639637,67,33,350,0
639648,83,42,355,0
639659,98,44,326,0
639670,101,54,292,0
639681,101,42,286,0
639692,103,12,290,0
639703,93,-5,289,0
639714,72,2,259,0
639725,56,-1,209,0
639736,47,-19,174,0
639747,42,-40,155,0
639758,41,-47,146,0
639769,45,-36,151,0
639780,49,-20,157,0
639791,55,-13,161,0
639802,77,9,187,0
639813,90,26,206,0
639824,95,33,218,0
639835,95,33,228,0
639846,90,29,237,0
639857,91,18,238,0
639868,83,12,233,0
639879,75,11,229,0
639890,68,11,222,0
639901,59,14,218,0
639912,49,12,217,0
639923,41,14,214,0
639934,38,14,219,0
639945,37,14,218,0
639956,40,13,221,0
639967,35,8,224,0
639978,34,7,228,0
639989,31,8,227,0
640000,29,6,226,0
640011,28,6,223,0
640023,29,7,221,0
640033,32,6,217,0
640044,37,8,218,0
640055,42,10,222,0
640066,42,16,226,0
640077,41,17,230,0
640088,37,20,230,0
640099,33,19,228,0
640110,28,20,225,0
640121,22,20,222,0
640132,14,22,221,0
640143,13,24,224,0
640154,11,24,228,0
640165,10,24,231,0
640176,11,24,231,0
640187,12,24,232,0
640198,15,23,230,0
640209,16,24,228,0
640220,20,23,229,0
640231,24,22,227,0
640242,28,21,228,0
640253,31,18,231,0
640264,33,18,231,0
640275,35,16,232,0
640286,35,14,234,0
640297,29,17,231,0
640308,28,19,227,0
640319,24,21,226,0
640331,20,23,225,0
640342,16,22,224,0
640353,13,23,225,0
640364,9,30,227,0
640375,1,29,235,0
640386,2,22,234,0
640397,6,23,231,0
640408,3,22,227,0
640419,3,25,220,0
640430,2,24,216,0
640441,4,21,217,0
640452,8,32,224,0
640463,15,32,223,1
640474,30,31,222,0
640485,41,29,225,0
640496,51,28,237,0
640507,57,20,252,0
640518,58,4,258,0
640529,50,3,259,0
640540,33,12,265,0
640551,17,28,280,0
640562,13,44,294,0
640573,26,62,302,0
640584,43,58,309,0
640595,65,45,308,0
640606,82,37,295,0
640617,87,24,251,0
640628,88,10,227,0
640639,89,2,207,0
640650,92,-6,195,0
640661,92,-16,187,0
640672,91,-28,177,0
640683,89,-38,174,0
640694,86,-39,177,0
640705,79,-36,181,0
640716,75,-32,192,0
640727,73,-28,204,0
640738,67,-33,217,0
640749,64,-26,228,0
640760,54,-20,234,0
640771,24,-5,251,0
640782,15,0,257,0
640793,7,4,262,0
640804,-1,7,268,0
640815,-6,10,274,0
640826,-7,6,268,0
640837,1,1,258,0
640848,10,0,250,0
640859,19,-1,239,0
640870,27,-2,228,0
640881,36,-7,221,0
640892,43,-13,218,0
640903,52,-9,210,0
640914,58,-7,207,0
640925,61,-8,207,0
640936,59,-5,204,0
640947,53,-3,204,0
640958,48,-6,204,0
640969,41,-8,203,0
640980,34,-7,204,0
640991,26,-2,207,0
641002,18,1,210,0
641013,11,1,209,0
641024,4,4,210,0
641035,-1,4,210,0
641046,-4,3,207,0
641057,-3,2,206,0
641068,-1,5,204,0
641079,-1,3,202,0
641090,0,9,200,0
641101,-3,15,207,0
641112,-8,19,211,0
641123,-12,24,218,0
641134,-16,23,221,0
641145,-17,25,222,0
641156,-16,25,226,0
641167,-14,20,231,0
641178,-11,18,233,0
641189,-11,12,234,0
641200,-6,7,236,0
641211,-2,6,234,0
641222,0,7,231,0
641233,2,9,232,0
641244,4,12,237,0
641255,4,18,241,0
641266,-2,25,248,0
641277,-11,25,254,0
641288,-16,24,256,0
641299,-21,12,254,0
641310,-24,3,249,0
641321,-14,-6,254,0
641332,20,0,281,0
641343,64,0,319,1
641354,99,9,347,0
641365,114,23,336,0
641376,129,23,311,0
641387,147,21,313,0
641398,147,3,317,0
641409,134,-27,295,0
641420,122,-38,268,0
641431,72,-40,200,0
641442,48,-40,176,0
641453,36,-44,165,0
641464,42,21,67,0
641475,57,-60,185,0
641486,73,25,159,0
641497,88,3,169,0
641508,102,16,191,0
641519,117,21,211,0
641530,121,18,213,0
641541,125,8,213,0
641552,127,2,210,0
641563,130,0,212,0
641574,130,-2,209,0
641585,127,-6,203,0
641596,102,-7,197,0
641607,89,-6,202,0
641618,82,-5,208,0
641629,72,-1,217,0
641640,73,-1,217,0
641651,67,2,224,0
641662,64,6,226,0
641673,62,10,229,0
641684,61,12,228,0
641695,60,13,227,0
641706,60,10,222,0
641717,58,10,221,0
641728,57,13,221,0
641739,50,14,219,0
641750,49,13,222,0
641761,43,17,224,0
641772,42,16,228,0
641783,44,19,234,0
641794,47,21,235,0
641805,49,24,235,0
641816,46,23,232,0
641827,43,25,232,0
641838,40,24,231,0
641849,38,18,228,0
641860,38,17,229,0
641871,38,16,235,0
641882,36,12,239,0
641893,32,14,238,0
641904,21,14,244,0
641915,22,14,237,0
641926,12,16,230,0
641937,8,21,228,0
641948,11,14,226,0
641959,15,14,224,0
641970,13,19,225,0
641981,11,20,229,0
641992,12,17,229,0
642003,16,12,228,0
642014,18,15,228,0
642025,17,14,230,0
642036,15,16,233,0
642047,12,15,234,0
642058,7,9,233,0
642069,4,7,230,0
642080,4,8,228,0
642091,2,12,221,0
642102,2,14,221,0
642113,1,20,220,0
642124,0,23,220,0
642135,0,28,226,0
642146,-1,26,233,0
642157,-2,24,237,0
642168,-1,25,236,0
642179,0,19,232,0
642190,5,12,224,0
642201,8,0,229,0
642212,5,-25,235,1
642223,2,-40,237,0
642234,-2,-42,231,0
642245,5,-31,224,0
642256,40,-3,232,0
642267,52,-3,232,0
642278,55,1,240,0
642289,63,15,251,0
642300,66,33,267,0
642311,78,44,273,0
642322,98,56,268,0
642333,116,59,258,0
642344,128,56,237,0
642355,126,51,215,0
642366,123,45,198,0
642377,108,40,186,0
642388,86,31,170,0
642399,63,21,152,0
642410,45,6,163,0
642421,31,-7,242,0
642432,51,11,269,0
642443,36,26,269,0
642454,22,30,269,0
642465,18,33,284,0
642476,12,28,293,0
642487,10,21,302,0
642498,10,15,289,0
642509,10,7,276,0
642520,14,0,264,0
642531,24,-5,260,0
642542,34,-3,248,0
642553,41,0,237,0
642564,48,2,236,0
642575,50,0,228,0
642586,58,0,196,0
642597,52,-3,188,0
642608,45,-1,189,0
642619,36,-3,185,0
642630,24,-1,186,0
642641,14,1,189,0
642652,7,1,196,0
642663,5,1,201,0
642674,7,-1,207,0
642685,11,1,208,0
642696,16,1,208,0
642707,19,-1,209,0
642718,19,-2,216,0
642729,20,-2,217,0
642740,23,-1,219,0
642751,25,-3,230,0
642762,24,-8,235,0
642773,23,-9,237,0
642784,19,-10,241,0
642795,12,-12,243,0
642806,4,-16,243,0
642817,-1,-18,242,0
642828,-7,-23,240,0
642839,-11,-24,238,0
642850,-15,-23,234,0
642861,-13,-25,230,0
642872,-10,-27,224,0
642883,-7,-26,224,0
642894,-5,-26,221,0
642905,-5,-26,220,0
642916,-7,-29,216,0
642927,-6,-30,214,0
642938,-7,-31,212,0
642949,-3,-34,209,0
642960,0,-37,208,0
642971,2,-36,209,0
642982,2,-36,210,0
642993,2,-40,214,0
643004,1,-40,217,0
643015,1,-42,218,0
643026,1,-45,219,0
643037,2,-49,218,0
643048,3,-57,217,0
643059,3,-64,215,0
643070,6,-66,218,0
643081,14,-70,234,1
643092,27,-78,245,0
643103,43,-60,250,0
643114,59,-41,258,0
643125,77,-36,266,0
643136,95,-32,268,0
643147,110,-36,284,0
643158,121,-29,301,0
643169,125,-15,317,0
643180,119,-1,316,0
643191,108,-1,321,0
643202,78,-2,318,0
643213,40,-1,286,0
643224,10,-9,250,0
643235,-11,-18,218,0
643246,-11,-14,181,0
643257,5,-15,179,0
643268,26,-15,176,0
643279,41,-5,178,0
643290,54,-1,183,0
643301,67,0,185,0
643312,87,5,188,0
643323,105,12,194,0
643334,117,21,205,0
643345,121,21,217,0
643357,114,25,225,0
643368,102,26,229,0
643379,90,30,227,0
643390,69,33,228,0
643401,59,32,232,0
643412,49,28,233,0
643423,46,33,235,0
643434,48,33,230,0
643445,50,33,229,0
643456,47,31,229,0
643467,44,30,229,0
643478,42,25,225,0
643489,42,23,226,0
643500,39,20,224,0
643511,33,19,222,0
643522,26,18,225,0
643533,21,16,221,0
643544,18,15,223,0
643555,14,16,225,0
643566,14,15,230,0
643577,10,17,229,0
643588,5,19,229,0
643599,2,18,234,0
643610,-2,21,235,0
643621,-11,20,232,0
643632,-13,18,236,0
643643,-15,14,231,0
643654,-20,11,230,0
643665,-21,8,230,0
643676,-21,11,228,0
643687,-19,12,231,0
643698,-16,11,232,0
643709,-12,14,235,0
643720,-3,9,226,0
643731,-2,8,223,0
643742,-1,8,225,0
643753,1,11,226,0
643764,0,13,230,0
643775,2,15,229,0
643786,5,14,234,0
643797,9,14,231,0
643808,10,12,227,0
643819,6,10,222,0
643830,1,7,217,0
643841,-1,1,217,0
643852,-1,-2,217,0
643863,1,0,218,0
643874,1,3,220,0
643885,-3,14,227,0
643896,-11,15,224,0
643907,-14,14,219,0
643919,-11,14,214,0
643930,4,18,214,1
643941,21,11,221,0
643952,30,-7,239,0
643963,23,-25,249,0
643974,9,-24,250,0
643985,-6,-19,259,0
643996,-21,-13,275,0
644007,-30,-4,294,0
644018,-18,4,314,0
644029,5,20,328,0
644040,60,24,340,0
644051,84,30,326,0
644062,97,38,303,0
644073,107,39,270,0
644084,113,29,239,0
644095,118,19,207,0
644106,114,8,181,0
644117,108,-2,161,0
644128,102,-11,150,0
644139,93,-11,145,0
644150,87,-15,148,0
644161,79,-11,160,0
644172,68,-4,176,0
644183,53,-2,195,0
644194,43,0,219,0
644205,32,12,247,0
644216,25,12,257,0
644227,24,15,258,0
644238,20,17,257,0
644249,16,8,254,0
644260,19,13,260,0
644271,14,10,253,0
644282,15,4,245,0
644293,17,2,243,0
644304,23,0,232,0
644315,30,-7,222,0
644326,37,-8,213,0
644337,42,-4,208,0
644348,40,-6,210,0
644359,38,-6,212,0
644370,30,-6,224,0
644381,28,-7,222,0
644392,25,-8,219,0
644403,21,-14,215,0
644414,15,-14,211,0
644425,5,-10,207,0
644436,0,-3,206,0
644447,-6,-1,207,0
644458,-9,2,208,0
644469,-11,4,211,0
644480,-13,8,210,0
644491,-11,7,209,0
644502,-13,10,214,0
644513,-17,8,226,0
644524,-11,4,231,0
644535,-17,14,222,0
644546,-21,17,213,0
644557,-19,18,209,0
644568,-26,22,226,0
644579,-30,11,228,0
644590,-28,13,204,0
644601,-27,13,198,0
644612,-26,22,201,0
644623,-27,29,205,0
644634,-27,26,215,0
644645,-25,16,226,0
644656,-18,13,225,0
644667,-19,12,237,0
644678,-18,7,242,0
644689,-18,23,239,0
644700,-24,39,262,0
644711,-32,36,268,1
644722,-29,29,282,0
644733,-6,22,308,0
644744,31,24,349,0
644755,69,35,388,0
644766,86,48,387,0
644777,113,52,356,0
644788,127,36,318,0
644799,137,15,329,0
644810,127,-8,335,0
644821,104,-13,281,0
644832,80,-25,214,0
644843,61,-40,180,0
644854,48,-52,153,0
644865,24,-48,119,0
644876,28,-37,120,1
644887,33,-26,122,0
644898,42,-11,138,0
644909,53,6,169,0
644920,64,22,200,0
644931,85,32,225,0
644942,103,33,243,0
644953,114,23,242,0
644964,116,12,240,0
644975,110,6,233,0
644986,100,6,234,0
644997,90,1,225,0
645008,84,0,215,0
645019,74,1,212,0
645030,53,-2,208,0
645041,44,0,209,0
645052,36,1,217,0
645063,31,2,217,0
645074,20,4,220,0
645085,14,5,217,0
645096,7,4,219,0
645107,3,4,220,0
645118,2,6,221,0
645129,3,6,219,0
645140,7,8,218,0
645151,10,9,220,0
645163,16,13,226,0
645173,19,15,230,0
645184,22,17,231,0
645195,22,19,226,0
645206,17,18,224,0
645217,12,16,225,0
645228,7,16,226,0
645239,5,20,226,0
645250,4,19,230,0
645261,8,19,231,0
645272,12,16,233,0
645283,17,18,231,0
645294,19,20,230,0
645305,20,20,228,0
645316,21,18,228,0
645327,25,15,228,0
645338,22,9,224,0
645349,19,4,223,0
645360,19,2,215,0
645371,13,8,213,0
645382,10,17,216,0
645393,4,25,223,0
645404,-4,26,228,0
645415,-15,28,230,0
645426,-26,27,228,0
645437,-29,24,223,0
645448,-17,26,215,0
645459,3,41,219,1
645470,27,40,239,0
645481,38,20,266,0
645492,41,2,287,0
645503,42,0,296,0
645514,49,12,302,0
645525,33,5,300,0
645536,29,13,289,0
645547,46,34,276,0
645558,63,33,277,0
645569,80,7,276,0
645580,99,-8,262,0
645591,120,-9,241,0
645602,128,-2,213,0
645613,127,2,194,0
645624,121,2,189,0
645635,103,4,191,1
645646,85,7,200,0
645657,68,8,219,0
645668,56,11,235,0
645679,40,12,242,0
645690,8,6,255,0
645701,4,5,256,0
645712,3,8,254,0
645723,2,12,248,0
645734,7,12,239,0
645745,10,13,236,0
645756,14,8,237,0
645767,27,16,231,0
645778,34,14,221,0
645789,42,9,217,0
645800,45,5,208,0
645811,49,1,201,0
645822,52,-3,201,0
645833,63,-4,200,0
645844,61,-5,209,0
645855,69,-1,215,0
645866,69,-1,215,0
645877,65,-4,211,0
645888,58,-1,205,0
645899,45,0,204,0
645910,30,0,202,0
645921,19,2,202,0
645932,11,4,203,0
645943,6,3,205,0
645954,5,6,207,0
645965,2,7,210,0
645976,3,9,210,0
645987,4,13,211,0
645998,7,16,212,0
646009,6,17,211,0
646020,5,15,215,0
646031,5,16,216,0
646042,0,10,213,0
646053,-4,14,204,0
646064,-7,9,205,0
646075,-6,5,200,0
646086,-9,9,210,0
646097,-16,5,212,0
646108,-21,-1,208,0
646119,-23,-6,200,0
646130,-18,0,201,0
646141,-17,5,211,0
646152,-22,4,223,0
646163,-24,7,234,0
646174,-23,45,255,0
646185,-28,37,265,0
646196,-27,27,270,0
646207,-25,16,273,0
646218,-18,18,265,1
646229,-3,15,258,0
646240,41,26,287,0
646251,83,42,345,0
646262,114,42,385,0
646273,126,46,387,0
646284,119,27,350,0
646295,129,3,319,0
646306,140,0,310,0
646317,128,-9,307,0
646328,104,-12,268,0
646341,64,-51,233,0
646352,27,-11,171,0
646363,29,-58,149,0
646374,30,-26,141,1
646385,29,-28,128,0
646396,30,-18,139,0
646407,37,-12,144,0
646418,56,-7,165,0
646429,78,5,195,0
646440,101,6,221,0
646451,113,9,239,0
646462,114,9,248,0
646473,104,3,240,0
646484,91,0,235,0
646495,78,-1,223,0
646506,69,-2,210,0
646517,63,-7,198,0
646528,53,-8,199,0
646539,48,-8,199,0
646550,43,-1,202,0
646561,39,0,210,0
646572,38,1,214,0
646583,38,4,217,0
646594,36,6,221,0
646605,31,9,221,0
646616,25,11,223,0
646627,18,11,220,0
646638,13,9,214,0
646649,11,15,215,0
646660,16,14,216,0
646671,12,13,219,0
646682,14,13,223,0
646693,20,13,226,0
646704,19,13,228,0
646715,20,15,232,0
646726,18,14,233,0
646737,14,13,231,0
646748,10,10,229,0
646759,7,11,228,0
646770,4,9,225,0
646781,2,9,222,0
646792,-6,4,221,0
646803,-7,6,224,0
646814,-4,5,223,0
646825,-2,5,221,0
646836,0,4,219,0
646847,2,4,216,0
646858,4,5,216,0
646869,6,3,215,0
646880,9,5,214,0
646891,10,7,216,0
646902,10,9,219,0
646913,8,10,224,0
646924,7,10,225,0
646935,6,7,225,0
646946,6,2,224,0
646957,3,2,220,0
646968,8,9,216,0
646979,18,9,218,0
646990,26,-10,228,0
647001,34,-33,238,0
647012,44,-40,253,1
647023,60,-14,255,0
647034,57,7,269,0
647045,41,-6,303,0
647056,44,-24,326,0
647068,67,-1,350,0
647079,103,26,355,0
647090,125,34,336,0
647101,142,28,307,0
647112,151,24,270,0
647123,139,2,198,0
647134,122,0,185,0
647145,103,-1,179,0
647156,81,-1,180,0
647167,54,2,186,0
647178,25,6,195,0
647189,6,16,225,0
647200,-1,23,250,0
647211,-10,19,255,0
647222,-10,21,261,0
647233,-4,16,258,0
647244,-3,12,258,0
647255,1,13,255,0
647266,5,7,245,0
647277,12,7,238,0
647288,33,3,216,0
647299,42,5,210,0
647310,47,3,201,0
647321,52,0,194,0
647332,54,1,191,0
647343,52,2,191,0
647354,48,4,192,0
647365,43,6,191,0
647376,32,4,194,0
647387,22,3,197,0
647398,15,3,205,0
647409,8,0,207,0
647420,2,-1,206,0
647431,-3,-1,209,0
647442,-8,-1,206,0
647453,-19,-1,199,0
647464,-15,-3,197,0
647475,-10,-4,197,0
647486,-9,-6,200,0
647497,-3,0,206,0
647508,-2,2,213,0
647519,-4,2,221,0
647530,-9,3,225,0
647541,-18,4,228,0
647552,-25,4,228,0
647563,-32,7,229,0
647574,-36,6,232,0
647585,-36,2,237,0
647596,-34,3,244,0
647607,-30,3,249,0
647618,-45,-12,257,0
647629,-28,-6,262,0
647640,-28,-13,241,0
647651,-22,-10,233,0
647662,-18,-7,231,0
647673,-23,-2,233,0
647684,-20,-2,256,1
647695,0,-17,296,0
647706,47,-22,328,0
647717,83,1,344,0
647728,110,9,350,0
647739,138,4,369,0
647750,159,16,369,0
647761,154,28,350,0
647772,132,24,326,0
647783,49,-19,229,0
647794,36,-33,199,0
647805,25,-40,195,0
647816,16,-44,187,0
647827,15,-36,174,0
647838,19,-23,170,0
647849,22,-18,170,0
647860,31,-15,166,0
647871,46,-11,170,0
647882,61,-9,175,0
647893,78,0,181,0
647904,88,7,192,0
647915,90,6,194,0
647926,90,7,203,0
647937,90,8,209,0
647948,82,12,226,0
647959,78,12,229,0
647970,76,12,227,0
647981,71,14,226,0
647992,75,10,223,0
648003,78,10,221,0
648014,78,7,218,0
648025,72,6,213,0
648036,64,9,215,0
648047,55,10,217,0
648058,49,9,220,0
648069,43,12,224,0
648080,36,7,219,0
648091,28,13,226,0
648102,23,15,225,0
648113,17,20,227,0
648124,13,18,224,0
648135,6,17,227,0
648146,3,18,229,0
648157,1,16,228,0
648168,1,13,229,0
648179,0,13,228,0
648190,-2,14,226,0
648201,-3,13,227,0
648212,-7,8,228,0
648223,-7,8,225,0
648234,-6,9,221,0
648245,-8,11,219,0
648256,-10,11,220,0
648267,-9,11,223,0
648278,-8,13,222,0
648289,-8,13,221,0
648300,-7,15,221,0
648311,-8,14,221,0
648322,-10,14,224,0
648333,-9,14,227,0
648344,-7,14,227,0
648355,-2,13,224,0
648366,-1,12,222,0
648377,-1,11,220,0
648388,1,8,220,0
648399,2,7,218,0
648410,6,6,218,0
648421,10,3,221,0
648432,10,2,221,0
648443,2,10,219,0
648454,-6,10,218,0
648465,-4,11,213,0
648476,6,9,211,0
648487,16,2,221,0
648498,18,-12,232,0
648509,16,-17,238,1
648520,12,-11,248,0
648531,9,0,266,0
648542,0,12,294,0
648553,-10,10,322,0
648564,-8,9,343,0
648575,10,19,359,0
648586,44,32,359,0
648597,70,39,339,0
648608,111,28,277,0
648619,120,21,244,0
648630,121,9,214,0
648641,119,-1,184,0
648652,113,-14,160,0
648663,103,-25,142,0
648674,97,-32,134,0
648685,90,-33,138,0
648696,81,-25,151,0
648707,64,-13,174,0
648718,53,2,202,0
648729,40,10,228,0
648740,29,23,250,0
648751,23,31,266,0
648762,16,35,270,0
648773,12,26,263,0
648784,14,21,259,0
648795,17,13,253,0
648806,18,5,250,0
648817,21,-1,247,0
648828,25,-2,235,0
648839,31,-6,226,0
648850,35,-10,213,0
648861,41,-8,206,0
648872,43,-7,203,0
648883,44,-4,205,0
648894,42,-1,210,0
648905,36,0,215,0
648916,32,1,223,0
648927,27,2,221,0
648938,19,1,215,0
648949,14,0,210,0
648960,10,-1,206,0
648971,6,-1,201,0
648982,3,-4,196,0
648993,2,-5,194,0
649004,2,-3,192,0
649015,0,-2,194,0
649026,-1,0,196,0
649037,-3,1,197,0
649048,-6,5,202,0
649059,-10,8,208,0
649070,-13,10,215,0
649081,-16,12,217,0
649092,-19,17,221,0
649103,-26,16,220,0
649114,-30,14,220,0
649125,-30,12,222,0
649136,-27,9,224,0
649147,-23,4,235,0
649158,-15,-5,237,0
649169,-6,12,230,0
649180,-16,26,235,0
649191,-24,24,251,0
649202,-25,18,253,0
649213,-29,18,253,0
649224,-37,19,256,0
649235,-45,17,260,0
649246,-20,1,298,0
649257,39,-13,342,0
649268,135,24,389,1
649279,149,17,387,0
649290,165,22,363,0
649301,157,24,331,0
649312,112,2,291,0
649323,71,-11,245,0
649334,51,-3,204,0
649345,18,-121,271,0
649356,52,-24,179,0
649367,31,-11,165,0
649378,52,-41,163,0
649389,58,-16,155,0
649400,59,-13,160,0
649411,60,0,172,0
649422,66,2,188,0
649433,94,1,205,0
649444,113,1,206,0
649455,124,0,210,0
649466,127,-2,213,0
649477,124,-5,212,0
649488,115,-4,213,0
649499,107,-1,210,0
649510,100,2,205,0
649521,95,6,204,0
649532,88,5,200,0
649543,80,10,208,0
649554,74,12,213,0
649565,68,10,221,0
649576,64,11,221,0
649587,58,9,223,0
649598,37,10,221,0
649609,27,9,220,0
649620,20,14,221,0
649631,11,10,218,0
649642,6,11,221,0
649653,3,14,225,0
649664,1,16,229,0
649675,1,18,232,0
649686,1,17,231,0
649697,4,16,230,0
649708,8,14,229,0
649719,13,13,228,0
649730,15,10,227,0
649741,9,9,227,0
649753,8,4,233,0
649764,8,5,233,0
649775,8,3,231,0
649786,3,5,228,0
649797,-1,7,229,0
649808,-2,7,226,0
649819,-1,9,221,0
649830,-4,9,217,0
649841,-6,6,217,0
649852,-2,8,218,0
649863,-1,9,222,0
649874,0,11,223,0
649885,2,14,223,0
649896,4,21,221,0
649907,7,26,224,0
649918,4,23,223,0
649929,2,17,221,0
649940,-1,8,217,0
649951,-6,8,213,0
649962,-12,10,210,0
649973,-15,9,209,0
649984,-10,7,207,0
649995,2,3,202,0
650006,14,-11,206,0
650017,22,-34,217,1
650028,27,-39,223,0
650039,24,-24,222,0
650050,12,-6,235,0
650061,-3,5,263,0
650072,7,30,309,0
650083,16,20,335,0
650094,23,10,353,0
650105,39,20,369,0
650116,56,31,365,0
650127,78,34,337,0
650138,93,32,309,0
650149,101,23,277,0
650160,107,15,250,1
650171,110,6,224,0
650182,108,-5,200,0
650193,103,-19,183,0
650204,94,-29,162,0
650215,89,-33,154,0
650226,84,-37,150,0
650237,72,-34,164,0
650248,66,-25,183,0
650259,58,-22,195,0
650270,53,-2,217,0
650281,41,14,241,0
650292,25,12,255,0
650303,18,19,264,0
650314,6,15,259,0
650325,5,13,258,0
650336,6,6,256,0
650347,9,0,247,0
650358,11,-1,235,0
650369,14,-4,225,0
650380,18,-1,226,0
650391,26,1,223,0
650402,35,-3,213,0
650413,39,-6,213,0
650424,40,-7,212,0
650435,38,0,215,0
650446,31,2,212,0
650457,21,2,207,0
650468,8,4,205,0
650479,-1,6,204,0
650490,-11,6,204,0
650501,-19,4,203,0
650512,-21,2,206,0
650523,-19,0,202,0
650534,-14,-2,202,0
650545,-9,-4,204,0
650556,-9,-4,205,0
650567,-11,-1,205,0
650578,-15,0,209,0
650589,-18,-1,213,0
650600,-20,0,221,0
650611,-24,1,227,0
650622,-30,0,233,0
650633,-35,-1,230,0
650644,-42,0,230,0
650655,-47,0,227,0
650666,-53,0,225,0
650677,-56,0,227,0
650688,-55,-2,230,0
650699,-49,3,233,0
650710,-52,13,232,0
650721,-49,4,232,0
650732,-27,-2,233,0
650743,-19,-5,234,0
650754,-15,-10,242,0
650765,-16,-18,253,0
650776,-23,-23,261,0
650787,-20,-24,283,1
650798,2,-32,318,0
650809,37,-41,357,0
650820,76,-21,371,0
650831,101,-12,353,0
650842,119,-9,349,0
650853,139,-1,344,0
650864,138,3,323,0
650875,111,-6,292,0
650886,88,-17,267,0
650897,45,60,137,0
650908,50,-107,236,0
650919,57,-2,164,1
650930,55,-42,150,0
650941,57,-26,153,0
650952,54,-13,148,0
650963,63,-9,162,0
650974,66,0,171,0
650985,71,0,177,0
650996,84,6,190,0
651007,102,8,201,0
651018,114,10,214,0
651029,120,9,217,0
651040,117,10,221,0
651051,108,13,224,0
651062,86,12,225,0
651073,83,10,224,0
651084,79,10,220,0
651095,74,12,211,0
651106,67,15,210,0
651117,60,18,212,0
651128,50,23,216,0
651139,43,24,222,0
651150,36,26,225,0
651161,29,27,227,0
651172,25,25,227,0
651183,15,29,228,0
651194,6,29,225,0
651205,-2,29,227,0
651216,-5,28,228,0
651227,-7,23,227,0
651238,-8,25,229,0
651249,2,24,234,0
651260,9,20,233,0
651271,10,18,231,0
651282,10,14,227,0
651293,8,12,223,0
651304,10,8,221,0
651315,4,4,222,0
651326,1,2,222,0
651337,-1,4,222,0
651348,-4,5,221,0
651359,-8,8,223,0
651370,-10,9,225,0
651381,-12,5,225,0
651392,-11,8,218,0
651403,-8,11,217,0
651414,-6,12,217,0
651425,-2,13,219,0
651436,0,15,221,0
651447,2,15,227,0
651458,6,16,227,0
651469,11,14,228,0
651480,15,10,227,0
651491,17,7,227,0
651502,17,9,226,0
651513,14,8,227,0
651524,7,8,224,0
651536,0,8,223,0
651547,-23,13,227,0
651558,-31,13,231,0
651569,-36,17,231,0
651580,-40,22,231,0
651591,-42,28,239,0
651602,-40,33,243,0
651613,-39,37,247,0
651624,-35,38,246,0
651635,-26,35,243,1
651646,-3,37,239,0
651657,7,19,247,0
651668,17,-5,250,0
651679,21,-23,243,0
651690,7,-30,238,0
651701,-17,-36,246,0
651712,-2,-13,256,0
651723,22,-10,290,0
651734,62,-6,332,0
651745,108,17,352,0
651756,144,51,342,0
651767,162,59,309,0
651778,175,48,286,0
651789,169,32,258,0
651800,151,16,225,0
651811,134,-1,201,1
651822,116,-19,181,0
651833,88,-31,169,0
651844,70,-35,175,0
651855,52,-18,187,0
651866,25,-7,202,0
651877,0,6,241,0
651888,1,27,252,0
651899,1,32,252,0
651910,7,35,256,0
651921,18,31,252,0
651932,27,23,242,0
651943,32,18,230,0
651954,33,14,220,0
651965,26,8,211,0
651976,26,2,205,0
651987,24,4,205,0
651998,27,3,201,0
652009,35,2,199,0
652020,44,1,200,0
652031,51,0,201,0
652042,61,-2,208,0
652053,61,-3,210,0
652064,57,-5,207,0
652075,50,-4,197,0
652086,40,-4,197,0
652097,33,-2,196,0
652108,26,-1,194,0
652119,19,-2,195,0
652130,12,-3,198,0
652141,6,-6,201,0
652152,6,-5,197,0
652163,4,0,191,0
652174,0,5,195,0
652185,-1,6,207,0
652196,-1,8,214,0
652207,-5,13,225,0
652218,-8,12,228,0
652229,-4,7,224,0
652240,-2,15,218,0
652251,-5,23,218,0
652262,-14,26,236,0
652273,-21,24,246,0
652284,-23,22,243,0
652295,-23,19,239,0
652306,-19,14,241,0
652317,-17,12,246,0
652328,-19,13,253,0
652339,-22,20,251,0
652350,-30,21,252,0
652361,-35,11,256,0
652372,-44,5,266,0
652383,-18,7,291,0
652394,17,16,317,0
652405,53,32,335,0
652416,68,39,330,0
652427,86,36,328,0
652438,121,40,346,1
652449,155,33,369,0
652460,143,4,366,0
652471,109,-10,296,0
652482,86,-22,227,0
652493,60,-38,188,0
652504,41,-52,170,0
652515,34,-55,154,0
652526,30,-45,146,0
652537,37,-23,147,0
652548,43,-9,154,0
652559,52,6,171,0
652570,62,22,195,0
652581,68,26,211,0
652592,73,27,218,0
652603,78,20,218,0
652614,82,12,218,0
652625,86,8,219,0
652636,84,12,224,0
652647,77,10,227,0
652658,68,4,227,0
652669,67,1,220,0
652680,67,-2,212,0
652691,67,1,207,0
652702,59,7,210,0
652713,52,10,217,0
652724,50,13,218,0
652735,47,18,223,0
652746,43,20,226,0
652757,36,24,230,0
652768,26,22,227,0
652779,17,22,226,0
652790,9,22,221,0
652801,3,21,219,0
652812,1,20,219,0
652823,1,22,221,0
652834,0,23,225,0
652845,0,23,229,0
652856,3,22,231,0
652867,12,17,229,0
652878,18,15,227,0
652889,23,15,222,0
652900,26,12,222,0
652911,24,7,222,0
652922,27,10,223,0
652933,25,8,222,0
652944,25,9,223,0
652955,25,10,224,0
652966,24,12,225,0
652977,23,11,224,0
652988,18,14,223,0
652999,13,12,223,0
653010,11,8,226,0
653021,11,6,226,0
653032,8,5,224,0
653043,4,4,221,0
653054,3,2,220,0
653065,3,-1,219,0
653076,3,2,219,0
653087,2,4,221,0
653098,1,5,222,0
653109,1,10,222,0
653120,1,14,220,0
653132,0,15,222,0
653143,0,13,223,0
653154,12,19,220,0
653165,29,23,226,0
653176,40,-4,256,0
653187,44,-15,260,0
653199,41,-10,263,0
653210,33,-3,265,1
653221,23,10,273,0
653232,17,28,283,0
653243,21,15,306,0
653254,38,-3,320,0
653265,61,1,318,0
653276,78,17,303,0
653287,96,27,283,0
653298,109,30,254,0
653309,111,29,230,0
653320,114,20,199,0
653331,112,-10,165,0
653342,103,-21,159,0
653353,97,-29,162,0
653364,88,-32,170,0
653375,76,-28,182,0
653386,61,-22,194,0
653397,47,-10,210,0
653408,36,4,231,0
653419,24,15,248,0
653430,18,25,261,0
653441,8,34,278,0
653452,3,38,280,0
653463,1,33,272,0
653474,-1,25,267,0
653485,3,25,262,0
653496,18,9,246,0
653507,28,1,239,0
653518,40,0,227,0
653529,50,0,219,0
653540,54,0,214,0
653551,56,1,214,0
653562,56,3,215,0
653573,52,4,215,0
653584,47,6,218,0
653595,43,8,217,0
653606,36,7,215,0
653617,29,4,210,0
653628,20,4,204,0
653639,12,1,200,0
653650,9,1,193,0
653661,3,3,195,0
653672,4,4,196,0
653683,2,3,193,0
653694,1,5,194,0
653705,-2,7,194,0
653716,-8,8,198,0
653727,-12,10,201,0
653738,-14,13,205,0
653749,-14,15,210,0
653760,-13,19,215,0
653771,-15,24,224,0
653782,-17,21,230,0
653793,-16,20,234,0
653804,-14,17,237,0
653815,-9,15,241,0
653826,-4,13,245,0
653837,-2,15,244,0
653848,0,22,239,0
653859,-1,28,240,0
653870,-4,27,246,0
653881,-8,26,252,0
653892,-9,26,258,0
653903,-14,20,264,1
653914,-9,7,281,0
653925,14,11,315,0
653936,51,16,350,0
653947,83,29,362,0
653958,88,30,338,0
653969,87,10,319,0
653980,102,17,295,0
653991,115,14,301,0
654002,69,12,258,0
654013,38,-76,313,0
654024,41,3,209,0
654035,20,-30,153,0
654046,16,-53,148,0
654057,31,-33,152,1
654068,39,-36,160,0
654079,49,-21,169,0
654090,57,-20,174,0
654101,68,-13,184,0
654112,84,-1,198,0
654123,92,12,211,0
654134,94,14,221,0
654145,78,10,217,0
654156,71,4,209,0
654167,69,1,206,0
654178,71,5,211,0
654189,73,2,209,0
654200,74,3,209,0
654211,76,3,210,0
654222,74,3,214,0
654233,73,1,218,0
654244,68,1,225,0
654255,63,1,228,0
654266,58,3,230,0
654277,49,5,231,0
654288,40,4,223,0
654299,33,6,217,0
654310,19,7,215,0
654321,10,7,218,0
654332,2,8,221,0
654343,0,9,223,0
654354,0,11,226,0
654365,-1,13,230,0
654376,-2,13,231,0
654387,-1,14,233,0
654398,-1,16,235,0
654409,2,17,234,0
654420,3,18,232,0
654431,5,16,230,0
654442,7,10,226,0
654453,9,7,224,0
654464,8,3,222,0
654475,1,2,222,0
654486,1,1,222,0
654497,1,0,224,0
654508,2,1,221,0
654519,3,2,223,0
654530,4,2,227,0
654541,6,2,227,0
654552,7,2,230,0
654563,9,1,229,0
654574,13,1,228,0
654585,16,2,225,0
654596,17,2,222,0
654607,17,5,217,0
654618,14,5,216,0
654629,12,8,215,0
654640,7,11,213,0
654651,4,12,216,0
654662,-1,8,218,0
654673,-14,2,217,0
654684,-24,1,214,0
654695,-23,8,213,1
654706,-10,16,221,0
654717,3,14,229,0
654728,12,4,240,0
654739,16,-7,242,0
654750,22,-15,231,0
654761,16,-11,224,0
654772,1,-8,226,0
654783,-14,-4,241,0
654794,1,17,258,0
654805,43,33,315,0
654816,76,21,333,0
654827,106,30,340,0
654838,128,41,339,0
654849,131,43,328,0
654860,128,38,308,0
654871,121,19,276,0
654882,115,5,248,0
654893,111,-16,215,0
654904,114,-34,193,0
654915,106,-47,184,0
654926,96,-55,174,0
654937,90,-45,174,0
654948,84,-40,177,0
654959,81,-31,180,0
654970,78,-12,189,0
654981,80,-3,197,0
654992,81,6,203,0
655003,82,10,214,0
655014,79,14,220,0
655025,69,17,220,0
655036,53,21,227,0
655047,37,21,239,0
655058,23,9,255,0
655069,16,7,260,0
655080,6,16,264,0
655091,5,15,268,0
655102,8,20,265,0
655113,15,20,256,0
655124,22,27,243,0
655135,34,18,237,0
655146,41,15,225,0
655157,45,12,220,0
655168,48,3,211,0
655179,50,-1,205,0
655190,50,-2,207,0
655201,49,-5,210,0
655212,52,-6,209,0
655223,51,-4,206,0
655234,45,-3,200,0
655245,37,-2,201,0
655256,25,0,204,0
655267,20,0,212,0
655278,13,1,217,0
655289,8,1,222,0
655300,-3,3,232,0
655311,-8,0,235,0
655322,-11,1,236,0
655333,-15,5,239,0
655344,-18,6,236,0
655355,-22,7,233,0
655366,-23,7,229,0
655377,-22,7,232,0
655388,-19,3,225,0
655399,-14,4,229,0
655410,-8,6,231,0
655421,-3,5,225,0
655432,-6,1,218,0
655443,-8,-7,214,0
655454,-10,-3,208,0
655465,-5,0,197,0
655476,-1,1,202,0
655487,5,-2,207,0
655498,13,-6,212,0
655509,23,-5,222,0
655520,31,0,231,0
655531,34,4,229,0
655542,30,5,222,0
655553,25,1,217,0
655564,23,0,227,1
655575,33,6,251,0
655586,56,31,291,0
655597,77,63,335,0
655608,85,75,364,0
655619,85,62,352,0
655630,95,23,274,0
655641,104,14,286,0
655652,89,2,288,0
655663,52,-20,261,0
655674,34,-14,225,0
655685,26,1,196,0
655696,18,8,175,0
655707,21,-2,171,0
655718,23,-1,179,0
655729,22,2,175,0
655740,30,15,181,0
655751,47,32,194,0
655762,61,41,204,0
655773,58,49,207,0
655784,64,51,207,0
655795,82,61,203,0
655806,89,65,204,0
655817,92,66,206,0
655828,90,67,208,0
655839,93,66,209,0
655850,95,66,212,0
655861,97,65,217,0
655872,97,63,219,0
655883,96,61,223,0
655894,98,55,225,0
655905,103,51,220,0
655916,100,50,216,0
655927,97,43,220,0
655938,94,38,218,0
655949,83,37,221,0
655960,58,36,223,0
655971,48,47,223,0
655982,35,49,225,0
655993,22,48,231,0
656004,16,48,229,0
656015,13,53,230,0
656026,13,56,226,0
656037,14,58,224,0
656049,22,58,223,0
656060,30,60,221,0
656071,33,60,222,0
656082,40,57,221,0
656093,49,56,224,0
656104,64,61,219,0
656115,70,61,220,0
656126,72,52,220,0
656137,72,51,224,0
656148,75,51,226,0
656159,72,52,226,0
656170,74,53,224,0
656181,74,52,223,0
656192,72,53,222,0
656203,68,52,222,0
656214,64,51,220,0
656225,60,56,218,0
656236,58,60,217,0
656247,57,61,220,0
656258,55,63,219,0
656269,60,67,224,0
656280,62,70,223,0
656291,63,75,226,0
656302,63,73,226,0
656313,65,68,226,0
656324,68,66,225,0
656335,70,74,221,0
656346,75,81,219,0
656357,79,82,219,0
656368,78,81,224,0
656379,76,79,227,0
656390,74,78,226,1
656401,73,80,223,0
656412,76,79,220,0
656423,80,72,220,0
656434,90,63,216,0
656445,90,61,212,0
656456,87,59,212,0
656467,87,62,215,0
656478,89,59,222,0
656489,84,53,227,0
656500,73,42,235,0
656511,58,27,237,0
656522,45,15,237,0
656533,37,10,240,0
656544,31,14,246,0
656555,30,23,252,0
656566,30,33,252,0
656577,34,45,250,0
656588,39,51,245,0
656599,49,45,236,0
656610,53,39,227,0
656621,56,28,217,0
656632,60,14,205,0
656643,64,-5,193,0
656654,64,-25,186,0
656665,65,-42,182,0
656676,65,-53,191,0
656687,67,-62,202,0
656698,64,-62,215,0
656709,53,-60,226,0
656720,39,-61,243,0
656731,32,-57,252,0
656742,28,-51,246,0
656753,26,-45,247,0
656764,15,-41,244,0
656775,9,-46,232,0
656786,2,-45,223,0
656797,-2,-42,218,0
656808,-3,-36,222,0
656819,0,-29,220,0
656830,1,-25,217,0
656841,0,-26,212,0
656852,0,-10,218,0
656863,-3,-6,216,0
656874,-2,-4,219,0
656885,0,-4,224,0
656896,3,-7,224,0
656907,9,-9,226,0
656918,15,-8,226,0
656929,24,-8,226,0
656940,28,-2,231,0
656951,29,0,229,0
656962,29,1,232,0
656973,22,1,232,0
656984,15,1,230,0
656995,7,6,232,0
657006,1,8,227,0
657017,-4,11,224,0
657028,-7,13,221,0
657039,-9,17,219,0
657050,-11,17,223,0
657061,-12,10,227,0
657072,0,13,226,0
657083,13,10,208,0
657094,20,9,212,0
657105,22,9,212,0
657116,24,9,208,0
657127,19,12,199,0
657138,9,9,202,0
657149,4,2,214,0
657160,7,2,220,0
657171,7,4,228,0
657182,5,2,234,0
657193,2,1,244,0
657204,0,2,236,1
657215,-2,-1,224,0
657226,-10,-4,217,0
657237,-22,-5,215,0
657248,-31,-3,217,0
657259,-12,21,253,0
657270,4,29,289,0
657281,28,36,311,0
657292,50,43,319,0
657303,80,36,322,0
657314,125,-4,367,0
657325,136,-20,407,0
657336,129,25,365,0
657347,116,8,294,0
657358,91,-17,224,0
657369,80,-33,176,0
657380,67,-40,151,0
657391,55,-44,149,0
657402,51,-38,156,0
657413,40,-20,165,0
657424,41,-2,182,0
657435,47,13,201,0
657446,55,18,211,0
657457,72,21,222,0
657468,89,14,230,0
657479,92,4,231,0
657490,94,0,233,0
657501,89,2,234,0
657512,84,-2,225,0
657523,76,-6,212,0
657534,64,-7,210,0
657545,46,0,216,0
657556,31,1,226,0
657567,19,8,226,0
657578,5,6,227,0
657589,2,5,228,0
657600,0,5,223,0
657611,2,7,217,0
657622,5,7,214,0
657633,9,7,214,0
657644,11,8,215,0
657655,14,10,215,0
657666,16,15,218,0
657677,15,15,220,0
657688,13,16,227,0
657699,13,19,233,0
657710,13,21,232,0
657721,12,21,230,0
657732,15,19,227,0
657743,12,17,224,0
657754,12,15,224,0
657765,14,8,220,0
657776,16,6,218,0
657787,19,7,218,0
657798,23,8,219,0
657809,28,10,220,0
657820,30,14,223,0
657831,33,16,225,0
657842,35,19,232,0
657853,34,23,235,0
657864,30,22,236,0
657875,25,13,235,0
657886,22,12,231,0
657897,13,24,224,0
657908,2,31,220,0
657919,-2,40,218,0
657930,-5,45,215,0
657941,-4,53,211,0
657952,-9,55,209,0
657963,-13,48,207,0
657974,-10,40,202,0
657985,-5,45,202,0
657997,0,51,211,0
658008,9,52,236,0
658019,24,45,256,0
658030,31,44,282,1
658041,26,36,302,0
658052,22,34,306,0
658063,33,19,310,0
658074,36,14,324,0
658085,42,12,335,0
658096,58,15,339,0
658107,75,20,327,0
658118,95,25,306,0
658129,116,27,277,0
658140,128,20,249,0
658151,128,17,227,0
658162,125,12,207,0
658173,123,7,192,0
658184,117,1,181,1
658195,105,-1,179,0
658206,91,-5,182,0
658217,80,-15,183,0
658228,51,-23,191,0
658239,39,-19,202,0
658250,26,-10,211,0
658261,19,-1,222,0
658272,14,5,232,0
658283,12,9,232,0
658294,16,10,234,0
658305,25,10,234,0
658317,36,10,229,0
658328,45,11,227,0
658340,52,8,231,0
658351,56,1,235,0
658362,64,-4,218,0
658373,65,-12,209,0
658384,64,-14,205,0
658395,61,-13,207,0
658406,56,-10,210,0
658417,45,-5,215,0
658428,36,-4,216,0
658439,28,-4,216,0
658450,20,1,218,0
658461,10,2,222,0
658472,2,5,227,0
658483,-7,9,225,0
658494,-13,8,226,0
658505,-20,6,221,0
658516,-27,-3,220,0
658527,-18,25,200,0
658538,-29,0,191,0
658549,-17,6,199,0
658560,-13,7,183,0
658571,-14,11,187,0
658582,-17,14,199,0
658593,-20,13,217,0
658604,-21,9,219,0
658615,-22,13,217,0
658626,-27,17,219,0
658637,-35,19,223,0
658648,-40,14,221,0
658659,-41,7,212,0
658670,-36,3,213,0
658681,-25,4,224,0
658692,-14,-8,253,0
658703,-5,-13,252,0
658714,2,-2,250,1
658725,11,12,267,0
658736,35,25,313,0
658747,71,36,369,0
658758,103,45,406,0
658769,107,38,397,0
658780,87,22,351,0
658791,83,14,320,0
658802,86,3,316,0
658813,89,-31,334,0
658824,71,-39,315,0
658835,57,-35,253,0
658846,57,-38,199,0
658857,45,-31,176,0
658868,41,-22,158,0
658879,36,-17,149,0
658890,31,-6,146,0
658901,30,-7,148,0
658912,35,3,165,0
658923,45,7,186,0
658934,60,8,206,0
658945,69,4,211,0
658956,74,4,217,0
658967,75,3,223,0
658978,75,4,226,0
658989,74,2,225,0
659000,75,2,215,0
659011,76,3,206,0
659022,55,3,204,0
659033,48,3,210,0
659044,43,4,214,0
659055,36,3,218,0
659066,29,2,217,0
659077,21,1,207,0
659088,18,-1,204,0
659099,13,-1,199,0
659110,10,0,200,0
659121,6,1,204,0
659132,1,5,212,0
659143,-3,13,218,0
659154,-9,13,224,0
659165,-12,16,233,0
659176,-9,14,233,0
659187,-3,12,235,0
659198,-3,12,229,0
659209,-2,10,227,0
659220,-6,8,221,0
659231,-6,8,219,0
659242,-7,8,217,0
659253,-9,12,217,0
659264,-9,13,220,0
659275,-7,14,225,0
659286,-5,7,225,0
659297,-3,3,224,0
659308,-2,-6,221,0
659319,0,-7,219,0
659330,2,-11,219,0
659341,5,-15,216,0
659352,3,-1,206,0
659363,2,8,206,0
659374,1,13,212,0
659385,-1,8,212,0
659396,-1,0,208,0
659407,-4,-3,207,0
659418,-3,-6,213,0
659429,8,1,221,0
659440,31,11,230,0
659451,53,6,247,0
659462,62,-13,270,0
659473,61,-29,283,0
659484,51,-23,283,1
659495,24,-14,292,0
659506,-1,-7,320,0
659517,4,5,366,0
659528,43,23,383,0
659539,92,46,374,0
659550,130,63,350,0
659561,152,55,311,0
659573,163,35,258,0
659584,162,23,217,0
659595,151,13,191,0
659606,133,4,168,0
659617,117,-10,152,0
659628,101,-19,148,0
659639,83,-17,157,0
659650,61,-9,178,0
659661,25,-9,210,0
659672,15,-3,224,0
659683,4,2,234,0
659694,3,1,235,0
659705,1,4,234,0
659716,2,6,235,0
659727,4,6,240,0
659738,5,1,240,0
659749,16,-1,226,0
659760,25,-7,217,0
659771,34,-4,213,0
659782,43,-3,209,0
659793,45,-3,203,0
659804,49,-2,201,0
659815,50,-4,198,0
659826,54,-7,205,0
659837,54,-10,209,0
659848,49,-13,210,0
659859,42,-12,214,0
659870,32,-14,213,0
659881,22,-12,213,0
659892,8,-11,216,0
659903,0,-11,213,0
659914,-8,-10,209,0
659925,-14,-7,210,0
659936,-18,-4,213,0
659947,-19,-2,216,0
659958,-19,0,218,0
659969,-17,2,220,0
659980,-16,6,215,0
659991,-24,12,205,0
660002,-33,14,205,0
660013,-39,15,208,0
660024,-49,16,204,0
660035,-56,13,204,0
660046,-60,10,202,0
660057,-60,8,204,0
660068,-60,6,206,0
660079,-59,8,207,0
660090,-59,2,216,0
660101,-50,-1,224,0
660112,-44,0,223,0
660123,-37,-1,222,0
660134,-34,0,230,0
660145,-28,-2,240,0
660156,-24,-10,252,0
660167,-21,-12,256,0
660178,-11,-1,266,0
660189,29,8,315,0
660200,91,21,380,0
660211,151,47,428,1
660222,172,59,419,0
660233,163,18,386,0
660244,159,1,328,0
660255,141,12,299,0
660266,123,1,315,0
660277,110,-17,364,0
660288,50,6,311,0
660299,28,-8,224,0
660310,12,-32,184,0
660321,12,-38,161,0
660332,17,-25,158,1
660343,21,-17,142,0
660354,28,-13,129,0
660365,39,2,139,0
660376,44,14,171,0
660387,51,25,197,0
660398,65,34,213,0
660409,82,33,212,0
660420,96,23,215,0
660431,108,14,209,0
660442,118,6,205,0
660453,115,8,207,0
660464,114,12,210,0
660475,107,15,215,0
660486,91,12,220,0
660497,77,15,214,0
660508,65,13,214,0
660519,54,16,216,0
660530,42,11,219,0
660541,33,11,220,0
660552,27,12,222,0
660563,17,5,218,0
660574,10,3,217,0
660585,5,1,214,0
660596,3,4,214,0
660607,-1,3,215,0
660618,-2,6,218,0
660629,-1,8,223,0
660640,0,13,228,0
660651,-1,17,229,0
660662,0,16,227,0
660673,2,20,226,0
660684,1,21,224,0
660695,1,20,224,0
660706,5,20,223,0
660717,10,18,229,0
660728,14,11,228,0
660739,16,6,223,0
660750,16,6,217,0
660761,16,7,215,0
660772,20,7,218,0
660783,24,8,223,0
660795,20,9,225,0
660806,19,8,225,0
660817,20,7,221,0
660828,22,2,217,0
660839,24,-2,217,0
660850,25,4,213,0
660861,24,10,213,0
660872,22,13,217,0
660883,16,18,215,0
660894,4,20,209,0
660905,-5,26,204,0
660916,-18,34,206,0
660927,-18,39,215,1
660938,-5,41,227,0
660949,6,23,245,0
660960,8,-2,265,0
660971,-10,-21,278,0
660982,-21,-18,287,0
660993,-29,-8,298,0
661004,-21,4,303,0
661015,5,46,318,0
661026,30,55,327,0
661037,50,52,335,0
661049,70,45,324,0
661060,99,46,297,0
661071,126,46,267,0
661082,137,37,233,0
661093,144,24,202,0
661104,142,14,183,0
661115,131,4,170,0
661126,93,-15,177,0
661137,84,-15,191,0
661148,77,-6,203,0
661159,69,3,218,0
661170,51,1,231,0
661181,36,8,245,0
661192,29,10,254,0
661203,26,16,257,0
661214,31,20,250,0
661225,37,19,241,0
661236,37,17,234,0
661247,34,15,232,0
661258,33,13,233,0
661269,33,7,232,0
661280,35,4,230,0
661291,37,-2,222,0
661302,44,-6,221,0
661313,50,-9,219,0
661324,55,-10,218,0
661335,57,-9,219,0
661346,55,-9,219,0
661357,51,-10,217,0
661368,47,-12,214,0
661379,41,-11,208,0
661390,32,-7,205,0
661401,23,-2,203,0
661412,14,1,202,0
661423,4,2,199,0
661434,0,5,197,0
661445,-3,7,201,0
661456,-3,15,204,0
661467,0,17,205,0
661478,1,19,207,0
661489,5,21,212,0
661500,6,23,215,0
661511,7,27,214,0
661522,3,28,221,0
661533,1,21,224,0
661544,0,19,224,0
661555,-1,14,225,0
661566,-3,9,222,0
661577,-7,11,217,0
661588,-12,12,220,0
661599,-13,18,224,0
661610,-11,24,235,0
661621,-13,40,240,0
661632,-19,41,244,0
661643,-20,40,249,0
661654,-22,41,250,0
661665,-26,43,250,0
661676,-33,47,255,1
661687,-42,48,259,0
661698,-53,41,265,0
661709,-62,34,260,0
661720,-65,38,253,0
661731,-42,34,264,0
661742,12,41,306,0
661753,57,61,346,0
661764,73,66,351,0
661775,73,51,321,0
661786,148,16,286,0
661797,152,-19,316,0
661808,120,-50,341,0
661819,110,-26,295,0
661830,74,-19,223,0
661841,49,-2,174,0
661852,49,-21,140,0
661863,49,-16,125,0
661874,49,-6,139,0
661885,49,-12,152,0
661896,57,-18,163,0
661907,72,-12,191,0
661918,89,-4,220,0
661929,96,-5,233,0
661940,93,-8,237,0
661951,83,-20,212,0
661962,79,-18,210,0
661973,79,-15,203,0
661984,75,-17,196,0
661995,68,-11,198,0
662006,66,-10,194,0
662017,61,-3,201,0
662028,55,3,216,0
662039,47,4,224,0
662050,41,3,227,0
662061,38,2,224,0
662072,36,3,212,0
662083,29,1,209,0
662094,18,-1,202,0
662105,18,-4,201,0
662116,15,3,212,0
662127,14,5,219,0
662138,12,9,226,0
662149,12,10,233,0
662160,10,11,232,0
662172,13,9,236,0
662183,13,6,238,0
662194,12,2,234,0
662205,11,2,231,0
662216,8,3,230,0
662227,8,2,226,0
662238,10,0,225,0
662249,11,-1,221,0
662260,13,-1,216,0
662271,15,0,216,0
662282,16,5,220,0
662293,16,11,227,0
662304,19,12,230,0
662315,23,10,232,0
662326,25,14,230,0
662337,20,16,227,0
662348,18,13,223,0
662359,16,11,220,0
662371,15,12,217,0
662382,14,15,219,0
662393,9,15,224,0
662404,5,15,226,0
662415,0,14,229,0
662426,-3,16,233,0
662437,-6,17,235,0
662448,-4,19,231,0
662459,-4,19,229,1
662470,-5,25,230,0
662481,2,28,232,0
662492,9,21,233,0
662503,16,11,239,0
662514,9,0,243,0
662525,1,-5,252,0
662536,-8,1,260,0
662547,-14,20,276,0
662558,-14,48,284,0
662569,-14,46,293,0
662580,8,4,318,0
662591,44,19,330,0
662602,84,26,322,0
662613,115,24,301,0
662624,128,20,273,0
662635,129,9,241,0
662646,128,1,206,0
662657,122,-3,179,0
662668,114,-16,158,0
662679,101,-28,142,0
662690,100,-28,148,0
662701,95,-27,157,0
662712,87,-21,175,0
662723,72,-16,189,0
662734,58,-7,207,0
662745,31,3,240,0
662756,24,8,253,0
662767,23,18,260,0
662778,19,21,266,0
662789,16,21,268,0
662800,17,22,266,0
662811,18,16,262,0
662822,22,8,256,0
662833,26,1,249,0
662844,32,1,246,0
662855,38,5,237,0
662866,44,6,227,0
662877,48,7,221,0
662888,51,3,216,0
662899,51,2,213,0
662910,48,2,212,0
662921,46,0,210,0
662932,40,-3,206,0
662943,33,-3,207,0
662954,26,-3,205,0
662965,16,-2,203,0
662976,8,-2,206,0
662987,2,-1,208,0
662998,1,0,207,0
663009,-3,5,208,0
663020,-5,6,208,0
663031,-6,9,207,0
663042,-4,12,204,0
663053,-2,15,198,0
663064,2,19,214,0
663075,5,15,218,0
663086,6,15,219,0
663097,4,20,221,0
663108,0,19,220,0
663119,-5,20,223,0
663130,-14,20,227,0
663141,-16,16,233,0
663152,-14,19,242,0
663163,-12,14,257,0
663174,-11,11,262,0
663185,-11,18,260,0
663196,-19,23,257,1
663207,-31,21,253,0
663218,-38,16,255,0
663229,-39,9,276,0
663240,-21,19,300,0
663251,5,24,324,0
663262,23,30,321,0
663273,30,35,302,0
663284,34,14,280,0
663295,52,9,267,0
663306,80,15,262,0
663317,106,7,277,0
663328,118,-22,300,0
663339,99,-27,297,0
663350,95,-18,247,0
663361,86,-28,197,0
663372,65,-36,175,0
663383,54,-36,164,0
663394,44,-25,154,0
663405,49,-20,156,0
663416,57,-11,169,0
663427,60,0,190,0
663438,57,3,205,0
663449,51,5,213,0
663460,45,8,225,0
663471,45,9,229,0
663482,51,9,232,0
663493,53,3,233,0
663504,56,-1,232,0
663515,56,-4,226,0
663526,55,-5,220,0
663537,54,-8,215,0
663548,51,-8,215,0
663559,44,1,223,0
663570,44,1,225,0
663581,40,2,225,0
663592,38,7,224,0
663603,37,9,223,0
663614,33,10,220,0
663625,29,15,218,0
663636,20,14,221,0
663647,15,13,220,0
663658,8,14,218,0
663669,3,13,220,0
663680,-2,14,222,0
663691,-5,17,227,0
663702,-8,16,230,0
663713,-9,21,231,0
663724,-8,20,229,0
663735,-8,16,226,0
663746,-7,13,227,0
663757,-5,11,225,0
663768,-2,11,224,0
663779,0,10,226,0
663790,2,7,225,0
663801,5,9,225,0
663812,10,8,226,0
663823,16,8,228,0
663834,19,7,230,0
663845,18,7,229,0
663856,17,3,224,0
663867,22,1,222,0
663878,19,1,223,0
663889,17,0,221,0
663900,17,0,221,0
663911,18,1,222,0
663922,18,2,222,0
663933,15,1,218,0
663944,12,5,216,0
663955,7,4,217,0
663966,7,1,220,0
663977,10,1,224,0
663988,12,1,226,0
663999,11,2,228,0
664010,11,2,228,0
664021,10,3,224,0
664032,11,6,217,0
664043,19,15,213,0
664054,42,4,239,0
664065,38,-4,254,0
664076,28,-6,260,1
664087,8,-6,267,0
664098,-15,-2,279,0
664109,-35,-5,291,0
664120,-21,11,290,0
664131,4,31,311,0
664142,35,35,329,0
664153,59,37,326,0
664164,80,46,316,0
664175,97,46,287,0
664186,108,41,266,0
664197,110,29,234,0
664208,106,15,201,0
664219,88,-4,156,0
664230,75,-12,143,0
664241,66,-12,147,0
664252,63,-8,157,0
664263,55,3,178,0
664274,42,12,198,0
664285,31,17,218,0
664296,22,24,246,0
664307,21,28,266,0
664318,26,32,276,0
664329,29,36,274,0
664341,34,35,266,0
664352,33,30,258,0
664363,38,26,258,0
664374,40,11,247,0
664385,44,10,242,0
664396,49,9,234,0
664408,54,11,226,0
664419,60,12,224,0
664430,66,10,219,0
664441,69,12,220,0
664452,69,12,220,0
664463,67,11,216,0
664474,64,11,212,0
664485,63,11,211,0
664496,58,10,210,0
664507,55,7,209,0
664518,42,2,211,0
664529,35,-1,207,0
664540,27,-5,202,0
664551,22,-3,198,0
664562,16,2,199,0
664573,9,1,206,0
664584,10,-3,209,0
664595,12,5,208,0
664606,13,17,211,0
664617,14,14,204,0
664628,19,20,203,0
664639,15,18,212,0
664650,21,11,230,0
664661,20,11,231,0
664672,15,12,222,0
664683,0,4,214,0
664694,-2,1,217,0
664705,-3,2,230,0
664716,-3,7,246,0
664727,-3,10,253,0
664738,-3,16,249,0
664749,-7,23,243,0
664760,-17,33,239,0
664771,-28,40,238,0
664782,-20,47,253,1
664793,-3,58,279,0
664804,20,54,309,0
664815,42,55,329,0
664826,56,42,324,0
664837,69,25,291,0
664848,82,-19,259,0
664859,101,-40,288,0
664870,104,-39,295,0
664881,94,-24,273,0
664892,77,-18,236,0
664903,67,-20,209,1
664914,55,-29,190,0
664925,46,-20,187,0
664936,35,-9,179,0
664947,26,-5,170,0
664958,21,0,166,0
664969,23,11,175,0
664980,32,21,194,0
664991,39,31,218,0
665002,55,40,233,0
665013,76,8,213,0
665024,74,10,210,0
665035,78,9,211,0
665046,79,7,207,0
665057,78,12,209,0
665068,72,11,213,0
665079,68,13,213,0
665090,63,14,216,0
665101,63,13,220,0
665112,56,12,220,0
665123,47,13,218,0
665134,35,12,214,0
665145,26,11,214,0
665156,18,8,210,0
665167,13,6,211,0
665178,19,10,209,0
665189,23,13,209,0
665200,28,17,215,0
665211,31,21,228,0
665222,34,25,234,0
665233,32,29,239,0
665244,29,30,238,0
665255,25,33,237,0
665266,19,34,231,0
665277,14,38,226,0
665288,10,38,225,0
665299,5,37,223,0
665310,3,37,220,0
665321,2,35,219,0
665332,3,38,216,0
665343,3,36,214,0
665354,7,33,215,0
665365,14,32,219,0
665376,24,28,222,0
665387,36,26,230,0
665398,44,16,229,0
665409,46,17,226,0
665420,48,19,225,0
665431,49,21,225,0
665442,48,26,226,0
665453,43,32,225,0
665464,35,44,223,0
665475,21,51,226,0
665486,13,51,228,0
665497,23,37,235,0
665508,32,37,251,0
665519,31,33,271,0
665530,32,24,285,1
665541,29,21,298,0
665552,25,20,308,0
665563,19,24,310,0
665574,17,28,304,0
665585,27,39,301,0
665596,42,25,298,0
665607,55,18,290,0
665618,72,23,273,0
665629,96,25,253,0
665641,118,19,230,0
665652,130,14,189,0
665663,125,6,176,0
665674,121,1,180,0
665685,108,-10,178,0
665696,93,-19,188,0
665707,79,-25,202,0
665718,60,-23,219,0
665729,45,-18,239,0
665740,30,-13,244,0
665751,26,-7,247,0
665762,27,-2,250,0
665773,28,1,247,0
665784,32,0,241,0
665795,34,2,240,0
665806,33,2,241,0
665817,42,0,233,0
665828,45,0,230,0
665839,49,1,228,0
665850,53,2,227,0
665861,55,0,225,0
665872,58,-2,224,0
665883,63,-1,223,0
665894,66,-8,215,0
665905,54,-2,224,0
665916,50,0,224,0
665927,43,0,222,0
665938,36,1,220,0
665949,28,1,217,0
665960,19,2,215,0
665971,4,3,205,0
665983,0,4,197,0
665994,-2,3,198,0
666005,-4,4,199,0
666016,-2,11,197,0
666027,-3,16,201,0
666038,-3,20,206,0
666049,-8,19,203,0
666060,-10,15,199,0
666071,-12,19,200,0
666082,-15,16,202,0
666093,-17,14,206,0
666104,-14,10,207,0
666115,-11,5,201,0
666126,-12,11,214,0
666137,-16,2,224,0
666148,-19,0,219,0
666159,-20,0,209,0
666170,-19,1,209,0
666181,-17,4,224,0
666192,-21,10,243,0
666203,-28,13,251,0
666214,-34,25,250,0
666225,-33,49,254,0
666236,-54,59,252,0
666247,-60,37,255,0
666258,-37,24,276,0
666269,23,27,339,0
666280,84,51,398,1
666291,129,58,368,0
666302,117,6,329,0
666313,120,-22,300,0
666324,148,7,291,0
666335,143,30,286,0
666346,104,-13,283,0
666357,78,-23,254,0
666368,56,-7,219,0
666379,57,-59,225,0
666390,45,-25,167,0
666401,42,-47,165,0
666412,50,-28,157,0
666423,51,-24,143,0
666434,49,-18,139,0
666445,57,-12,141,0
666456,79,5,174,0
666467,102,9,202,0
666478,115,7,211,0
666490,117,3,215,0
666501,117,4,220,0
666512,115,5,224,0
666523,99,7,219,0
666534,85,12,220,0
666545,76,11,218,0
666556,67,15,215,0
666567,59,13,217,0
666578,53,13,221,0
666589,51,10,224,0
666600,53,12,227,0
666611,56,14,223,0
666622,59,11,218,0
666633,57,8,215,0
666644,52,14,218,0
666655,49,15,214,0
666666,39,18,214,0
666677,27,19,216,0
666688,18,20,217,0
666699,12,22,223,0
666710,10,22,224,0
666721,7,25,227,0
666732,6,22,228,0
666743,9,20,231,0
666754,12,21,235,0
666765,13,17,233,0
666776,17,11,226,0
666787,18,7,225,0
666798,18,5,227,0
666809,18,4,229,0
666820,16,3,230,0
666831,14,5,231,0
666842,10,6,232,0
666853,9,9,231,0
666864,8,11,232,0
666875,7,13,231,0
666886,8,16,226,0
666898,8,18,223,0
666909,3,19,221,0
666920,1,3,215,0
666931,4,0,213,0
666942,5,-1,213,0
666953,9,-7,213,0
666964,13,-3,215,0
666975,18,0,218,0
666986,18,1,225,0
666997,12,1,224,0
667008,6,2,219,0
667019,1,3,217,0
667030,-6,3,214,0
667041,-3,3,213,0
667052,5,5,217,0
667063,22,1,222,0
667074,35,-27,254,1
667085,27,-37,269,0
667096,13,-33,275,0
667107,3,-1,282,0
667118,4,31,296,0
667129,14,19,333,0
667140,35,8,353,0
667151,61,33,351,0
667162,91,63,332,0
667173,120,69,299,0
667184,135,54,256,0
667195,142,36,217,0
667206,143,24,194,0
667217,131,16,175,0
667228,115,2,156,0
667239,98,-10,148,0
667250,66,-6,165,0
667261,54,0,186,0
667272,40,7,207,0
667283,31,13,227,0
667294,19,15,245,0
667305,12,20,261,0
667316,12,25,261,0
667327,6,19,258,0
667338,7,19,255,0
667350,4,18,250,0
667360,6,12,239,0
667371,3,12,235,0
667382,7,8,239,0
667393,14,5,234,0
667404,25,7,227,0
667415,35,2,208,0
667426,36,1,207,0
667437,35,3,207,0
667448,32,2,206,0
667459,27,2,207,0
667470,21,2,209,0
667481,13,1,204,0
667492,9,0,202,0
667503,7,-1,199,0
667514,3,-1,195,0
667525,1,-4,193,0
667536,0,-7,192,0
667547,-2,-5,193,0
667558,-5,-5,192,0
667569,-11,-6,191,0
667580,-14,-1,204,0
667591,-17,0,212,0
667602,-14,0,223,0
667613,-12,2,221,0
667624,-14,6,219,0
667635,-15,5,226,0
667646,-17,3,229,0
667657,-17,11,233,0
667668,-20,21,247,0
667679,-23,25,257,0
667690,-23,47,267,0
667701,-33,49,263,0
667712,-35,23,266,0
667723,-35,12,259,0
667734,-32,9,262,0
667745,-5,-6,279,1
667756,20,-8,306,0
667767,56,-9,327,0
667778,81,-1,338,0
667789,95,4,326,0
667800,92,-4,295,0
667811,86,-13,283,0
667822,84,-16,274,0
667833,78,-8,261,0
667844,72,2,260,0
667855,60,4,253,0
667866,52,0,251,0
667877,50,-2,241,0
667888,51,-6,219,0
667899,62,-23,182,0
667910,65,-33,171,0
667922,70,-32,166,0
667933,81,-30,166,0
667944,87,-22,175,0
667955,95,-13,182,0
667966,99,-2,191,0
667977,101,0,200,0
667988,99,2,210,0
668000,94,4,216,0
668011,85,11,214,0
668022,81,14,211,0
668033,87,15,214,0
668044,83,15,219,0
668055,82,14,224,0
668066,76,12,224,0
668077,69,10,226,0
668088,61,9,229,0
668099,60,11,230,0
668110,58,10,228,0
668121,51,15,227,0
668132,42,16,226,0
668143,37,17,226,0
668154,33,21,224,0
668165,27,22,227,0
668176,24,24,225,0
668187,21,24,221,0
668198,12,21,222,0
668209,9,26,223,0
668220,3,29,225,0
668231,3,27,229,0
668242,4,24,231,0
668253,3,22,234,0
668264,5,19,232,0
668275,5,16,234,0
668286,3,16,233,0
668297,4,15,233,0
668308,2,14,230,0
668319,1,12,230,0
668330,-4,11,230,0
668341,-10,10,229,0
668352,-13,13,230,0
668363,-15,14,232,0
668374,-12,10,230,0
668385,-8,10,227,0
668396,-4,12,223,0
668407,-3,15,223,0
668418,-6,11,224,0
668429,-3,10,220,0
668440,0,10,217,0
668451,2,7,215,0
668462,4,5,216,0
668473,5,1,217,0
668484,8,2,215,0
668495,10,5,218,0
668506,8,5,221,0
668517,4,6,223,0
668528,-10,2,223,1
668539,-6,5,222,0
668550,3,2,225,0
668561,17,-4,233,0
668572,21,-23,239,0
668583,23,-32,235,0
668594,20,-26,230,0
668605,9,-18,231,0
668616,5,-7,238,0
668627,6,14,246,0
668638,3,22,266,0
668649,6,9,298,0
668660,22,8,317,0
668671,34,16,320,0
668682,48,31,323,0
668693,80,37,291,0
668704,95,33,263,0
668715,106,27,239,0
668726,113,15,216,0
668737,113,-4,195,0
668748,114,-21,177,0
668759,114,-31,165,0
668770,112,-35,166,0
668781,105,-31,172,0
668792,96,-27,178,0
668803,87,-24,185,0
668814,76,-20,191,0
668825,65,-12,209,0
668836,53,1,230,0
668847,45,14,253,0
668858,25,31,280,0
668869,14,36,282,0
668880,3,31,278,0
668891,-1,27,265,0
668902,-4,19,252,0
668913,-1,11,243,0
668924,2,6,232,0
668935,6,2,226,0
668946,12,0,224,0
668957,18,-2,220,0
668968,22,-9,216,0
668979,26,-11,211,0
668990,27,-8,207,0
669001,25,-6,203,0
669012,20,-2,204,0
669023,9,1,205,0
669034,5,0,203,0
669045,1,-1,199,0
669056,-2,-3,200,0
669067,-3,-8,200,0
669078,-3,-12,202,0
669089,1,-14,204,0
669100,3,-17,204,0
669111,4,-15,205,0
669122,4,-13,202,0
669133,2,-10,202,0
669144,-1,-7,205,0
669155,-3,-9,205,0
669166,-3,-6,208,0
669177,-7,-2,218,0
669188,-14,4,232,0
669199,-21,6,227,0
669210,-25,9,223,0
669221,-25,11,224,0
669232,-25,14,227,0
669243,-23,16,234,0
669254,-21,17,241,0
669265,-17,23,242,0
669276,-24,43,252,0
669287,-29,39,257,0
669298,-27,31,258,0
669309,-26,25,256,0
669320,-28,16,248,0
669331,-29,7,245,0
669342,-27,0,247,1
669353,3,-20,277,0
669364,38,-25,308,0
669375,70,-19,327,0
669386,90,-7,325,0
669397,95,2,318,0
669408,108,7,313,0
669419,117,14,300,0
669430,116,20,292,0
669441,97,10,282,0
669452,76,1,262,0
669463,54,-4,235,0
669474,28,-7,211,0
669485,18,-13,191,0
669496,10,-9,158,0
669507,13,-112,259,0
669518,51,-18,178,0
669529,68,-41,173,0
669540,82,-20,183,0
669551,95,-8,186,0
669562,102,-4,187,0
669573,115,2,193,0
669584,119,10,197,0
669595,121,12,203,0
669606,116,18,208,0
669617,109,20,215,0
669628,102,26,221,0
669639,100,25,226,0
669650,96,24,228,0
669661,94,15,226,0
669672,93,9,225,0
669683,89,0,221,0
669694,87,0,221,0
669705,83,1,225,0
669716,76,6,227,0
669727,72,11,232,0
669738,70,16,234,0
669749,68,17,235,0
669760,64,21,230,0
669771,56,23,229,0
669782,49,24,224,0
669793,41,24,220,0
669804,36,24,220,0
669815,34,27,222,0
669826,33,27,229,0
669837,32,27,233,0
669848,34,21,229,0
669859,38,23,228,0
669870,39,26,230,0
669881,38,24,234,0
669892,37,22,238,0
669903,37,24,239,0
669914,33,24,239,0
669925,29,21,240,0
669936,24,16,236,0
669947,20,10,237,0
669958,17,10,237,0
669969,17,9,235,0
669980,18,7,236,0
669991,22,7,234,0
670002,24,11,237,0
670013,27,17,240,0
670024,25,19,239,0
670035,21,21,234,0
670046,16,23,236,0
670057,10,24,235,0
670068,14,26,235,0
670079,15,30,234,0
670090,15,34,231,0
670101,13,33,231,0
670112,10,35,229,0
670123,5,27,225,0
670134,2,28,224,0
670145,2,31,227,1
670156,8,31,228,0
670167,24,13,232,0
670178,54,-55,236,0
670189,53,-65,228,0
670200,33,-51,223,0
670211,14,-31,223,0
670222,16,-15,231,0
670233,29,-8,232,0
670244,51,-1,231,0
670255,76,2,228,0
670266,100,9,226,0
670277,117,11,222,0
670288,128,14,219,0
670299,130,14,212,0
670310,128,12,211,0
670321,120,3,206,0
670332,110,-6,196,0
670343,87,-8,194,0
670354,78,-2,206,0
670365,68,-15,227,0
670376,65,-25,251,0
670387,66,-16,265,0
670398,59,0,264,0
670409,48,6,265,0
670420,33,7,261,0
670431,24,5,254,0
670442,21,7,250,0
670453,11,6,248,0
670464,4,4,245,0
670475,1,1,235,0
670486,-1,-2,233,0
670497,-3,-4,229,0
670508,0,-8,217,0
670519,3,-10,212,0
670530,7,-13,207,0
670541,8,-14,206,0
670552,7,-15,208,0
670563,8,-17,207,0
670574,8,-14,205,0
670585,4,-17,205,0
670596,3,-20,205,0
670607,4,-24,208,0
670618,7,-29,211,0
670629,9,-34,214,0
670640,8,-36,217,0
670651,9,-39,219,0
670662,12,-43,225,0
670673,17,-47,231,0
670684,20,-46,231,0
670695,21,-46,230,0
670706,21,-41,231,0
670717,23,-42,227,0
670728,24,-43,222,0
670739,27,-41,216,0
670751,29,-39,213,0
670762,29,-39,210,0
670773,30,-41,208,0
670784,30,-46,209,0
670795,33,-30,231,0
670806,23,-54,212,0
670817,23,-60,216,0
670828,24,-63,217,0
670839,27,-64,219,1
670850,29,-63,227,0
670861,27,-60,235,0
670873,28,-60,240,0
670883,26,-58,243,0
670894,27,-54,245,0
670905,27,-54,246,0
670916,27,-46,243,0
670927,22,-39,242,0
670938,18,-39,243,0
670949,19,-42,236,0
670960,21,-41,239,0
670971,26,-36,244,0
670982,28,-12,260,0
670993,35,-18,270,0
671004,42,-22,277,1
671015,46,-27,275,0
671026,49,-27,270,0
671037,53,-34,262,0
671048,54,-35,246,0
671059,49,-31,233,0
671070,50,-32,220,0
671081,45,-30,209,0
671092,45,-30,203,0
671103,45,-23,198,0
671114,42,-14,195,0
671125,39,-9,200,0
671136,37,-6,203,0
671147,40,-5,205,0
671158,44,0,201,0
671169,45,7,201,0
671180,46,17,204,0
671191,57,20,205,0
671202,63,27,211,0
671213,61,35,221,0
671224,60,44,225,0
671235,59,45,233,0
671246,55,48,241,0
671257,48,47,247,0
671268,39,46,245,0
671279,37,40,246,0
671290,39,37,247,0
671301,38,37,241,0
671312,48,38,235,0
671323,53,36,233,0
671334,57,36,233,0
671345,54,37,226,0
671356,49,35,226,0
671367,42,32,226,0
671378,34,29,224,0
671389,24,27,221,0
671400,17,26,220,0
671411,11,24,217,0
671422,7,24,219,0
671433,4,25,221,0
671444,2,26,225,0
671455,4,26,232,0
671466,2,26,239,0
671477,6,27,247,0
671488,5,25,248,0
671499,7,24,248,0
671510,6,19,243,0
671521,5,10,240,0
671532,6,9,232,0
671543,7,9,227,0
671554,8,8,223,0
671565,8,11,221,0
671576,6,15,220,0
671587,6,20,222,0
671598,6,24,224,0
671609,2,29,229,0
671620,1,27,232,0
671631,0,26,231,0
671642,-11,18,228,0
671653,-17,15,227,0
671664,-20,13,223,0
671675,-23,12,221,0
671686,-19,16,221,0
671697,-18,22,224,0
671708,-17,24,230,0
671719,-17,25,234,0
671730,-17,23,236,0
671741,-17,18,239,0
671752,-18,13,238,0
671763,-17,16,236,0
671774,-16,22,239,0
671785,-14,22,241,0
671796,-4,19,233,1
671807,9,15,224,0
671818,23,3,228,0
671829,31,-1,249,0
671840,29,-10,267,0
671851,17,-4,279,0
671862,-3,-2,293,0
671873,-12,3,304,0
671884,0,21,307,0
671896,26,48,309,0
671907,49,46,320,0
671918,67,30,316,0
671929,78,28,292,0
671940,83,22,253,0
671951,86,-4,200,0
671962,80,-4,183,0
671973,70,-4,173,0
671984,61,-9,170,0
671995,50,-8,181,0
672006,40,-4,195,0
672017,34,4,213,0
672028,29,18,233,0
672039,25,24,242,0
672050,20,26,248,0
672061,18,20,245,0
672072,16,18,239,0
672083,12,15,240,0
672094,6,10,238,0
672105,3,6,240,0
672116,5,-2,240,0
672127,10,0,232,0
672138,19,-1,220,0
672149,31,-1,206,0
672160,39,0,199,0
672171,45,0,196,0
672182,52,1,200,0
672193,56,4,204,0
672204,56,1,210,0
672215,51,-1,211,0
672226,43,-6,212,0
672237,35,-12,216,0
672248,25,-24,222,0
672259,22,-21,215,0
672270,14,-18,212,0
672282,-1,-4,196,0
672293,-3,-2,193,0
672304,-2,-1,193,0
672315,0,-1,194,0
672326,1,0,193,0
672337,1,1,193,0
672348,1,1,196,0
672359,2,1,203,0
672370,3,6,207,0
672381,1,14,203,0
672392,-3,19,208,0
672403,-9,22,220,0
672414,-11,17,227,0
672425,-11,3,245,0
672436,-9,-10,257,0
672447,-7,-9,264,0
672458,-9,-4,261,0
672469,-16,4,250,0
672480,-23,13,247,0
672491,-36,13,251,0
672502,-48,12,257,0
672513,-52,6,262,0
672524,-28,15,282,0
672535,2,30,308,0
672546,28,41,333,0
672557,44,36,337,0
672568,55,31,323,1
672579,79,25,307,0
672590,117,-24,330,0
672601,105,-30,324,0
672612,92,-26,274,0
672623,61,-28,212,0
672634,42,-28,183,0
672645,39,-42,165,0
672656,40,-37,156,0
672667,39,-23,158,0
672678,41,-12,165,0
672689,48,-1,166,0
672700,53,7,168,0
672711,56,14,185,0
672722,58,19,200,0
672733,61,21,215,0
672744,61,19,223,0
672755,67,9,226,0
672766,66,9,230,0
672777,63,12,235,0
672788,59,7,230,0
672799,53,3,223,0
672810,45,6,217,0
672821,41,13,222,0
672832,42,15,221,0
672843,42,18,221,0
672854,36,19,217,0
672865,36,16,213,0
672876,33,17,212,0
672887,34,17,212,0
672898,32,15,212,0
672909,30,15,211,0
672920,21,9,209,0
672931,19,9,210,0
672942,17,14,215,0
672953,19,17,222,0
672964,19,22,230,0
672975,19,25,237,0
672986,21,22,235,0
672997,21,21,230,0
673008,22,19,227,0
673019,21,16,224,0
673030,17,16,223,0
673041,15,14,224,0
673052,16,18,224,0
673063,13,17,221,0
673074,13,18,223,0
673085,13,21,221,0
673096,9,18,221,0
673107,11,17,223,0
673118,17,16,228,0
673129,18,13,229,0
673140,21,11,228,0
673151,24,11,226,0
673162,23,8,226,0
673173,19,11,223,0
673184,16,15,220,0
673195,9,18,219,0
673206,2,20,219,0
673217,2,25,223,0
673228,1,26,225,0
673239,-4,26,224,0
673250,2,25,221,0
673261,30,28,229,0
673272,56,23,251,0
673283,65,12,277,0
673294,65,3,299,0
673305,51,4,303,1
673316,29,15,310,0
673327,13,24,323,0
673338,21,38,314,0
673349,36,31,313,0
673360,63,19,319,0
673371,87,14,307,0
673382,100,5,285,0
673393,111,-6,261,0
673404,117,-14,231,0
673415,95,-8,187,0
673426,82,-9,180,0
673437,69,-5,179,0
673448,55,3,182,0
673459,32,7,185,0
673470,16,14,206,0
673481,7,14,226,0
673492,7,13,245,0
673503,7,13,259,0
673514,9,20,258,0
673525,17,11,255,0
673536,24,8,245,0
673547,28,5,237,0
673558,29,2,229,0
673569,33,1,225,0
673580,40,4,219,0
673591,46,4,216,0
673602,51,3,211,0
673613,58,1,206,0
673624,62,-2,204,0
673635,64,-1,206,0
673646,66,-3,206,0
673657,66,-2,210,0
673668,63,-3,211,0
673679,60,-5,211,0
673690,52,-4,214,0
673701,48,-4,213,0
673712,32,-3,215,0
673723,21,-4,215,0
673734,13,-7,210,0
673745,2,-6,200,0
673756,2,-5,204,0
673767,2,-4,207,0
673778,1,0,205,0
673789,2,3,205,0
673800,3,5,205,0
673811,4,10,211,0
673822,3,12,213,0
673833,2,8,217,0
673844,2,9,221,0
673855,-1,10,221,0
673866,-10,6,221,0
673877,-19,2,213,0
673888,-25,-6,203,0
673899,-26,-11,195,0
673910,-15,-10,203,0
673921,-6,-2,212,0
673932,0,0,219,0
673943,2,6,227,0
673954,6,13,231,0
673965,8,20,232,0
673976,5,24,234,0
673987,2,25,235,0
673998,-6,27,238,0
674009,-13,20,248,0
674020,-16,4,260,0
674031,-23,2,264,0
674042,-29,6,261,1
674053,-36,8,252,0
674064,-34,3,246,0
674075,40,33,324,0
674086,90,53,391,0
674097,110,63,406,0
674108,101,55,351,0
674119,128,27,279,0
674130,174,-16,252,0
674141,196,-39,300,0
674152,142,-3,297,0
674163,135,-97,357,0
674174,125,7,232,0
674185,67,-7,194,0
674196,49,-4,170,0
674207,38,-11,150,0
674218,34,-12,149,0
674229,35,-14,150,0
674240,43,-14,164,0
674251,61,-11,185,0
674262,87,-19,198,0
674273,112,-20,213,0
674284,128,-20,216,0
674295,131,-16,214,0
674306,128,-13,208,0
674317,125,-11,205,0
674328,125,-3,200,0
674339,112,0,202,0
674350,93,4,202,0
674361,74,8,206,0
674372,66,13,215,0
674383,58,14,215,0
674394,47,20,214,0
674405,27,15,212,0
674416,23,11,212,0
674427,18,9,214,0
674438,15,8,217,0
674449,13,8,218,0
674460,12,8,224,0
674471,12,12,228,0
674482,14,12,231,0
674493,10,18,233,0
674504,8,18,236,0
674515,9,16,236,0
674526,9,15,234,0
674537,11,11,233,0
674548,13,6,232,0
674559,13,5,232,0
674570,11,6,230,0
674581,10,6,228,0
674592,10,6,227,0
674603,7,4,225,0
674614,3,5,222,0
674625,0,6,218,0
674636,-1,10,218,0
674647,-5,14,216,0
674658,-9,17,218,0
674669,-11,16,219,0
674680,-16,13,222,0
674691,-16,11,226,0
674702,-10,12,232,0
674713,0,10,236,0
674724,5,4,240,0
674735,12,-11,222,0
674746,7,-14,216,0
674757,-2,-14,211,0
674768,-14,-11,205,0
674779,-7,-2,206,0
674790,16,6,203,1
674802,41,5,215,0
674813,52,-16,232,0
674824,49,-32,252,0
674835,40,-28,264,0
674846,33,0,276,0
674857,31,29,307,0
674868,36,40,324,0
674879,48,30,329,0
674890,85,19,319,0
674901,98,24,309,0
674912,96,17,283,0
674923,91,14,246,0
674934,84,16,211,0
674945,74,13,185,0
674956,58,7,166,0
674967,41,3,157,0
674978,28,5,159,0
674989,19,11,165,0
675000,16,15,181,0
675011,20,14,197,0
675022,27,8,214,0
675033,30,2,238,0
675044,35,-1,259,0
675055,39,7,274,0
675066,42,7,270,0
675077,43,5,268,0
675088,39,8,256,0
675099,35,4,247,0
675110,35,1,251,0
675121,34,-4,255,0
675132,36,-2,257,0
675143,39,12,234,0
675154,38,14,228,0
675165,38,14,211,0
675176,46,13,202,0
675187,48,14,201,0
675198,46,10,203,0
675209,49,5,202,0
675220,50,5,193,0
675231,48,3,198,0
675242,44,3,201,0
675253,35,1,209,0
675264,32,0,210,0
675275,23,2,207,0
675286,12,5,205,0
675297,3,-1,207,0
675308,-7,0,214,0
675319,-19,2,223,0
675330,-31,2,229,0
675341,-37,1,240,0
675352,-35,11,242,0
675363,-31,25,243,0
675374,-23,37,251,0
675385,-6,51,250,0
675396,17,32,253,0
675407,53,16,259,0
675418,83,17,278,0
675429,92,31,288,1
675440,90,43,294,0
675451,79,45,304,0
675462,66,48,288,0
675473,56,35,259,0
675484,45,25,237,0
675495,39,13,217,0
675506,36,5,190,0
675517,34,3,166,0
675528,33,4,153,0
675539,33,2,159,0
675550,52,16,188,0
675561,66,14,196,0
675572,80,16,212,0
675583,94,22,231,0
675594,105,28,244,0
675605,112,29,249,0
675616,114,23,244,0
675627,107,20,233,0
675638,91,15,225,0
675649,75,11,219,0
675660,64,14,213,0
675671,55,18,213,0
675682,51,19,210,0
675693,38,25,210,0
675704,34,32,212,0
675715,29,39,225,0
675726,26,42,220,0
675737,27,44,221,0
675748,31,44,222,0
675759,31,36,225,0
675770,36,26,239,0
675781,45,30,245,0
675792,48,41,235,0
675803,50,47,226,0
675814,48,43,219,0
675825,47,44,219,0
675836,46,48,219,0
675847,46,47,223,0
675858,45,49,223,0
675869,48,52,224,0
675880,47,57,216,0
675891,46,58,218,0
675902,46,56,222,0
675913,49,55,227,0
675924,47,53,229,0
675935,46,51,229,0
675946,46,53,228,0
675957,44,52,229,0
675968,48,50,230,0
675979,51,51,230,0
675990,49,50,230,0
676001,46,51,223,0
676012,43,53,220,0
676023,40,52,220,0
676034,34,52,217,1
676045,31,55,218,0
676056,25,62,217,0
676067,20,73,215,0
676078,17,73,218,0
676089,22,72,224,0
676100,31,72,228,0
676111,32,66,233,0
676122,32,58,233,0
676133,30,47,232,0
676144,26,41,228,0
676155,20,40,234,0
676166,21,33,232,0
676177,34,39,236,0
676188,54,51,239,0
676199,88,45,236,0
676210,100,39,224,0
676221,105,38,220,0
676232,107,30,223,0
676243,107,27,230,0
676254,104,28,236,0
676265,96,22,238,0
676276,88,18,242,0
676287,80,14,245,0
676298,72,2,249,0
676309,67,-7,246,0
676320,66,-14,242,0
676331,63,-17,241,0
676342,57,-19,242,0
676353,46,-17,246,0
676364,44,-12,254,0
676375,50,-9,253,0
676386,53,-2,255,0
676398,57,2,255,0
676409,58,2,244,0
676420,56,2,230,0
676431,49,0,213,0
676442,42,-1,208,0
676453,36,-3,206,0
676464,31,1,208,0
676475,25,6,211,0
676486,22,6,214,0
676497,23,5,217,0
676508,29,11,220,0
676519,52,28,221,0
676530,59,34,223,0
676541,60,28,236,0
676552,69,6,232,0
676563,77,37,229,0
676574,74,34,222,0
676585,72,19,225,0
676596,72,27,224,0
676607,64,32,218,0
676618,50,32,215,0
676629,40,35,223,0
676640,23,19,240,0
676651,18,25,239,0
676662,21,29,220,0
676673,11,47,209,0
676684,5,61,212,0
676695,5,71,209,0
676706,12,66,208,0
676717,26,56,211,0
676728,36,44,212,0
676739,41,38,227,1
676750,49,32,225,0
676761,51,9,242,0
676772,63,-1,240,0
676783,65,13,234,0
676794,52,-1,249,0
676805,54,-10,257,0
676816,23,28,216,0
676827,-5,5,224,0
676838,-12,10,226,0
676849,-2,21,271,0
676860,22,23,282,0
676871,49,29,263,0
676882,66,50,254,0
676893,82,40,234,0
676904,112,23,211,0
676915,135,16,211,0
676926,136,8,217,0
676937,121,1,216,0
676948,120,-9,221,0
676959,127,2,251,0
676970,117,17,269,0
676981,105,18,261,0
676992,86,23,249,0
677003,68,25,237,0
677014,41,31,209,0
677025,39,32,197,0
677036,41,39,192,0
677047,50,45,191,0
677058,59,46,192,0
677069,67,49,196,0
677080,73,58,196,0
677091,78,62,196,0
677102,77,67,199,0
677113,74,69,203,0
677124,67,75,206,0
677135,59,74,206,0
677146,51,78,209,0
677157,39,79,209,0
677168,34,75,212,0
677179,27,74,207,0
677190,32,73,201,0
677201,34,75,201,0
677212,35,78,203,0
677223,43,70,205,0
677234,57,54,205,0
677245,79,27,204,0
677256,99,2,204,0
677267,109,-26,200,1
677278,126,-16,207,0
677289,122,0,222,0
677300,104,-8,239,0
677311,90,-35,234,0
677322,79,-92,235,0
677333,59,-106,272,0
677344,49,-18,371,0
677355,56,32,401,0
677366,41,68,408,0
677377,38,75,387,0
677388,32,56,368,0
677399,41,38,343,0
677410,47,34,286,0
677421,26,29,287,0
677432,7,7,286,0
677443,-11,-7,241,0
677454,-28,-12,194,0
677465,-36,-15,159,0
677476,-42,-17,139,0
677487,-41,-14,143,0
677498,-43,-9,156,0
677509,-54,1,191,0
677520,-55,-8,208,0
677531,-52,-14,214,0
677542,-47,-20,209,0
677553,-38,-27,208,0
677564,-27,-23,202,0
677575,-17,-14,208,0
677586,-4,-10,220,0
677597,9,-6,237,0
677608,26,0,244,0
677619,39,3,238,0
677630,41,-1,234,0
677641,41,-10,234,0
677652,41,-14,222,0
677663,40,-14,214,0
677674,42,-17,212,0
677685,47,-17,217,0
677696,52,-20,223,0
677707,55,-19,230,0
677718,56,-23,236,0
677729,58,-23,238,0
677740,58,-20,237,0
677751,54,-21,231,0
677762,49,-21,226,0
677773,44,-18,221,0
677784,41,-14,217,0
677795,37,-11,217,0
677806,33,-15,223,0
677817,28,-21,231,0
677828,27,-24,235,0
677839,27,-31,237,0
677850,32,-34,240,0
677861,38,-34,235,0
677872,41,-32,225,0
677883,40,-33,214,0
677894,39,-35,204,0
677905,41,-36,211,0
677916,45,-41,217,0
677927,49,-47,218,0
677938,52,-46,220,0
677949,52,-46,220,0
677960,53,-44,224,0
677971,55,-41,228,0
677982,56,-37,230,0
677994,60,-34,227,0
678005,55,-31,223,0
678016,54,-30,215,0
678027,55,-31,215,0
678038,53,-35,211,0
678049,50,-32,209,0
678060,52,-28,212,0
678071,52,-26,209,0
678082,53,-25,205,0
678093,51,-21,200,0
678104,53,-16,198,0
678115,53,5,208,1
678126,46,-10,199,0
678137,49,-10,212,0
678148,40,18,242,0
678159,27,31,261,0
678170,13,42,275,0
678181,0,36,282,0
678192,-15,19,274,0
678203,-24,7,267,0
678214,-28,-5,252,0
678225,-28,-18,251,0
678236,-15,-9,233,0
678247,-2,1,211,0
678258,16,-4,192,0
678269,34,-4,180,0
678280,59,2,184,0
678291,73,15,196,0
678302,78,20,210,0
678313,75,15,246,0
678324,67,16,255,0
678335,59,21,256,0
678346,48,24,251,0
678357,35,27,238,0
678368,28,33,234,0
678379,21,40,228,0
678390,12,47,231,0
678401,4,47,237,0
678412,1,41,241,0
678423,3,37,244,0
678434,7,30,245,0
678445,11,29,245,0
678456,15,24,244,0
678467,14,19,238,0
678478,9,32,232,0
678489,5,34,235,0
678500,4,36,235,0
678511,3,33,230,0
678522,2,33,230,0
678533,4,32,227,0
678544,5,30,227,0
678555,9,27,229,0
678566,14,24,226,0
678577,18,23,223,0
678588,20,24,220,0
678599,19,24,224,0
678610,21,23,228,0
678621,19,24,231,0
678632,13,22,235,0
678643,8,23,238,0
678654,6,25,240,0
678665,3,27,239,0
678676,2,24,239,0
678687,2,21,239,0
678698,4,27,237,0
678709,4,29,238,0
678720,7,22,237,0
678731,9,23,232,0
678742,10,26,233,0
678753,7,25,231,0
678764,2,28,228,0
678775,-1,29,227,0
678787,-12,31,226,0
678798,-14,33,225,0
678809,-9,34,226,0
678820,-3,36,225,0
678831,1,38,222,0
678842,7,42,219,0
678853,11,43,221,0
678864,13,44,224,1
678875,14,37,224,0
678886,16,32,226,0
678898,17,20,226,0
678908,21,6,221,0
678919,26,-4,224,0
678930,34,-2,221,0
678941,37,8,225,0
678952,37,2,242,0
678963,33,-3,254,0
678974,35,0,260,0
678985,45,13,268,0
678996,52,21,275,0
679007,62,19,271,0
679018,71,26,263,0
679029,76,24,257,0
679040,78,15,255,0
679051,79,4,248,0
679062,77,-5,234,0
679073,72,-9,222,0
679084,66,-12,217,0
679095,64,-11,222,0
679107,63,-12,223,0
679118,64,-14,223,0
679129,66,-15,226,0
679140,68,-20,225,0
679151,73,-22,225,0
679162,74,-27,222,0
679173,76,-30,220,0
679184,78,-35,216,0
679195,81,-38,215,0
679206,78,-52,210,0
679217,83,-54,210,0
679228,83,-49,206,0
679239,86,-41,205,0
679250,85,-33,213,0
679261,71,-19,226,0
679272,63,-17,231,0
679283,54,-17,228,0
679294,44,-16,239,0
679305,30,-8,250,0
679316,21,-3,258,0
679327,13,-5,269,0
679338,9,-3,271,0
679349,7,-1,260,0
679360,11,-4,256,0
679371,14,-11,255,0
679382,19,-15,252,0
679393,22,-16,243,0
679404,27,-14,242,0
679415,34,-9,239,0
679426,40,-6,212,0
679437,41,-2,207,0
679448,43,-3,206,0
679459,44,-1,210,0
679470,41,-1,215,0
679481,40,-4,218,0
679492,35,-6,216,0
679503,33,-10,213,0
679514,32,-12,210,0
679525,27,-16,207,0
679536,20,-12,204,0
679547,15,-16,208,0
679558,13,-19,210,0
679569,11,-18,213,0
679580,8,-18,216,0
679591,5,-21,218,0
679602,7,-24,219,0
679613,10,-21,219,0
679624,11,-21,221,0
679635,11,-24,220,0
679646,12,-24,219,0
679657,10,-24,214,0
679668,7,-26,212,0
679679,3,-28,210,0
679690,0,-29,211,0
679701,-2,-34,214,0
679712,-4,-36,218,0
679723,-5,-39,222,0
679734,-8,-39,224,0
679745,-9,-41,224,0
679756,-9,-41,221,0
679767,-8,-41,214,0
679778,-6,-40,213,0
679789,-2,-48,224,0
679800,8,-51,225,0
679811,12,-54,208,0
679822,19,-59,200,0
679833,26,-60,210,1
679844,33,-64,234,0
679855,53,-58,257,0
679866,76,-31,297,0
679877,91,-5,366,0
679888,115,2,395,0
679899,136,-3,396,0
679910,136,-31,385,0
679921,88,-40,290,0
679932,58,-38,244,0
679943,11,-44,191,0
679954,-26,-51,159,0
679965,-47,-59,146,0
679976,-59,-62,146,0
679987,-56,-62,151,1
679998,-42,-58,150,0
680009,-16,-36,156,0
680020,20,-22,173,0
680031,56,-8,205,0
680042,85,1,226,0
680053,100,13,224,0
680064,113,8,210,0
680075,126,3,211,0
680086,138,-1,227,0
680097,133,3,227,0
680108,128,3,223,0
680119,117,5,217,0
680130,101,10,218,0
680141,87,20,219,0
680152,71,24,220,0
680163,65,26,223,0
680174,60,32,220,0
680185,57,28,221,0
680196,54,27,222,0
680207,47,28,222,0
680218,40,29,223,0
680229,33,28,226,0
680240,28,25,229,0
680251,17,19,226,0
680262,17,17,223,0
680273,20,11,225,0
680284,23,11,228,0
680295,24,11,230,0
680306,27,7,233,0
680317,31,6,236,0
680328,31,10,237,0
680339,31,10,240,0
680350,25,14,240,0
680361,24,16,243,0
680372,21,15,243,0
680383,14,11,239,0
680394,10,10,236,0
680405,4,7,231,0
680416,0,1,227,0
680427,-4,1,228,0
680438,-5,-1,227,0
680449,-2,-1,224,0
680460,-2,1,223,0
680471,-2,3,223,0
680482,0,6,222,0
680493,-2,13,223,0
680504,-6,16,227,0
680515,-11,19,229,0
680526,-14,18,231,0
680537,-14,18,231,0
680548,-14,15,228,0
680559,-14,12,227,0
680570,-18,7,224,0
680581,-14,-1,219,0
680592,-13,-7,217,0
680603,-15,-9,211,0
680614,-13,-3,211,0
680625,-13,0,216,0
680636,-17,0,220,0
680647,-15,1,224,0
680658,-7,9,222,0
680669,4,7,224,1
680680,23,-3,230,0
680691,30,-14,245,0
680702,13,-19,261,0
680713,-3,-16,275,0
680724,-6,3,288,0
680735,-4,40,306,0
680746,0,4,344,0
680757,23,5,338,0
680768,55,24,328,0
680779,88,35,315,0
680790,113,35,291,0
680801,122,41,267,0
680812,119,36,233,0
680823,118,25,208,0
680834,110,10,185,0
680845,101,1,163,0
680856,86,-5,148,0
680867,75,-9,143,0
680878,65,-5,155,0
680889,52,0,180,0
680900,40,0,222,0
680911,35,0,238,0
680922,34,0,247,0
680933,42,11,241,0
680944,43,13,244,0
680955,46,9,248,0
680966,47,7,244,0
680977,48,6,237,0
680988,48,5,237,0
680999,48,1,237,0
681010,52,0,237,0
681021,54,-4,231,0
681032,54,-3,226,0
681044,50,-1,221,0
681054,49,2,218,0
681065,36,5,216,0
681076,27,5,215,0
681087,16,1,210,0
681098,7,-1,206,0
681109,1,1,205,0
681120,-4,1,206,0
681131,-11,-1,201,0
681142,-14,-1,195,0
681153,-15,0,192,0
681164,-14,1,192,0
681175,-14,1,191,0
681186,-15,0,188,0
681197,-14,0,189,0
681208,-14,-1,194,0
681219,-16,0,199,0
681230,-22,-2,222,0
681241,-20,-9,227,0
681252,-15,-6,219,0
681263,-15,0,220,0
681274,-16,2,230,0
681285,-15,12,239,0
681296,-23,22,242,0
681307,-27,12,243,0
681318,-21,2,240,0
681329,-15,-6,245,0
681340,-10,-17,251,0
681351,-8,-23,258,0
681362,-4,-21,257,0
681373,-10,-16,261,0
681384,-24,-13,266,0
681395,-20,-9,312,0
681406,6,-9,333,0
681417,36,-1,345,1
681428,41,8,336,0
681439,44,6,317,0
681450,57,2,294,0
681461,79,-6,292,0
681472,118,-25,335,0
681484,98,-34,338,0
681495,76,-22,285,0
681506,78,-23,212,0
681517,48,-33,187,0
681528,47,-29,163,0
681539,40,-28,144,0
681550,50,-18,145,0
681561,61,-12,158,0
681572,68,-1,183,0
681583,76,1,192,0
681594,78,5,206,0
681605,82,3,206,0
681616,86,2,202,0
681627,88,-3,197,0
681638,89,-1,200,0
681649,88,0,210,0
681660,87,0,215,0
681671,84,2,220,0
681682,81,2,223,0
681693,71,2,224,0
681704,62,5,223,0
681715,45,8,222,0
681726,38,6,218,0
681737,31,13,214,0
681748,23,12,212,0
681759,15,12,212,0
681770,10,8,211,0
681781,3,6,211,0
681792,0,9,221,0
681803,-10,10,225,0
681814,-10,7,230,0
681825,-8,6,227,0
681836,-6,5,224,0
681847,-1,4,221,0
681858,1,5,220,0
681869,3,5,222,0
681880,13,5,225,0
681891,17,8,228,0
681902,18,9,231,0
681913,16,9,232,0
681924,13,10,233,0
681935,10,11,233,0
681946,11,10,232,0
681957,9,9,232,0
681968,9,8,226,0
681979,6,5,221,0
681990,5,2,216,0
682001,5,-2,213,0
682012,6,0,216,0
682023,8,0,222,0
682034,11,0,221,0
682045,11,10,214,0
682057,9,17,215,0
682068,6,19,218,0
682079,4,21,221,0
682090,1,22,221,0
682101,-4,21,223,0
682112,-12,11,219,0
682123,-16,7,215,0
682134,-11,10,217,0
682145,4,25,220,0
682156,16,21,230,0
682167,24,19,251,0
682178,21,12,277,0
682189,4,0,273,0
682200,-13,-3,279,0
682211,-36,-3,291,0
682222,-39,7,299,1
682233,-26,19,317,0
682244,8,8,331,0
682255,52,13,332,0
682266,93,28,313,0
682277,121,41,286,0
682288,136,33,248,0
682299,140,15,214,0
682310,135,8,193,0
682321,127,2,179,0
682332,117,-10,173,0
682343,107,-25,169,0
682354,84,-23,191,0
682365,64,-10,208,0
682376,42,-3,223,0
682387,21,7,239,0
682398,7,16,250,0
682409,7,22,255,0
682420,2,25,259,0
682431,3,25,258,0
682442,2,21,249,0
682453,3,16,244,0
682464,5,6,237,0
682475,12,7,236,0
682486,21,4,228,0
682497,30,3,215,0
682508,34,5,206,0
682519,44,11,204,0
682530,46,10,206,0
682541,43,10,212,0
682552,42,8,221,0
682563,38,7,218,0
682574,36,1,214,0
682585,33,0,207,0
682596,28,7,196,0
682607,22,5,191,0
682618,12,8,192,0
682629,8,4,189,0
682640,2,4,187,0
682651,0,4,186,0
682662,-2,6,189,0
682673,-5,9,194,0
682684,-14,14,207,0
682695,-19,15,211,0
682706,-23,16,215,0
682717,-26,18,218,0
682728,-28,17,225,0
682739,-27,23,232,0
682750,-31,27,244,0
682761,-36,18,253,0
682772,-36,20,263,0
682783,-38,13,255,0
682794,-34,10,251,0
682805,-27,3,248,0
682816,-23,6,245,0
682827,-23,11,245,0
682838,-18,26,265,1
682849,7,23,309,0
682860,58,14,359,0
682871,99,34,385,0
682882,93,34,376,0
682893,103,6,359,0
682904,135,3,345,0
682915,141,-4,328,0
682926,124,-42,295,0
682937,100,-48,254,0
682948,74,-45,215,0
682959,53,-41,186,0
682970,48,-40,180,1
682981,48,-29,178,0
682992,45,-22,167,0
683003,40,-17,158,0
683014,36,-7,167,0
683025,42,-4,175,0
683036,53,-2,184,0
683047,63,0,193,0
683058,71,-1,200,0
683069,76,0,207,0
683080,80,0,213,0
683091,78,6,217,0
683102,75,8,215,0
683113,73,13,216,0
683124,72,15,222,0
683135,68,13,225,0
683146,64,11,225,0
683157,64,12,224,0
683168,66,13,215,0
683179,65,11,209,0
683190,61,12,210,0
683201,56,12,208,0
683212,51,11,211,0
683223,45,12,210,0
683234,37,16,211,0
683245,32,13,216,0
683256,28,14,219,0
683267,23,19,217,0
683278,20,20,220,0
683289,11,23,224,0
683300,12,27,226,0
683311,11,23,227,0
683322,13,20,227,0
683333,12,13,228,0
683344,15,13,231,0
683355,15,9,237,0
683366,16,2,238,0
683377,22,0,232,0
683388,24,0,230,0
683400,25,2,227,0
683411,23,1,224,0
683422,23,0,217,0
683433,27,-3,207,0
683444,29,-1,209,0
683455,25,4,217,0
683466,23,1,218,0
683477,21,6,218,0
683488,6,9,219,0
683499,2,13,224,0
683510,1,19,229,0
683521,3,25,229,0
683532,3,26,227,0
683543,1,24,225,0
683554,-3,18,220,0
683565,3,15,220,0
683576,7,9,211,0
683587,23,13,220,0
683598,26,1,246,1
683609,18,-17,268,0
683620,15,-5,274,0
683631,30,43,265,0
683642,43,59,273,0
683653,6,-24,335,0
683664,24,-8,350,0
683675,56,20,349,0
683686,88,32,330,0
683697,108,35,300,0
683708,113,26,257,0
683719,120,21,227,0
683730,120,21,200,0
683741,111,17,175,0
683752,91,9,152,0
683763,66,0,150,0
683774,49,0,158,0
683785,38,14,173,0
683796,26,25,193,0
683807,16,29,212,0
683818,-10,19,258,0
683829,-19,12,266,0
683840,-21,6,265,0
683851,-16,1,267,0
683862,-11,0,254,0
683873,-8,2,243,0
683884,-1,0,234,0
683895,6,0,219,0
683906,13,2,212,0
683917,15,4,207,0
683928,18,5,204,0
683939,21,4,205,0
683950,19,3,207,0
683962,8,2,214,0
683973,3,2,210,0
683984,0,2,209,0
683995,-2,2,208,0
684006,-2,0,208,0
684017,-1,-1,206,0
684028,-1,-1,207,0
684039,-2,-5,206,0
684050,-6,-9,206,0
684061,-9,-17,205,0
684072,-12,-20,203,0
684083,-13,-17,199,0
684094,-17,-13,201,0
684106,-17,-12,206,0
684117,-16,-7,218,0
684128,-18,-8,227,0
684139,-21,-5,232,0
684150,-24,-5,231,0
684161,-30,-5,230,0
684172,-35,-1,229,0
684183,-40,-1,226,0
684194,-40,1,226,0
684205,-48,13,226,0
684216,-52,5,228,0
684227,-48,-12,229,0
684238,-41,-25,235,0
684249,-35,-37,245,0
684260,-29,-45,262,0
684271,-13,-32,298,0
684282,10,-27,321,0
684293,54,-27,366,1
684304,106,-9,406,0
684315,142,14,422,0
684326,149,9,407,0
684337,120,4,357,0
684348,80,8,301,0
684359,38,4,248,0
684370,7,-2,207,0
684381,-3,-19,188,0
684392,-12,-22,182,0
684403,-5,-29,168,0
684414,2,-34,154,0
684425,17,-27,156,0
684436,41,-9,166,0
684447,50,-10,174,0
684458,55,-9,178,0
684469,61,-15,182,0
684480,81,-13,191,0
684491,98,-3,203,0
684502,102,2,220,0
684513,100,4,232,0
684524,94,4,233,0
684535,85,8,234,0
684546,78,15,228,0
684557,69,15,217,0
684568,63,18,213,0
684579,59,20,213,0
684590,61,26,214,0
684601,48,29,217,0
684612,39,29,224,0
684623,34,30,227,0
684634,30,31,226,0
684645,30,28,226,0
684656,29,27,223,0
684667,24,23,220,0
684678,22,18,222,0
684689,21,21,223,0
684700,22,16,215,0
684711,19,13,220,0
684722,21,14,222,0
684733,13,17,228,0
684744,16,20,232,0
684755,20,16,233,0
684766,14,14,227,0
684777,4,11,225,0
684788,-2,11,228,0
684799,-11,10,227,0
684810,-17,9,225,0
684821,-19,9,225,0
684832,-21,11,223,0
684843,-21,9,223,0
684854,-18,10,224,0
684865,-14,13,223,0
684876,-7,16,223,0
684887,-4,16,222,0
684898,-3,17,222,0
684909,-1,21,222,0
684920,0,23,222,0
684931,2,23,224,0
684942,2,21,227,0
684953,2,22,224,0
684964,0,20,224,0
684975,0,18,223,0
684986,1,17,227,0
684997,0,14,228,0
685008,-1,15,226,0
685019,-7,20,224,0
685030,-13,19,221,0
685041,-12,13,217,0
685052,1,9,216,0
685063,16,5,218,0
685074,25,0,232,0
685085,23,-6,248,0
685096,14,0,257,0
685107,3,3,262,0
685118,-2,6,271,1
685129,7,10,280,0
685140,32,26,288,0
685151,47,23,298,0
685162,60,11,312,0
685173,72,21,312,0
685184,85,39,300,0
685195,95,46,284,0
685206,96,33,255,0
685217,94,18,230,0
685228,87,7,208,0
685239,78,-2,188,0
685250,71,-13,169,0
685261,53,-23,161,0
685272,45,-17,176,0
685283,39,-4,201,0
685294,33,6,225,0
685305,26,14,247,0
685316,21,16,259,0
685327,23,15,265,0
685338,25,15,265,0
685349,29,15,261,0
685360,31,14,258,0
685371,26,9,253,0
685382,27,2,251,0
685393,26,-5,248,0
685404,26,-10,238,0
685415,28,-14,232,0
685426,35,-10,210,0
685437,38,-9,206,0
685448,40,-7,205,0
685459,41,-4,203,0
685470,37,-3,205,0
685481,32,-2,206,0
685492,24,-3,206,0
685503,14,-4,204,0
685514,5,-2,204,0
685525,0,-1,206,0
685536,-3,-8,204,0
685547,-3,-7,202,0
685558,-2,-11,195,0
685569,-1,-9,181,0
685580,-1,-9,177,0
685591,0,-9,191,0
685602,1,-11,200,0
685613,3,-7,207,0
685624,1,2,208,0
685635,-5,6,213,0
685646,-12,6,218,0
685657,-16,11,219,0
685668,-25,31,226,0
685679,-35,29,236,0
685690,-40,20,238,0
685701,-35,6,243,0
685712,-31,1,251,0
685723,-28,1,255,0
685734,-30,0,257,0
685745,-33,8,249,0
685756,-36,10,253,0
685767,-38,10,259,0
685778,-28,14,280,1
685789,3,22,313,0
685800,46,29,361,0
685811,66,36,375,0
685822,70,29,355,0
685833,99,17,325,0
685844,123,11,305,0
685855,130,-8,309,0
685866,130,-27,335,0
685877,112,-27,304,0
685888,77,-24,247,0
685899,59,-26,207,0
685910,48,-26,176,0
685921,48,-22,161,0
685932,51,-14,145,0
685943,56,-6,134,0
685954,62,-1,134,0
685965,64,3,143,0
685976,66,12,163,0
685987,76,20,187,0
685998,84,25,205,0
686009,86,21,218,0
686020,82,22,227,0
686031,82,19,224,0
686042,80,13,222,0
686053,75,9,220,0
686064,72,5,220,0
686075,70,5,219,0
686086,75,5,216,0
686097,75,5,214,0
686108,69,6,217,0
686119,65,4,219,0
686130,63,4,221,0
686141,63,6,220,0
686152,62,8,218,0
686163,55,8,216,0
686174,49,11,217,0
686185,42,15,215,0
686196,32,18,217,0
686207,26,21,215,0
686218,23,21,217,0
686229,20,23,220,0
686240,16,25,230,0
686251,17,26,234,0
686262,16,28,234,0
686273,14,21,232,0
686284,13,19,231,0
686295,13,15,231,0
686306,12,13,230,0
686317,10,10,228,0
686328,9,7,230,0
686339,7,7,229,0
686350,10,5,225,0
686361,11,6,226,0
686372,12,5,223,0
686383,14,4,222,0
686394,14,6,221,0
686405,20,9,221,0
686416,23,11,221,0
686427,23,11,218,0
686438,18,11,215,0
686449,15,5,214,0
686461,14,1,215,0
686471,12,0,218,0
686482,9,2,220,0
686493,5,6,223,0
686504,2,9,228,1
686515,-2,10,230,0
686526,-6,16,230,0
686537,-4,25,232,0
686548,0,27,235,0
686559,32,15,257,0
686570,33,2,272,0
686581,32,-6,271,0
686592,22,-3,278,0
686603,23,6,280,0
686614,26,28,279,0
686625,30,20,292,0
686637,46,8,305,0
686648,63,5,299,0
686659,76,10,287,0
686670,85,11,266,0
686681,96,6,240,0
686692,104,4,219,0
686703,108,4,202,0
686714,87,-1,181,0
686725,76,-9,180,0
686736,68,-11,184,0
686747,61,-6,192,0
686758,43,1,208,0
686769,24,8,230,0
686780,11,15,250,0
686791,2,23,270,0
686802,-1,23,275,0
686813,2,24,269,0
686824,5,19,258,0
686835,10,15,251,0
686846,17,11,241,0
686857,23,4,237,0
686868,27,-2,233,0
686879,45,-1,222,0
686890,53,-3,212,0
686901,62,-3,207,0
686912,64,-3,207,0
686923,66,-1,206,0
686935,66,-3,207,0
686945,63,-3,209,0
686956,56,-4,208,0
686967,48,-2,207,0
686978,40,-5,209,0
686989,32,-7,209,0
687000,25,-7,210,0
687011,18,-8,214,0
687022,13,-4,212,0
687033,8,-4,206,0
687044,-5,5,192,0
687055,-9,7,198,0
687066,-12,5,197,0
687077,-7,11,201,0
687088,-6,13,199,0
687099,-10,19,202,0
687110,-7,17,209,0
687121,-6,19,217,0
687132,-5,22,222,0
687143,-8,21,226,0
687154,-13,16,230,0
687165,-17,12,236,0
687176,-23,6,233,0
687187,-27,2,225,0
687198,-24,-4,225,0
687209,-18,-7,236,0
687220,-13,-6,248,0
687231,-8,-1,254,0
687242,-5,-1,252,0
687254,-4,2,254,0
687265,-9,6,253,0
687276,-19,11,254,0
687287,-28,14,261,0
687298,-23,17,275,0
687309,0,35,302,0
687320,40,50,334,0
687331,74,64,360,0
687342,98,59,374,1
687353,133,31,336,0
687364,126,12,314,0
687375,108,-18,283,0
687386,92,-50,267,0
687397,73,-49,258,0
687408,45,-31,225,0
687419,26,-29,185,0
687430,25,-39,160,0
687441,32,-42,158,0
687452,37,-29,159,0
687463,40,-14,160,0
687474,43,-7,157,0
687485,54,-2,159,0
687496,64,9,168,0
687507,75,21,184,0
687518,83,35,220,0
687529,82,32,225,0
687540,80,27,231,0
687551,87,21,233,0
687562,89,17,230,0
687573,90,16,223,0
687584,89,6,214,0
687595,84,-1,209,0
687606,78,1,213,0
687617,72,4,215,0
687628,70,8,220,0
687639,64,4,223,0
687650,57,4,221,0
687661,49,3,218,0
687672,42,4,219,0
687683,35,3,220,0
687694,32,2,212,0
687705,28,2,214,0
687716,26,3,216,0
687727,24,3,214,0
687738,23,9,215,0
687749,19,8,219,0
687760,19,9,222,0
687771,18,8,231,0
687782,17,12,233,0
687793,18,14,233,0
687804,23,12,232,0
687815,24,11,228,0
687826,24,13,223,0
687837,25,6,221,0
687848,26,8,219,0
687859,25,8,219,0
687870,26,7,220,0
687881,26,6,219,0
687892,28,3,223,0
687903,29,2,224,0
687914,32,1,227,0
687925,36,4,224,0
687936,38,2,221,0
687947,39,4,222,0
687958,39,10,222,0
687969,32,11,221,0
687980,26,16,227,0
687991,14,27,228,0
688002,5,25,233,0
688013,-7,21,225,0
688024,-15,15,218,0
688035,-10,9,219,0
688046,-3,9,219,0
688057,-1,9,221,0
688068,1,11,222,0
688079,5,12,226,0
688090,7,14,230,0
688101,6,15,232,0
688112,6,13,230,0
688123,3,11,224,0
688134,11,10,216,0
688145,26,18,212,1
688156,44,22,220,0
688167,56,-11,244,0
688178,44,-30,245,0
688189,31,-32,250,0
688200,18,-26,261,0
688211,16,-12,259,0
688222,32,12,257,0
688233,48,40,273,0
688244,60,55,289,0
688255,71,58,305,0
688266,84,48,316,0
688277,95,36,315,0
688288,101,15,303,1
688299,103,3,279,0
688310,94,-14,245,0
688321,86,-30,209,0
688332,65,-28,172,0
688343,56,-16,177,0
688354,52,-6,194,0
688365,49,-3,210,0
688376,47,3,229,0
688387,42,8,252,0
688398,38,8,267,0
688409,41,11,276,0
688420,44,18,283,0
688431,46,20,275,0
688442,45,19,265,0
688453,47,16,255,0
688464,53,14,242,0
688475,58,16,227,0
688486,62,14,221,0
688497,61,17,212,0
688508,62,15,210,0
688519,56,12,209,0
688530,51,14,216,0
688541,50,12,224,0
688552,53,11,224,0
688563,52,2,222,0
688574,50,1,222,0
688585,45,0,221,0
688596,38,2,225,0
688607,31,1,224,0
688618,25,4,224,0
688629,23,2,229,0
688640,25,1,235,0
688651,28,0,235,0
688662,26,1,235,0
688673,28,-1,230,0
688684,34,-6,225,0
688695,39,-3,218,0
688706,44,-11,222,0
688717,40,-5,221,0
688728,45,-11,222,0
688739,47,-12,225,0
688750,45,-18,230,0
688761,43,-13,221,0
688772,37,-12,221,0
688783,34,-13,218,0
688794,32,-9,217,0
688805,30,-12,221,0
688816,27,-16,229,0
688827,17,-4,212,0
688838,10,-6,213,0
688849,4,-2,221,0
688860,-3,-2,222,0
688871,-7,-1,219,0
688882,-12,-1,218,0
688893,-13,-1,219,0
688904,-12,-3,218,0
688915,-12,-4,222,0
688926,-1,-8,233,0
688937,-7,-3,239,0
688948,3,-14,227,0
688959,2,-11,223,0
688970,3,-8,222,0
688981,1,-10,220,0
688992,-6,-9,210,0
689003,-8,-8,210,0
689014,-7,-8,210,0
689025,-2,-4,216,0
689036,-2,-2,219,0
689047,-3,-1,216,0
689058,1,-1,212,0
689069,2,-1,205,0
689081,3,2,194,0
689091,2,0,192,0
689102,1,-3,190,0
689113,-1,-1,186,0
689124,-2,9,193,0
689135,0,9,209,0
689146,3,7,221,0
689157,10,4,198,0
689168,17,8,191,0
689179,30,5,186,0
689190,44,5,188,0
689201,51,3,184,0
689213,63,-1,181,1
689224,82,-8,181,0
689235,107,-7,186,0
689246,133,0,186,0
689257,157,5,201,0
689268,172,15,215,0
689279,172,28,225,0
689290,160,42,234,0
689301,124,40,233,0
689312,109,37,224,0
689323,109,45,213,0
689334,133,38,215,0
689345,158,49,250,0
689356,173,54,278,0
689367,160,34,266,0
689378,130,20,242,0
689389,97,10,225,0
689400,74,13,225,0
689411,74,12,237,0
689422,97,4,242,0
689433,127,4,251,0
689444,140,-4,235,0
689455,132,8,215,0
689466,75,13,192,0
689477,63,36,210,0
689488,52,50,216,0
689499,46,47,218,0
689510,43,45,219,0
689521,42,39,228,0
689532,37,19,231,0
689543,35,8,219,0
689554,32,3,207,0
689565,22,0,192,0
689576,43,12,191,0
689587,68,23,195,0
689598,90,25,204,0
689609,117,24,214,0
689620,135,24,215,0
689631,127,2,180,0
689642,108,4,170,0
689653,89,16,180,0
689664,71,29,195,0
689675,60,30,209,0
689686,60,26,211,0
689697,62,16,217,0
689708,64,1,222,0
689719,72,5,227,0
689730,74,-2,200,0
689741,80,-1,196,0
689752,87,7,195,0
689763,92,13,206,0
689774,102,22,218,0
689785,95,30,209,0
689796,65,34,199,0
689808,59,24,193,0
689819,58,12,185,0
689830,59,2,182,0
689841,79,-2,192,0
689852,105,-11,209,0
689863,125,-10,223,0
689874,131,-10,228,0
689885,131,-10,229,0
689896,127,-8,233,0
689907,114,-6,236,0
689918,99,-4,234,0
689929,89,0,228,0
689940,71,-12,223,0
689951,79,-7,219,0
689962,88,-5,206,0
689973,94,0,201,0
689984,97,4,202,0
689995,91,5,204,0
690006,74,14,200,0
690017,57,13,192,0
690028,45,6,188,0
690039,40,5,186,0
690050,40,2,186,0
690061,45,-1,190,0
690072,56,-6,190,0
690083,64,-11,191,0
690094,65,-9,198,0
690105,58,-6,203,0
690116,51,-12,209,0
690127,47,-14,209,0
690138,38,-14,212,0
690149,45,-9,224,0
690160,53,-19,245,0
690171,59,-20,270,0
690182,53,-12,299,0
690193,31,-13,326,0
690204,-3,-15,353,0
690215,-21,-9,381,0
690226,-25,-15,363,0
690237,-29,-19,355,0
690248,-32,-15,347,0
690259,-45,-16,328,0
690270,-46,-12,277,0
690281,-31,-9,251,0
690292,-21,-4,224,0
690303,-26,-3,209,0
690314,-36,0,210,0
690326,-45,0,217,0
690337,-51,1,227,0
690348,-57,2,236,0
690359,-56,1,241,0
690370,-54,0,240,0
690381,-50,0,235,0
690393,-43,-1,233,0
690404,-44,1,226,0
690415,-44,4,223,0
690426,-46,12,224,0
690437,-50,18,225,0
690448,-53,19,229,0
690459,-59,19,234,0
690470,-61,17,231,0
690481,-60,14,228,0
690492,-57,11,227,0
690503,-58,8,229,0
690514,-60,9,229,0
690525,-63,12,233,0
690536,-67,10,233,0
690547,-71,13,233,0
690558,-76,13,235,0
690569,-87,11,225,0
690580,-91,12,218,0
690591,-93,18,215,0
690602,-94,25,214,0
690613,-97,30,216,0
690624,-101,32,215,0
690636,-105,31,214,0
690647,-106,29,214,0
690658,-106,28,211,0
690669,-108,26,211,0
690680,-108,27,211,0
690691,-108,28,209,0
690702,-109,28,206,0
690713,-109,22,201,0
690724,-110,22,202,0
690735,-112,16,200,0
690746,-118,22,205,0
690757,-122,26,205,0
690768,-124,29,206,0
690779,-127,35,205,0
690790,-131,36,205,0
690801,-133,43,208,0
690812,-135,43,206,0
690823,-136,40,205,0
690834,-131,37,204,0
690845,-129,36,204,0
690856,-126,35,205,0
690867,-123,33,204,0
690878,-125,35,198,0
690889,-125,33,198,0
690900,-125,37,202,0
690911,-123,38,207,0
690922,-121,40,208,0
690933,-117,40,208,0
690944,-116,38,208,0
690955,-115,36,205,0
690966,-114,35,203,0
690977,-113,32,203,0
690988,-111,33,201,0
690999,-110,33,199,0
691010,-111,35,199,0
691021,-111,38,201,0
691032,-113,41,202,0
691043,-113,41,200,0
691054,-114,39,199,0
691065,-113,39,197,0
691076,-112,41,197,0
691087,-110,43,197,0
691098,-110,42,197,0
691109,-105,41,196,0
691120,-104,40,194,0
691131,-105,40,193,0
691142,-105,39,193,0
691153,-104,39,192,0
691164,-103,40,194,0
691175,-104,42,196,0
691186,-107,44,198,0
691197,-110,44,197,0
691208,-113,39,195,0
691219,-115,39,194,0
691230,-116,39,194,0
691241,-115,40,197,0
691252,-114,40,200,0
691263,-116,41,201,0
691274,-118,41,201,0
691285,-118,43,200,0
691296,-119,43,200,0
691307,-121,43,198,0
691318,-123,46,199,0
691329,-123,46,200,0
691340,-124,47,200,0
691351,-123,47,202,0
691362,-123,47,200,0
691373,-127,47,195,0
691384,-127,47,194,0
691395,-127,48,194,0
691406,-128,50,194,0
691417,-126,51,192,0
691428,-123,49,194,0
691439,-123,49,194,0
691450,-125,49,197,0
691461,-119,49,199,0
691472,-116,50,202,0
691483,-117,50,200,0
691494,-116,49,199,0
691505,-115,49,197,0
691516,-115,50,194,0
691527,-116,48,193,0
691538,-117,52,190,0
691549,-117,55,192,0
691560,-117,58,192,0
691571,-118,55,194,0
691582,-116,55,196,0
691593,-113,53,202,0
691604,-110,51,202,0
691615,-109,55,203,0
691626,-111,59,201,0
691637,-114,62,200,0
691648,-117,61,200,0
691659,-117,61,196,0
691670,-117,60,194,0
691681,-119,60,191,0
691692,-120,58,188,0
691703,-116,62,186,0
691714,-115,65,190,0
691725,-110,67,195,0
691736,-104,70,204,0
691747,-100,69,215,0
691758,-96,66,218,0
691769,-92,63,215,0
691780,-91,62,207,0
691791,-94,63,201,0
691802,-98,62,194,0
691813,-103,64,193,0
691824,-105,63,193,0
691835,-105,63,194,0
691846,-106,63,196,0
691857,-108,62,197,0
691868,-111,57,197,0
691879,-115,53,195,0
691890,-120,53,192,0
691901,-124,55,189,0
691912,-124,55,190,0
691923,-122,55,191,0
691934,-121,55,194,0
691945,-120,52,195,0
691956,-118,52,193,0
691967,-116,52,195,0
691978,-114,51,194,0
691989,-120,53,194,0
692000,-125,56,193,0
692011,-131,58,192,0
692022,-137,60,191,0
692033,-148,63,190,0
692044,-152,63,189,0
692055,-156,63,191,0
692066,-160,62,190,0
692077,-156,58,188,0
692088,-150,51,185,0
692099,-149,55,184,0
692110,-150,56,185,0
692121,-150,56,188,0
692132,-149,55,190,0
692143,-149,54,190,0
692154,-150,57,192,0
692165,-152,61,194,0
692176,-149,58,194,0
692187,-145,54,195,0
692198,-144,48,201,0
692209,-143,36,202,0
692220,-140,30,207,0
692231,-136,32,204,0
692242,-138,24,207,0
692253,-133,22,201,0
692264,-129,24,200,0
692275,-128,30,192,0
692286,-129,33,193,0
692297,-127,34,193,0
692308,-120,35,191,0
692319,-123,32,193,0
692330,-125,26,200,0
692341,-128,29,205,0
692352,-133,30,199,0
692363,-121,20,172,0
692374,-109,20,168,0
692385,-98,21,166,0
692396,-87,22,169,0
692407,-80,18,172,0
692418,-77,14,177,0
692429,-77,11,185,0
692440,-70,13,190,0
692451,-80,12,193,0
692462,-97,16,201,0
692473,-97,15,203,0
692484,-95,10,198,0
692495,-95,7,200,0
692506,-90,7,198,0
692517,-87,8,198,0
692528,-97,21,213,0
692539,-100,27,214,0
692550,-105,34,224,0
692561,-102,29,220,0
692572,-104,20,215,0
692583,-91,15,215,0
692594,-87,9,203,0
692605,-84,5,193,0
692616,-90,6,193,0
692627,-90,11,192,0
692638,-98,13,199,0
692649,-109,12,205,0
692660,-118,16,211,0
692671,-113,12,202,0
692682,-121,15,205,0
692693,-112,16,212,0
692704,-106,15,213,0
692715,-107,13,212,0
692726,-106,11,210,0
692737,-111,20,215,0
