timestamp,accX,accY,accZ,step
852771,30,-19,222,0
852781,29,-18,222,0
852793,29,-18,220,0
852803,27,-17,225,0
852814,26,-19,227,0
852824,28,-20,228,0
852834,31,-21,231,0
852845,33,-22,232,0
852856,33,-21,234,0
852867,35,-20,231,0
852878,36,-19,232,0
852889,36,-20,231,0
852900,36,-17,237,0
852912,36,-20,233,0
852922,34,-20,230,0
852933,33,-20,225,0
852944,34,-19,224,0
852955,31,-19,223,0
852966,29,-12,234,0
852978,28,-21,222,0
852988,30,-10,236,0
852999,25,-14,235,0
853010,24,-15,234,0
853021,26,-17,232,0
853032,28,-15,232,0
853043,30,-17,229,0
853054,32,-18,226,0
853065,31,-17,226,0
853076,31,-19,225,0
853087,33,-21,226,0
853098,35,-20,226,0
853109,35,-19,226,0
853120,36,-20,227,0
853131,35,-20,228,0
853142,34,-19,226,0
853153,34,-19,229,0
853164,32,-19,231,0
853175,32,-19,232,0
853186,30,-19,235,0
853197,29,-19,234,0
853208,27,-19,232,0
853219,25,-21,229,0
853230,22,-25,228,0
853241,20,-22,226,0
853253,17,-21,226,0
853263,16,-20,228,0
853274,15,-19,230,0
853286,15,-22,232,0
853296,16,-22,234,0
853307,16,-23,233,0
853318,15,-23,231,0
853329,15,-24,226,0
853340,16,-24,227,0
853351,18,-25,230,0
853362,18,-24,232,0
853373,20,-24,238,0
853384,19,-20,238,0
853395,19,-19,237,0
853406,20,-20,233,0
853417,19,-17,230,0
853428,19,-18,227,0
853439,20,-19,227,0
853450,20,-19,226,0
853461,21,-19,227,0
853472,21,-18,224,0
853483,21,-19,221,0
853494,23,-24,217,0
853505,26,-24,215,0
853516,30,-24,218,0
853528,33,-25,219,0
853538,35,-26,220,0
853549,37,-23,220,0
853560,37,-23,218,0
853571,35,-23,219,0
853582,32,-28,224,0
853593,33,-31,229,0
853604,37,-30,230,0
853615,38,-27,233,0
853626,36,-25,236,0
853637,39,-26,236,0
853648,43,-17,229,0
853659,39,-16,228,0
853670,39,-22,226,0
853681,38,-11,232,0
853693,37,-5,229,0
853703,35,-11,228,0
853714,32,-12,224,0
853725,34,-14,222,0
853736,31,-18,219,0
853747,29,-18,222,0
853758,26,-19,222,0
853769,23,-16,225,0
853780,25,-15,227,0
853792,26,-11,229,0
853803,30,-11,231,0
853813,30,-11,232,0
853824,30,-11,232,0
853835,31,-3,229,0
853846,31,-2,232,0
853857,35,-2,233,0
853868,37,0,232,0
853879,37,0,230,0
853891,39,1,228,0
853901,42,2,231,0
853912,45,2,230,0
853923,41,1,228,0
853934,40,-2,228,0
853945,40,-1,229,0
853956,40,0,229,0
853967,37,0,226,0
853978,33,-1,226,0
853989,26,-3,223,0
854000,13,-4,224,0
854011,6,-1,228,0
854022,2,-1,230,0
854033,0,0,230,0
854044,-5,0,230,0
854055,-7,-1,231,0
854066,-5,-3,230,0
854078,-4,-1,230,0
854088,-4,0,230,0
854099,-1,-2,229,0
854110,0,-2,232,0
854121,0,-3,230,0
854132,-1,-4,230,0
854143,0,-5,230,0
854154,-2,-2,228,0
854165,-1,-1,227,0
854176,-2,-1,224,0
854187,-4,1,225,0
854198,-8,0,225,0
854209,-8,0,223,0
854220,-11,1,221,0
854231,-12,3,223,0
854242,-11,1,222,0
854253,-13,4,222,0
854265,-14,6,225,0
854275,-15,8,228,0
854286,-16,9,227,0
854297,-13,8,229,0
854308,-9,6,231,0
854319,-3,5,228,0
854330,-1,3,228,0
854342,-1,8,231,0
854352,-4,7,234,0
854363,-11,13,237,0
854375,-16,20,236,1
854386,-9,28,234,0
854396,-7,19,256,0
854407,-12,0,271,0
854418,-22,2,265,0
854429,-37,8,264,0
854440,-44,19,272,0
854451,-44,22,294,0
854462,-31,19,311,0
854473,-18,23,323,0
854484,0,30,329,0
854495,34,42,319,0
854506,50,40,306,0
854517,63,34,288,0
854528,77,21,259,0
854539,91,7,225,0
854550,103,-5,189,0
854561,102,-10,159,0
854572,105,-19,147,0
854583,98,-18,139,0
854594,87,-17,138,0
854605,83,-10,144,0
854616,82,-3,158,0
854627,77,-1,182,0
854638,74,1,194,0
854649,69,7,211,0
854660,48,21,250,0
854671,38,27,262,0
854682,30,24,261,0
854693,26,19,263,0
854704,23,14,261,0
854715,25,12,256,0
854726,29,8,250,0
854737,30,4,237,0
854748,31,-1,216,0
854759,35,-2,209,0
854770,38,-4,204,0
854781,44,-3,206,0
854793,45,1,212,0
854803,41,3,220,0
854814,34,8,226,0
854825,22,7,224,0
854836,21,2,217,0
854847,17,1,207,0
854858,14,0,206,0
854869,11,-1,202,0
854881,6,-4,198,0
854892,1,-6,196,0
854902,-2,-9,194,0
854913,-7,-9,194,0
854924,-11,-13,194,0
854935,-16,-12,196,0
854946,-21,-8,204,0
854957,-21,-10,210,0
854968,-17,-8,217,0
854979,-14,-7,223,0
854991,-2,-1,234,0
855001,-9,8,234,0
855012,-16,5,239,0
855024,-18,5,244,0
855034,-20,9,243,0
855045,-22,8,239,0
855056,-27,4,243,0
855067,-27,1,246,0
855078,-25,2,245,0
855089,-28,5,247,0
855100,-7,-12,264,0
855112,65,-24,373,1
855123,85,50,422,0
855134,86,0,390,0
855145,67,22,334,0
855156,73,-1,344,0
855167,69,-11,314,0
855178,36,-21,259,0
855189,19,-43,219,0
855201,15,-50,192,0
855211,20,-47,168,0
855222,29,-42,155,0
855233,34,-46,142,0
855244,36,-46,137,0
855255,28,-43,137,0
855266,25,-41,146,0
855277,35,-37,161,0
855289,61,-29,177,0
855299,107,-22,200,0
855310,115,-22,203,0
855321,116,-16,212,0
855332,109,-12,212,0
855343,97,-6,214,0
855354,80,-4,216,0
855365,64,-1,218,0
855376,51,-2,210,0
855387,42,-3,207,0
855398,36,-1,208,0
855409,36,-5,206,0
855420,33,-7,204,0
855431,33,-9,210,0
855442,33,-14,213,0
855453,27,-14,214,0
855464,20,-13,212,0
855475,16,-11,208,0
855487,19,-10,210,0
855498,17,-7,214,0
855509,16,-4,223,0
855520,17,-1,230,0
855531,15,3,241,0
855542,15,5,245,0
855553,16,5,240,0
855564,12,6,238,0
855575,4,7,237,0
855586,0,2,231,0
855597,-3,0,224,0
855608,-2,-1,218,0
855619,-5,-8,212,0
855630,-5,-10,212,0
855641,-4,-8,213,0
855653,-4,-12,215,0
855663,-2,-14,215,0
855674,0,-15,217,0
855686,2,-8,221,0
855696,6,-1,224,0
855707,5,5,228,0
855718,1,10,230,0
855729,-12,12,227,0
855740,-25,12,226,0
855751,-21,13,217,0
855762,-12,7,232,0
855774,-31,-44,260,1
855784,-63,-24,271,0
855795,-67,-11,286,0
855806,-60,-9,308,0
855817,-36,-23,332,0
855828,-2,-25,350,0
855839,46,-4,355,0
855850,90,31,348,0
855861,123,45,322,0
855872,140,36,290,0
855883,156,21,251,0
855894,163,21,214,0
855905,162,12,185,0
855917,150,0,159,0
855928,137,-8,145,1
855938,118,-12,141,0
855949,61,0,173,0
855960,36,-1,190,0
855971,12,1,205,0
855982,-5,7,225,0
855993,-17,8,242,0
856004,-16,6,253,0
856015,-2,1,254,0
856026,12,-2,249,0
856038,24,-2,243,0
856048,30,-4,227,0
856059,34,-2,224,0
856070,39,0,224,0
856081,46,2,225,0
856093,46,1,206,0
856104,44,1,200,0
856115,37,3,204,0
856126,27,1,205,0
856137,20,-1,205,0
856149,12,-4,209,0
856159,2,-8,210,0
856170,-3,-10,211,0
856181,-6,-15,208,0
856193,-6,-18,206,0
856203,-8,-19,201,0
856214,-9,-19,199,0
856225,-12,-15,197,0
856236,-17,-16,198,0
856247,-16,-16,200,0
856258,-16,-17,198,0
856269,-11,-11,193,0
856280,-6,-8,202,0
856292,0,-7,217,0
856302,10,-11,235,0
856313,14,2,240,0
856324,7,11,245,0
856335,-2,12,263,0
856346,-8,11,273,0
856357,-13,6,269,0
856368,-20,3,261,0
856379,-24,3,257,0
856391,-30,6,266,0
856401,-37,0,270,0
856412,-27,-13,274,0
856423,46,-24,365,0
856434,66,23,401,0
856445,70,-32,352,0
856456,80,-15,310,0
856468,107,-16,344,1
856478,91,-6,317,0
856489,68,-2,239,0
856500,52,-2,188,0
856511,23,-130,247,0
856522,64,-55,155,0
856533,65,-16,171,0
856544,73,-49,138,0
856555,66,-31,138,0
856566,62,-34,150,0
856578,49,-23,164,0
856588,35,-16,175,0
856599,54,-13,199,0
856610,71,-19,212,0
856621,86,-25,217,0
856632,100,-25,217,0
856643,100,-26,213,0
856654,93,-16,211,0
856665,87,-16,203,0
856676,78,-12,199,0
856687,71,-5,201,0
856698,61,-6,203,0
856709,46,-1,205,0
856720,41,2,211,0
856731,39,9,215,0
856742,32,5,217,0
856753,27,1,217,0
856764,24,-8,219,0
856775,18,-7,214,0
856786,14,-5,210,0
856798,9,-5,211,0
856808,7,-6,213,0
856819,5,-3,218,0
856830,1,-2,226,0
856841,-1,1,232,0
856852,-7,2,235,0
856863,-10,4,234,0
856874,-12,3,232,0
856886,-11,0,228,0
856896,-8,0,227,0
856907,-3,-1,226,0
856918,2,2,226,0
856929,0,9,219,0
856940,0,3,214,0
856951,-2,-2,208,0
856962,-6,-8,205,0
856973,-15,-6,207,0
856984,-21,-1,211,0
856995,-21,3,226,0
857006,-16,5,236,0
857017,-15,10,251,0
857028,-19,12,251,0
857039,-7,25,243,0
857050,15,25,256,0
857062,20,-22,307,1
857072,15,-60,317,0
857083,0,-48,312,0
857094,-17,-23,338,0
857105,-7,2,336,0
857116,9,16,320,0
857128,40,27,306,0
857138,60,37,282,0
857149,73,38,249,0
857160,88,24,218,0
857171,106,7,179,0
857182,119,0,146,0
857193,121,-2,128,0
857204,112,-5,111,0
857215,98,-6,118,0
857226,78,-5,134,0
857237,61,1,152,0
857248,41,8,173,0
857259,15,27,227,0
857270,11,29,257,0
857281,22,29,281,0
857293,33,22,293,0
857303,33,14,284,0
857314,33,4,272,0
857325,31,-1,261,0
857337,29,-4,252,0
857347,26,-2,238,0
857358,25,0,235,0
857369,25,1,228,0
857381,28,3,222,0
857392,31,3,223,0
857403,36,3,225,0
857413,38,0,221,0
857424,37,-8,217,0
857435,34,-17,222,0
857446,22,-25,217,0
857457,17,-19,217,0
857468,9,-13,211,0
857479,3,-15,209,0
857491,2,-14,211,0
857501,1,-13,198,0
857512,0,-3,185,0
857523,0,4,180,0
857534,0,-1,177,0
857545,5,-2,178,0
857556,5,2,184,0
857567,-1,9,190,0
857578,-11,11,204,0
857589,-18,10,222,0
857600,-23,24,251,0
857611,-19,21,262,0
857622,-14,16,266,0
857633,-10,22,263,0
857644,-2,5,276,0
857655,-3,9,275,0
857666,-5,17,276,0
857678,0,22,271,0
857688,43,37,320,0
857700,45,69,364,1
857710,25,65,348,0
857721,36,16,310,0
857732,39,-3,251,0
857743,51,-1,248,0
857754,63,-20,316,0
857765,54,-12,271,0
857776,54,-35,229,0
857787,57,-53,194,0
857798,51,-62,164,0
857809,48,-67,146,0
857820,41,-64,146,0
857831,38,-53,159,0
857842,41,-33,172,0
857853,49,-23,185,0
857864,49,-13,189,0
857875,57,-3,196,0
857887,69,9,210,0
857897,83,13,224,0
857908,86,8,229,0
857919,82,3,223,0
857930,59,2,217,0
857941,51,2,214,0
857953,47,2,209,0
857963,40,1,205,0
857974,33,0,206,0
857986,22,0,211,0
857996,15,1,220,0
858007,8,-2,223,0
858018,3,-4,224,0
858029,-4,-3,223,0
858040,-10,-1,219,0
858051,-11,0,218,0
858062,-8,-1,217,0
858073,-8,-2,219,0
858084,-5,-1,222,0
858095,4,3,225,0
858106,4,4,229,0
858117,7,5,231,0
858128,8,5,235,0
858139,8,4,235,0
858150,10,7,234,0
858161,9,6,229,0
858172,8,6,223,0
858183,11,6,220,0
858194,12,3,217,0
858205,15,3,217,0
858216,16,4,218,0
858228,17,4,220,0
858238,18,-1,224,0
858249,22,-5,225,0
858260,24,-1,230,0
858271,24,1,231,0
858282,25,9,234,0
858293,24,16,237,0
858304,19,16,237,0
858315,12,16,237,0
858326,5,19,233,0
858337,0,26,231,0
858348,-14,30,234,0
858359,-25,31,236,0
858371,-16,34,225,1
858381,3,50,253,0
858393,1,11,290,0
858403,-2,-9,288,0
858414,-26,0,282,0
858425,-38,8,281,0
858436,-29,4,298,0
858447,-4,-1,306,0
858458,22,-3,293,0
858469,44,6,276,0
858480,68,22,262,0
858493,97,32,249,0
858503,126,25,241,0
858514,147,13,218,0
858525,161,2,195,0
858536,163,-8,176,0
858547,158,-11,167,0
858558,144,-13,167,0
858569,127,-17,167,0
858580,90,-13,178,0
858592,66,-10,198,0
858603,45,-1,225,0
858613,24,3,247,0
858624,14,9,267,0
858635,7,18,281,0
858646,7,18,268,0
858657,12,9,250,0
858668,16,7,240,0
858679,21,11,241,0
858691,24,11,239,0
858701,31,16,237,0
858712,33,14,229,0
858723,36,8,224,0
858734,39,5,220,0
858745,37,9,219,0
858756,33,14,221,0
858767,28,13,219,0
858778,26,12,215,0
858789,24,8,214,0
858800,23,7,211,0
858811,20,10,214,0
858822,18,8,212,0
858833,11,5,206,0
858844,6,-2,200,0
858855,4,-1,205,0
858866,1,-4,206,0
858878,0,2,214,0
858888,1,4,221,0
858899,19,14,215,0
858911,22,41,200,0
858921,14,28,203,0
858932,23,26,210,0
858943,18,22,216,0
858954,9,17,216,0
858965,-1,17,219,0
858976,-13,13,232,0
858987,-21,14,242,0
858998,-28,12,246,0
859009,-32,7,249,0
859020,-33,7,243,0
859032,-42,9,245,0
859042,-38,10,252,0
859053,-7,12,273,0
859065,31,33,338,1
859075,47,32,394,0
859086,63,23,370,0
859097,68,-1,360,0
859108,66,-9,366,0
859119,49,0,321,0
859130,39,-19,259,0
859141,12,-33,207,0
859153,4,-57,179,0
859163,9,-63,157,0
859174,17,-64,143,0
859186,29,-62,144,0
859196,37,-40,155,0
859207,47,-20,165,0
859218,54,-3,174,0
859229,57,2,186,0
859240,64,10,209,0
859251,68,12,215,0
859262,72,4,219,0
859273,77,0,218,0
859284,77,-9,219,0
859295,75,-19,214,0
859306,71,-23,211,0
859317,65,-22,206,0
859330,48,-23,201,0
859340,31,-16,202,0
859351,24,-9,211,0
859362,19,-4,215,0
859373,18,-2,220,0
859385,14,0,221,0
859395,14,0,221,0
859406,15,-2,221,0
859417,15,-5,218,0
859428,15,-8,211,0
859439,16,-5,208,0
859450,17,-6,204,0
859461,22,-6,204,0
859472,24,-4,208,0
859483,21,-2,208,0
859494,22,-2,215,0
859505,22,2,222,0
859518,18,5,228,0
859528,13,10,235,0
859539,11,13,235,0
859550,4,15,237,0
859561,3,13,232,0
859572,5,11,229,0
859583,7,6,224,0
859594,14,-1,220,0
859605,19,-3,218,0
859616,26,-7,217,0
859628,32,-13,216,0
859638,38,-16,216,0
859649,38,-14,222,0
859660,39,-6,225,0
859671,34,1,233,0
859682,27,7,238,0
859693,18,11,238,0
859704,6,15,234,0
859715,-21,21,229,0
859726,-37,22,229,0
859738,-45,23,231,1
859748,-34,25,226,0
859759,-11,33,249,0
859770,-18,-4,289,0
859781,-17,-3,290,0
859793,-24,3,282,0
859803,-14,21,284,0
859814,-11,34,305,0
859825,-3,-3,324,0
859836,8,-25,322,0
859847,28,-7,320,0
859858,64,6,307,0
859869,97,8,273,0
859880,143,0,216,0
859892,156,-5,192,0
859903,156,-6,177,0
859913,147,-5,168,0
859924,135,-5,169,0
859935,119,-10,178,0
859946,99,-6,182,0
859957,74,0,190,0
859968,49,0,203,0
859979,30,1,221,0
859991,9,4,237,0
860001,-9,8,253,0
860012,-21,8,268,0
860023,-20,2,273,0
860034,-18,2,267,0
860045,-5,3,247,0
860056,2,5,238,0
860067,6,4,230,0
860078,11,3,224,0
860089,20,3,212,0
860100,28,3,216,0
860111,35,-5,214,0
860122,42,-2,214,0
860133,48,-2,213,0
860144,48,-1,207,0
860155,45,0,201,0
860166,43,2,206,0
860178,35,0,209,0
860188,27,-1,210,0
860199,22,0,211,0
860210,10,-2,202,0
860221,4,-5,202,0
860232,2,-8,201,0
860243,0,-7,199,0
860254,-1,-7,198,0
860266,-6,-3,201,0
860278,-8,-4,204,0
860288,-10,5,204,0
860299,-17,10,209,0
860310,-21,15,214,0
860321,-27,27,224,0
860332,-35,30,237,0
860343,-39,21,245,0
860354,-40,9,247,0
860365,-30,-3,249,0
860376,-28,-9,253,0
860387,-23,-10,255,0
860398,-23,-4,251,0
860411,-23,-1,247,1
860421,-14,-11,255,0
860432,39,-26,316,0
860443,74,38,389,0
860454,58,51,372,0
860465,76,-16,369,0
860476,82,-7,335,0
860487,76,-3,329,0
860498,89,-2,365,0
860509,32,-8,252,0
860520,26,-48,195,0
860531,-3,-54,160,0
860542,-4,-57,146,0
860553,15,-51,136,0
860564,25,-50,144,0
860575,42,-37,154,0
860586,48,-25,160,0
860597,54,-9,169,0
860608,60,-1,186,0
860619,66,5,205,0
860630,69,7,221,0
860641,64,9,230,0
860653,62,3,229,0
860663,61,-3,222,0
860674,61,-16,204,0
860686,62,-21,202,0
860696,54,-19,205,0
860707,46,-12,208,0
860719,39,-7,212,0
860730,31,-8,215,0
860741,31,-6,221,0
860753,30,-7,224,0
860763,28,-5,227,0
860774,27,-6,226,0
860786,28,-9,220,0
860796,27,-9,214,0
860807,24,-10,211,0
860818,22,-8,212,0
860829,25,-11,205,0
860840,23,-9,205,0
860851,21,-6,208,0
860862,13,-3,212,0
860874,8,-1,217,0
860886,0,1,223,0
860896,0,3,230,0
860907,-1,8,236,0
860918,-3,13,241,0
860929,-3,14,243,0
860940,-3,10,237,0
860951,0,6,229,0
860962,2,5,224,0
860973,9,-3,219,0
860984,13,-11,217,0
860995,14,-10,216,0
861006,23,-12,219,0
861017,27,-11,223,0
861028,28,-8,224,0
861039,29,-1,229,0
861050,27,2,237,0
861061,23,12,236,0
861072,16,18,237,0
861083,8,17,234,0
861094,0,19,230,0
861105,-11,26,232,0
861117,-22,23,227,1
861128,-30,20,220,0
861138,-9,-3,241,0
861149,-23,-44,270,0
861161,-10,-14,263,0
861171,-16,10,263,0
861182,-11,11,278,0
861193,-10,6,290,0
861204,-5,-11,296,0
861215,1,-15,293,0
861226,5,-2,293,0
861237,19,1,302,0
861248,45,6,302,0
861259,67,12,286,0
861270,87,16,268,0
861281,103,10,244,0
861293,114,3,214,0
861303,117,-18,160,0
861314,106,-30,141,0
861325,95,-42,135,0
861336,85,-45,139,0
861347,73,-35,157,0
861358,57,-26,173,0
861369,41,-15,193,0
861380,24,-8,221,0
861392,9,1,248,0
861403,-4,13,269,0
861413,-19,26,290,0
861424,-22,21,301,0
861435,-31,28,300,0
861446,-25,20,297,0
861457,-21,13,279,0
861468,-9,11,247,0
861479,-1,9,228,0
861491,6,7,214,0
861501,17,2,204,0
861512,32,4,198,0
861523,39,7,199,0
861534,47,3,199,0
861545,51,0,198,0
861556,46,0,196,0
861567,43,-2,195,0
861578,35,-7,200,0
861589,27,-9,205,0
861600,23,-13,206,0
861611,15,-8,208,0
861622,5,-4,215,0
861633,1,-17,223,0
861644,-1,-16,221,0
861655,-9,-10,216,0
861666,-18,-15,215,0
861678,-20,-10,218,0
861688,-23,-7,217,0
861699,-32,-1,215,0
861710,-33,12,222,0
861721,-34,22,223,0
861732,-36,26,224,0
861743,-35,20,232,0
861754,-28,10,225,0
861765,-21,4,220,0
861776,-16,-6,234,0
861788,14,-27,263,0
861800,28,-17,277,1
861810,63,4,308,0
861821,84,52,353,0
861832,75,54,347,0
861843,89,40,351,0
861854,89,37,327,0
861865,91,30,301,0
861876,95,43,317,0
861887,71,68,292,0
861898,63,56,237,0
861909,46,-19,175,0
861920,32,-27,144,0
861931,25,-46,145,0
861943,13,-23,150,0
861954,8,-16,168,0
861965,16,-9,186,0
861976,25,16,192,0
861987,34,36,211,0
861998,41,43,223,0
862009,50,46,238,0
862021,59,53,244,0
862032,66,59,244,0
862043,75,62,243,0
862054,81,65,233,0
862065,71,61,227,0
862076,62,51,217,0
862087,46,45,203,0
862098,38,41,203,0
862109,31,41,209,0
862120,25,45,209,0
862131,26,47,212,0
862142,33,47,216,0
862153,41,45,221,0
862164,51,44,221,0
862175,61,47,222,0
862186,64,46,223,0
862197,65,48,224,0
862208,64,46,226,0
862219,62,47,225,0
862230,61,44,224,0
862241,58,44,221,0
862253,54,36,219,0
862263,54,36,216,0
862274,56,36,214,0
862286,58,38,215,0
862296,56,37,218,0
862307,54,38,218,0
862318,56,37,221,0
862329,52,39,222,0
862341,49,39,220,0
862351,48,36,221,0
862362,44,36,224,0
862373,41,33,227,0
862384,41,32,228,0
862395,42,37,227,0
862406,43,38,229,0
862417,54,37,230,0
862428,59,36,234,0
862439,62,36,233,0
862450,61,37,234,0
862461,58,37,234,0
862472,56,40,231,0
862483,48,37,232,0
862494,40,36,229,0
862505,31,38,225,0
862516,21,38,227,0
862528,14,39,226,0
862539,7,37,228,1
862549,1,32,227,0
862560,-2,29,229,0
862571,-5,27,230,0
862582,8,46,225,0
862593,33,67,233,0
862604,49,59,265,0
862615,43,21,288,0
862626,28,4,290,0
862637,6,7,288,0
862648,-2,18,289,0
862659,0,37,282,0
862670,12,46,273,0
862681,24,50,266,0
862693,38,55,251,0
862703,54,49,233,0
862714,67,38,210,0
862725,83,22,190,0
862736,98,9,166,0
862747,113,-12,132,0
862758,108,-18,130,0
862769,90,-20,132,0
862780,68,-16,148,0
862792,48,1,176,0
862803,34,23,213,0
862813,19,37,248,0
862824,2,41,277,0
862835,-1,58,302,0
862846,17,46,318,0
862857,30,34,318,0
862868,28,41,327,0
862879,30,29,295,0
862891,38,28,272,0
862901,53,24,251,0
862912,64,8,212,0
862923,61,3,209,0
862934,52,6,209,0
862945,38,4,204,0
862956,31,4,207,0
862967,27,4,207,0
862978,27,7,210,0
862989,25,13,214,0
863000,30,17,219,0
863011,33,26,224,0
863022,32,23,228,0
863033,33,22,237,0
863044,32,19,241,0
863055,29,18,239,0
863066,25,17,236,0
863078,22,13,225,0
863088,23,12,219,0
863099,21,13,215,0
863110,21,12,210,0
863121,24,13,209,0
863132,25,12,209,0
863143,36,20,212,0
863154,36,34,210,0
863165,36,33,214,0
863176,41,29,225,0
863187,42,31,227,0
863198,41,28,227,0
863209,38,22,228,0
863221,31,15,229,0
863231,23,9,230,0
863242,11,9,230,0
863253,2,14,231,0
863264,2,12,230,0
863276,2,23,230,0
863286,0,25,234,0
863297,-1,31,235,0
863308,-8,37,239,0
863319,-22,35,242,0
863330,-25,26,246,0
863342,-14,16,259,1
863353,29,11,305,0
863363,33,58,335,0
863374,-2,50,333,0
863386,27,21,346,0
863396,69,27,359,0
863407,71,3,281,0
863418,36,-4,228,0
863429,15,-10,191,0
863440,-2,-36,180,0
863451,0,-46,169,0
863462,16,-47,162,0
863473,31,-45,162,0
863484,46,-46,157,0
863495,56,-39,160,0
863506,64,-30,181,0
863517,65,-22,198,0
863528,70,-27,212,0
863539,73,-22,228,0
863550,73,-22,231,0
863561,71,-27,226,0
863572,55,-30,203,0
863583,51,-24,208,0
863594,47,-17,209,0
863605,42,-17,214,0
863616,30,-15,216,0
863628,15,-14,216,0
863638,11,-9,210,0
863649,12,-7,210,0
863660,17,-5,212,0
863671,18,-1,219,0
863682,20,2,224,0
863693,29,0,225,0
863704,34,-1,218,0
863715,40,-4,214,0
863726,43,-3,210,0
863737,46,-1,211,0
863748,45,1,213,0
863759,40,-2,218,0
863770,39,0,220,0
863781,32,2,224,0
863793,28,8,232,0
863803,22,10,236,0
863814,16,13,242,0
863825,13,13,239,0
863836,9,15,236,0
863847,6,16,232,0
863858,7,14,230,0
863869,11,11,225,0
863880,16,11,222,0
863891,23,12,221,0
863903,37,5,220,0
863913,40,0,220,0
863924,45,-3,220,0
863935,48,-2,220,0
863946,48,1,223,0
863957,46,7,227,0
863968,38,17,238,0
863979,30,25,245,0
863991,21,34,249,0
864001,10,36,250,0
864012,1,35,241,0
864024,1,32,224,1
864034,7,32,233,0
864045,5,10,260,0
864056,0,-8,268,0
864067,-17,4,278,0
864078,-16,10,280,0
864091,-3,15,284,0
864101,5,11,293,0
864112,13,4,301,0
864123,28,4,295,0
864134,48,15,287,0
864145,63,21,267,0
864156,80,27,247,0
864167,93,28,229,0
864178,104,23,208,0
864189,115,12,189,0
864200,121,2,171,0
864211,124,-9,154,0
864223,113,-29,148,0
864233,106,-26,162,0
864244,96,-20,186,0
864255,88,-19,203,0
864266,79,-19,216,0
864278,72,-17,237,0
864288,64,-11,253,0
864301,50,-4,262,0
864311,36,-3,269,0
864322,26,-3,277,0
864333,15,2,279,0
864344,8,2,269,0
864355,9,2,256,0
864366,11,1,245,0
864378,19,-5,228,0
864388,23,-3,224,0
864399,24,-8,215,0
864410,30,-10,213,0
864421,38,-8,212,0
864432,45,-7,214,0
864443,48,-2,214,0
864454,47,-1,211,0
864465,45,-1,210,0
864476,41,0,206,0
864487,35,-2,206,0
864498,27,-6,206,0
864509,20,-5,206,0
864520,16,-1,207,0
864531,9,-6,204,0
864542,1,-13,207,0
864553,0,-15,205,0
864564,-2,-10,201,0
864575,-7,-6,197,0
864586,-11,-4,199,0
864597,-16,-1,211,0
864608,-21,-2,220,0
864619,-21,0,228,0
864630,-19,7,229,0
864641,-25,22,234,0
864653,-26,17,244,0
864663,-27,7,247,0
864674,-26,5,245,0
864686,-22,16,248,0
864696,-13,10,250,0
864707,21,0,277,0
864718,69,12,351,0
864729,90,54,388,0
864740,97,41,391,0
864752,104,9,358,1
864762,102,-7,318,0
864773,74,-15,273,0
864784,37,-18,242,0
864795,22,-27,234,0
864806,7,-9,219,0
864817,-6,-1,195,0
864828,11,-45,196,0
864839,18,-49,203,0
864851,44,-8,208,0
864862,53,-6,211,0
864873,64,3,206,0
864884,72,25,206,0
864896,79,28,208,1
864906,92,22,203,0
864917,99,20,210,0
864928,109,13,210,0
864939,115,9,197,0
864950,115,11,184,0
864961,123,16,176,0
864972,125,16,185,0
864983,124,16,194,0
864994,115,15,199,0
865005,100,12,210,0
865017,60,10,220,0
865028,50,24,223,0
865038,45,26,222,0
865049,46,27,222,0
865060,51,27,221,0
865071,50,26,217,0
865082,48,20,218,0
865093,48,15,217,0
865104,44,12,214,0
865115,41,12,213,0
865126,38,9,218,0
865137,35,6,219,0
865149,32,7,222,0
865159,29,6,229,0
865170,31,7,231,0
865181,36,12,241,0
865193,40,15,240,0
865203,39,17,240,0
865214,39,18,236,0
865225,37,19,230,0
865236,36,18,229,0
865247,39,18,228,0
865258,41,19,229,0
865269,45,20,230,0
865280,51,19,228,0
865292,58,21,228,0
865303,63,22,227,0
865313,67,19,224,0
865324,72,20,221,0
865335,73,20,221,0
865346,68,22,226,0
865357,66,24,227,0
865368,64,24,226,0
865379,62,26,227,0
865391,60,26,225,0
865401,60,25,224,0
865412,60,26,225,0
865423,57,29,226,0
865434,53,29,227,0
865445,51,28,230,0
865456,49,27,233,0
865467,48,28,231,0
865478,48,28,231,0
865489,49,27,230,0
865500,49,30,228,0
865511,50,30,227,0
865522,55,31,229,0
865533,56,35,229,0
865544,59,34,230,0
865555,60,35,230,0
865566,63,36,229,0
865578,65,35,229,0
865588,67,33,229,0
865599,66,33,230,0
865610,67,31,229,0
865621,68,30,231,0
865632,67,30,230,0
865643,66,30,230,0
865654,67,32,229,0
865665,68,32,230,0
865676,70,32,229,0
865687,70,32,224,0
865698,73,32,223,0
865709,75,31,227,0
865720,78,29,226,0
865731,84,28,219,0
865742,86,39,222,0
865753,86,33,223,0
865764,85,34,228,0
865775,87,33,231,0
865786,90,34,232,0
865798,96,30,230,1
865808,105,22,231,0
865819,114,12,233,0
865830,117,9,233,0
865841,116,2,226,0
865853,112,-11,220,0
865863,102,-16,210,0
865874,90,-19,200,0
865886,68,-24,194,0
865896,46,-27,192,0
865907,27,-28,195,0
865918,15,-23,201,0
865930,8,-13,215,1
865940,1,-4,223,0
865951,-1,0,231,0
865962,0,-6,233,0
865973,2,-17,232,0
865984,3,-34,221,0
865995,6,-41,211,0
866006,5,-44,206,0
866017,22,-25,232,0
866028,37,-17,249,0
866039,55,-13,270,0
866050,65,-15,279,0
866061,70,-21,279,0
866072,75,-31,270,0
866083,79,-45,248,0
866094,82,-58,227,0
866105,87,-63,219,0
866116,87,-51,218,0
866128,80,-48,219,0
866138,85,-48,224,0
866149,92,-47,235,0
866160,97,-47,235,0
866171,96,-44,230,0
866182,91,-38,211,0
866193,87,-41,204,0
866204,84,-46,200,0
866215,83,-44,199,0
866226,79,-45,201,0
866237,76,-49,200,0
866248,71,-52,202,0
866259,68,-53,204,0
866270,65,-52,203,0
866281,64,-46,201,0
866293,62,-45,201,0
866303,64,-45,202,0
866314,68,-43,202,0
866325,74,-41,204,0
866336,82,-41,210,0
866348,95,-44,215,0
866358,97,-45,216,0
866369,97,-46,215,0
866380,98,-45,213,0
866392,99,-48,210,0
866403,101,-49,210,0
866413,102,-50,212,0
866424,101,-46,214,0
866435,100,-45,216,0
866446,100,-44,219,0
866457,99,-47,220,0
866468,97,-47,217,0
866479,94,-48,214,0
866491,91,-49,211,0
866501,88,-51,209,0
866512,86,-51,209,0
866523,84,-50,209,0
866534,82,-52,211,0
866545,83,-52,211,0
866556,83,-54,211,0
866567,83,-54,213,0
866578,83,-53,213,0
866589,85,-55,212,0
866600,85,-55,211,0
866611,85,-57,210,0
866622,88,-59,206,0
866633,87,-59,205,0
866644,87,-59,206,0
866655,87,-61,208,0
866666,85,-61,206,0
866678,86,-60,206,0
866688,86,-59,206,0
866699,86,-60,205,0
866710,88,-58,207,0
866721,89,-58,207,0
866732,89,-59,206,0
866743,89,-58,206,0
866754,88,-58,206,0
866766,89,-57,205,0
866776,90,-55,206,0
866787,89,-53,206,0
866798,89,-53,205,0
866809,90,-54,210,0
866822,92,-52,210,0
866832,92,-52,211,0
866843,92,-50,209,0
866854,92,-50,209,0
866865,90,-51,210,0
866876,88,-49,210,0
866887,88,-51,212,0
866898,88,-53,211,0
866909,88,-52,208,0
866920,89,-54,211,0
866931,90,-55,210,0
866942,89,-53,211,0
866953,88,-52,209,0
866964,88,-51,211,0
866975,88,-53,212,0
866986,87,-53,212,0
866997,87,-54,212,0
867008,88,-55,212,0
867019,88,-55,213,0
867030,89,-56,211,0
867041,91,-56,213,0
867053,92,-55,210,0
867063,91,-54,210,0
867074,89,-55,208,0
867086,89,-54,208,0
867096,87,-55,211,0
867107,85,-55,212,0
867118,86,-55,214,0
867129,84,-56,216,0
867140,85,-55,218,0
867151,84,-55,218,0
867162,87,-51,212,0
867173,87,-49,212,0
867184,86,-52,211,0
867195,87,-51,209,0
867206,89,-52,210,0
867217,89,-50,209,0
867228,90,-53,209,0
867239,92,-52,209,0
867250,92,-53,208,0
867261,92,-55,208,0
867272,94,-55,208,0
867284,96,-57,211,0
867295,97,-54,212,0
867306,97,-52,214,0
867317,96,-52,213,0
867328,94,-53,210,0
867339,89,-53,205,0
867350,86,-55,201,0
867361,83,-58,198,0
867372,81,-61,197,0
867383,79,-63,196,0
867394,78,-64,196,0
867405,77,-64,198,0
867417,75,-62,200,0
867428,72,-62,203,0
867438,68,-63,203,0
867449,67,-65,203,0
867460,64,-64,202,0
867471,59,-69,198,0
867482,58,-69,199,0
867493,56,-69,199,0
867504,52,-70,203,0
867515,49,-69,206,0
867526,43,-70,212,0
867537,38,-71,219,0
867548,32,-74,225,0
867559,25,-77,227,0
867570,16,-84,226,0
867582,10,-89,228,1
867593,8,-97,230,0
867603,11,-100,233,0
867614,29,-99,231,0
867625,49,-80,244,0
867636,101,-46,325,0
867647,98,-24,319,0
867658,102,-36,289,0
867669,112,-43,252,0
867680,116,-36,221,0
867692,103,-18,189,0
867703,89,-14,177,0
867713,96,-7,193,0
867724,79,-8,204,0
867735,77,-16,213,0
867746,60,-9,219,0
867757,49,7,221,0
867768,35,9,213,0
867779,27,11,204,0
867791,18,13,204,0
867801,7,17,223,0
867812,5,16,236,0
867823,8,15,243,0
867834,12,14,241,0
867845,14,16,238,0
867856,14,12,235,0
867867,16,10,228,0
867878,19,5,224,0
867889,19,1,221,0
867900,21,-3,214,0
867911,26,-5,216,0
867922,35,-8,220,0
867933,44,-4,230,0
867944,46,-4,234,0
867955,50,-1,236,0
867966,61,-5,231,0
867978,61,-9,229,0
867988,60,-9,225,0
867999,62,-11,224,0
868010,56,-10,224,0
868021,47,-9,223,0
868032,41,-12,224,0
868043,30,-18,223,0
868054,15,-20,220,0
868065,6,-23,220,0
868076,2,-20,222,0
868087,2,-16,227,0
868099,4,-11,229,0
868110,8,-12,229,0
868121,15,-19,232,0
868132,20,-20,231,0
868143,23,-20,229,0
868154,24,-18,228,0
868165,28,-16,226,0
868176,31,-17,222,0
868187,32,-14,218,0
868198,32,-11,216,0
868209,29,-9,216,0
868220,25,-7,217,0
868231,19,-2,217,0
868242,11,0,218,0
868253,4,2,220,0
868264,-1,4,224,0
868275,-6,5,228,0
868286,-9,7,230,0
868297,-9,7,230,0
868308,-7,10,228,0
868319,-4,10,227,0
868330,-5,9,231,0
868341,-7,5,233,0
868353,-6,8,229,0
868363,-10,12,226,0
868374,-15,13,224,0
868386,-18,13,225,0
868396,-19,13,226,0
868407,-20,8,228,0
868418,-21,3,228,0
868429,-24,-1,227,0
868440,-30,-9,224,0
868451,-33,-17,219,0
868462,-32,-15,224,0
868473,-31,-8,228,0
868485,-29,-5,227,1
868495,-24,0,225,0
868506,14,12,207,0
868518,14,-19,252,0
868528,17,-57,276,0
868539,18,-25,258,0
868550,-13,-30,266,0
868561,-22,-25,288,0
868572,-11,18,306,0
868583,0,23,325,0
868594,28,23,345,0
868605,57,48,354,0
868616,84,56,333,0
868628,94,49,310,0
868638,106,40,279,0
868649,118,32,246,0
868660,119,24,213,0
868671,108,17,189,0
868682,98,6,165,0
868693,89,-2,152,0
868704,82,-3,148,0
868716,73,2,148,0
868728,70,8,155,0
868738,68,13,164,0
868749,65,16,172,0
868760,57,27,207,0
868771,56,22,222,0
868782,53,18,229,0
868793,48,17,229,0
868804,42,15,233,0
868815,39,8,234,0
868826,34,6,234,0
868837,28,3,233,0
868848,27,1,231,0
868859,29,1,226,0
868870,33,4,227,0
868881,33,3,215,0
868893,32,2,212,0
868903,29,3,215,0
868914,28,1,217,0
868925,19,-6,219,0
868936,15,-8,220,0
868947,15,-9,223,0
868958,14,-13,221,0
868969,11,-10,216,0
868980,8,-1,213,0
868992,3,-9,201,0
869003,0,-5,192,0
869013,-1,-4,192,0
869024,-2,-4,189,0
869035,-3,-4,193,0
869046,-7,-2,196,0
869057,-13,-2,199,0
869068,-18,0,204,0
869079,-25,1,213,0
869091,-35,3,225,0
869101,-42,14,229,0
869113,-48,20,234,0
869123,-54,16,243,0
869134,-55,7,250,0
869145,-53,-3,250,0
869156,-49,-11,250,0
869167,-41,-14,253,0
869178,-36,-4,255,0
869189,-25,-5,261,0
869201,44,-46,333,1
869211,99,-7,404,0
869222,99,21,392,0
869233,112,-7,368,0
869244,125,-40,335,0
869255,148,-28,374,0
869266,85,-8,270,0
869278,54,-7,219,0
869288,32,14,216,0
869299,48,-86,159,0
869310,25,8,160,0
869321,46,-52,153,0
869332,43,-24,159,0
869343,53,-33,158,0
869354,57,-28,164,0
869365,61,-18,177,0
869376,64,-20,183,0
869387,73,-10,191,0
869398,92,-14,194,0
869409,109,-16,198,0
869420,121,-16,203,0
869431,119,-7,211,0
869442,106,-5,216,0
869453,92,-1,211,0
869464,80,0,214,0
869475,72,3,213,0
869486,65,8,217,0
869497,60,13,223,0
869508,54,11,223,0
869520,51,7,220,0
869530,44,6,216,0
869541,37,4,211,0
869553,27,1,209,0
869563,18,0,206,0
869574,19,-4,209,0
869586,17,0,211,0
869596,32,-1,228,0
869607,39,3,236,0
869618,44,1,237,0
869629,46,3,237,0
869640,44,3,238,0
869651,39,5,238,0
869662,31,1,232,0
869673,24,-1,230,0
869684,12,1,232,0
869695,4,-1,228,0
869706,-1,-1,222,0
869717,-6,1,220,0
869728,-5,3,224,0
869739,-6,7,230,0
869751,-5,11,236,0
869761,-2,19,247,0
869772,-2,20,244,0
869783,-4,14,243,0
869794,0,9,225,0
869805,-5,6,221,0
869816,-7,4,224,0
869828,-10,2,228,0
869838,-16,0,230,0
869849,-23,-1,229,0
869860,-32,-1,228,0
869871,-40,-7,226,0
869882,-46,-12,222,0
869893,-41,-14,222,0
869904,-11,-5,209,0
869916,4,-10,233,1
869926,37,-68,253,0
869937,35,-9,255,0
869948,17,-25,285,0
869959,26,-53,316,0
869970,50,-29,316,0
869981,66,-1,320,0
869993,89,8,310,0
870003,114,21,288,0
870014,136,34,254,0
870025,145,41,216,0
870036,149,34,186,0
870047,146,24,166,0
870058,139,16,154,0
870069,129,6,160,0
870080,116,-1,172,0
870092,61,28,215,0
870103,28,8,224,0
870113,-1,14,249,0
870124,-4,8,266,0
870135,-10,13,267,0
870146,-3,5,263,0
870157,5,0,256,0
870168,7,-5,247,0
870179,6,-12,234,0
870191,12,-5,237,0
870201,20,-4,221,0
870212,25,-2,205,0
870223,34,1,213,0
870234,35,-3,205,0
870245,37,-8,195,0
870256,26,-6,193,0
870268,14,-2,194,0
870279,5,-2,200,0
870291,-2,-3,202,0
870301,-9,-7,205,0
870312,-15,-14,211,0
870323,-22,-21,215,0
870334,-26,-27,215,0
870345,-28,-29,218,0
870356,-29,-30,223,0
870367,-27,-34,222,0
870378,-25,-37,220,0
870389,-21,-40,218,0
870400,-16,-38,218,0
870411,-11,-30,222,0
870422,-11,-30,224,0
870433,-13,-27,223,0
870444,-11,-17,227,0
870455,-24,6,242,0
870466,-35,0,264,0
870478,-41,-13,268,0
870488,-37,-29,250,0
870499,-23,-34,243,0
870510,-12,-39,244,0
870521,-10,-41,247,0
870532,-12,-51,256,0
870543,21,-70,302,0
870554,59,-69,388,0
870565,75,-28,387,0
870576,42,-36,310,0
870588,22,-21,283,1
870598,13,-10,259,0
870609,7,-15,236,0
870620,-7,34,149,0
870631,0,-127,241,0
870642,11,-51,140,0
870653,30,-10,167,0
870664,51,-46,157,0
870675,49,-17,167,0
870687,66,-21,171,0
870697,76,-13,182,0
870708,84,-12,189,0
870719,95,-21,195,0
870730,106,-21,195,0
870741,104,-17,207,0
870753,100,-9,218,0
870763,93,-2,225,0
870774,88,-1,228,0
870785,87,-1,225,0
870796,84,0,219,0
870807,73,-1,212,0
870818,59,-6,206,0
870829,51,-6,204,0
870840,44,-2,206,0
870851,37,1,210,0
870862,34,3,215,0
870873,30,4,220,0
870884,24,10,223,0
870895,19,9,226,0
870906,6,10,226,0
870917,5,10,228,0
870928,5,8,226,0
870939,3,7,225,0
870950,7,6,223,0
870961,11,6,225,0
870972,10,5,224,0
870983,11,6,224,0
870994,12,5,225,0
871005,17,6,228,0
871016,23,5,230,0
871028,21,3,227,0
871038,18,0,224,0
871049,13,-3,222,0
871060,9,-1,224,0
871071,3,-4,225,0
871082,4,-2,225,0
871093,5,0,227,0
871104,4,2,227,0
871115,5,4,227,0
871126,7,2,227,0
871137,9,4,227,0
871149,7,4,224,0
871159,2,4,224,0
871170,1,2,225,0
871181,-1,4,229,0
871193,-4,5,231,0
871203,-5,6,233,0
871214,-9,8,236,0
871225,-10,9,235,0
871236,-15,14,242,0
871247,-22,11,242,0
871258,-28,8,232,0
871269,-20,12,221,0
871280,-14,1,236,0
871292,-27,-41,250,1
871303,-26,-43,247,0
871313,-34,-27,237,0
871324,-33,-3,242,0
871335,-20,3,260,0
871346,0,-3,273,0
871357,26,-5,290,0
871368,48,7,309,0
871379,71,33,321,0
871391,92,51,322,0
871401,110,53,318,0
871412,127,34,254,0
871423,134,22,215,0
871434,129,12,179,0
871445,117,2,152,0
871456,100,-7,141,0
871468,80,-14,144,0
871478,59,-14,156,0
871489,37,-9,175,0
871501,23,-7,193,0
871512,10,0,209,0
871523,2,5,230,0
871534,6,9,256,0
871545,14,11,271,0
871556,29,5,270,0
871567,32,1,257,0
871578,30,-2,251,0
871589,28,-7,243,0
871600,30,-4,238,0
871611,29,-9,230,0
871622,29,-7,230,0
871633,35,-9,223,0
871644,38,-6,217,0
871655,39,-8,208,0
871666,39,-6,206,0
871678,36,-8,206,0
871688,36,-6,212,0
871699,26,-8,209,0
871710,17,-9,206,0
871721,3,-12,206,0
871732,-4,-11,205,0
871743,-12,-10,203,0
871754,-19,-11,196,0
871765,-22,-12,193,0
871776,-21,-11,193,0
871787,-20,-7,193,0
871798,-20,-4,196,0
871809,-16,-1,201,0
871820,-12,-1,208,0
871831,-7,-1,219,0
871842,-1,0,227,0
871853,1,10,222,0
871864,-8,16,228,0
871875,-18,9,238,0
871887,-22,6,251,0
871897,-28,11,255,0
871908,-32,7,255,0
871919,-34,5,256,0
871930,-41,6,255,0
871941,-44,3,254,0
871953,-1,-22,291,1
871963,59,-7,398,0
871974,45,79,383,0
871985,55,1,393,0
871996,65,-20,331,0
872007,65,-21,319,0
872018,88,-25,340,0
872029,74,-1,311,0
872040,47,0,253,0
872051,15,-40,177,0
872062,12,-46,159,0
872073,32,-53,142,0
872084,43,-53,145,0
872095,52,-47,150,0
872106,62,-39,163,0
872117,66,-33,168,0
872128,71,-23,183,0
872139,80,-16,199,0
872150,85,-13,213,0
872161,83,-13,217,0
872172,82,-14,223,0
872183,72,-14,215,0
872194,73,-16,212,0
872205,74,-16,215,0
872216,67,-18,215,0
872228,53,-23,210,0
872238,51,-19,209,0
872249,51,-19,208,0
872260,43,-19,211,0
872271,42,-12,217,0
872282,40,-10,221,0
872293,35,-7,221,0
872304,29,-6,219,0
872315,23,-8,218,0
872326,18,-8,213,0
872337,11,-9,211,0
872348,7,-9,209,0
872359,4,-7,210,0
872370,2,-5,213,0
872381,0,-1,217,0
872393,-8,1,230,0
872403,-9,1,232,0
872414,-8,3,235,0
872425,-10,3,235,0
872436,-9,2,234,0
872447,-6,1,232,0
872458,-6,1,228,0
872469,-1,2,224,0
872480,0,0,218,0
872492,3,1,216,0
872503,6,-3,213,0
872513,10,-10,212,0
872524,14,-14,212,0
872535,16,-19,214,0
872546,17,-17,213,0
872557,19,-6,219,0
872569,20,-4,219,0
872579,16,2,223,0
872591,11,10,227,0
872601,3,12,231,0
872613,-6,9,234,1
872623,-7,4,233,0
872634,-2,13,231,0
872645,15,23,239,0
872656,13,-11,270,0
872667,13,-34,279,0
872678,10,-24,284,0
872689,3,-15,292,0
872700,1,8,299,0
872711,-1,16,305,0
872722,15,-6,310,0
872733,34,1,305,0
872744,57,7,287,0
872755,76,17,268,0
872766,92,14,245,0
872778,109,11,225,0
872788,119,1,194,0
872799,126,-4,171,0
872810,123,-10,153,0
872821,115,-15,144,0
872832,101,-16,152,0
872843,88,-15,169,0
872854,74,-6,185,0
872865,62,-4,198,0
872876,49,-2,221,0
872887,22,11,256,0
872898,10,12,266,0
872909,9,8,268,0
872920,13,10,268,0
872931,14,3,266,0
872942,18,-1,264,0
872953,21,-4,256,0
872964,21,-6,244,0
872975,23,-4,236,0
872987,24,-1,232,0
872997,29,-3,223,0
873008,38,-8,218,0
873019,41,-2,220,0
873031,43,-3,215,0
873041,46,-4,209,0
873053,44,2,195,0
873063,41,0,195,0
873074,30,-3,198,0
873085,20,-7,200,0
873096,16,-9,204,0
873107,7,-5,205,0
873118,1,-7,201,0
873129,-4,-8,196,0
873140,-6,-10,196,0
873151,-12,-10,194,0
873162,-14,-9,197,0
873173,-14,-8,200,0
873184,-11,-3,205,0
873195,-7,2,214,0
873206,-6,5,224,0
873217,-1,10,233,0
873228,0,11,239,0
873239,1,15,249,0
873250,-5,25,259,0
873261,-12,22,263,0
873272,-17,11,261,0
873283,-19,4,258,0
873294,-16,1,258,0
873305,-10,-1,264,0
873316,11,-13,282,0
873328,58,-10,353,0
873339,53,55,362,1
873349,35,35,335,0
873360,46,-22,327,0
873371,56,-36,322,0
873382,58,-1,346,0
873393,33,7,276,0
873405,27,-19,224,0
873416,-5,-24,199,0
873426,-13,-25,176,0
873437,-5,-36,161,0
873448,5,-50,156,0
873459,29,-44,160,0
873470,44,-36,172,0
873481,56,-26,184,0
873493,66,-16,190,0
873503,77,-2,189,0
873514,90,3,192,0
873525,96,8,197,0
873536,101,10,205,0
873547,96,4,220,0
873558,91,5,215,0
873569,88,0,213,0
873580,84,-1,211,0
873592,76,0,211,0
873603,67,-2,210,0
873613,57,-8,209,0
873624,46,-11,210,0
873635,36,-10,214,0
873646,33,-10,223,0
873657,22,-6,227,0
873668,18,-5,232,0
873679,16,-3,234,0
873691,15,-1,233,0
873701,12,-1,227,0
873712,8,-5,213,0
873723,3,-3,211,0
873734,5,0,213,0
873745,4,-1,214,0
873756,6,-1,217,0
873767,8,0,220,0
873778,6,0,222,0
873789,6,2,225,0
873800,4,3,228,0
873811,4,4,231,0
873822,2,7,234,0
873833,1,9,234,0
873844,2,8,231,0
873855,4,7,229,0
873867,6,5,225,0
873878,9,2,225,0
873889,12,1,224,0
873900,15,-3,224,0
873911,17,-9,221,0
873922,21,-12,217,0
873933,27,-16,215,0
873944,31,-13,213,0
873955,34,-9,215,0
873966,35,-1,219,0
873978,33,7,223,0
873989,30,15,227,1
873999,23,23,230,0
874010,13,23,233,0
874021,4,19,234,0
874032,16,15,233,0
874043,14,-22,252,0
874054,6,-33,250,0
874065,-14,-17,253,0
874076,-34,-8,270,0
874087,-34,13,284,0
874098,-28,16,295,0
874109,-9,9,294,0
874120,7,14,295,0
874131,20,6,288,0
874142,38,6,283,0
874153,59,14,275,0
874164,73,22,268,0
874175,85,24,258,0
874187,92,20,246,0
874197,97,9,213,0
874208,94,0,198,0
874219,90,-9,184,0
874230,82,-17,173,0
874241,75,-24,165,0
874253,73,-31,161,0
874263,72,-33,159,0
874274,73,-33,162,0
874285,78,-29,172,0
874296,77,-23,186,0
874307,79,-17,202,0
874318,80,-19,218,0
874329,80,-15,227,0
874342,61,-1,252,0
874353,43,1,267,0
874363,28,-1,277,0
874374,12,4,279,0
874385,5,5,279,0
874396,1,1,277,0
874407,-1,-6,270,0
874418,-4,-11,259,0
874429,-1,-9,244,0
874440,0,-2,234,0
874451,-2,0,230,0
874462,4,1,236,0
874473,8,-1,232,0
874484,14,0,226,0
874495,21,0,222,0
874506,26,0,217,0
874517,32,-1,207,0
874528,31,-3,208,0
874540,29,-4,209,0
874550,26,-6,209,0
874561,21,-6,209,0
874572,16,-5,210,0
874583,13,-5,211,0
874594,8,-5,215,0
874605,5,-3,218,0
874616,4,0,219,0
874628,2,1,222,0
874638,3,1,223,0
874649,-1,5,220,0
874660,-4,1,222,0
874671,-6,7,216,0
874682,-16,12,219,0
874693,-21,9,220,0
874704,-24,8,221,0
874715,-28,7,216,0
874728,-25,6,222,0
874738,-24,5,226,0
874749,-18,5,229,0
874760,-13,4,234,0
874772,-7,3,242,1
874782,1,5,249,0
874793,10,2,251,0
874804,42,10,278,0
874815,66,68,312,0
874826,69,66,282,0
874837,74,28,255,0
874848,89,-3,263,0
874859,103,-4,296,0
874870,102,-3,308,0
874881,105,-10,299,0
874893,103,-11,272,0
874903,90,-1,246,0
874914,80,4,222,0
874925,66,-3,188,0
874936,54,-1,167,0
874947,49,-12,156,0
874958,46,-27,156,0
874969,45,-26,161,0
874980,51,-23,173,0
874992,70,-5,203,0
875003,86,11,209,0
875013,99,23,215,0
875024,100,31,217,0
875035,95,37,217,0
875046,90,40,213,0
875057,84,38,209,0
875068,79,34,210,0
875079,75,29,209,0
875091,72,29,215,0
875101,71,28,224,0
875112,70,27,230,0
875123,66,32,233,0
875134,66,35,230,0
875145,68,39,226,0
875156,75,36,221,0
875167,79,33,220,0
875178,84,32,223,0
875189,84,29,222,0
875200,79,31,223,0
875211,76,28,219,0
875222,74,29,223,0
875233,69,25,223,0
875244,63,25,229,0
875255,59,21,230,0
875266,54,20,229,0
875278,51,24,225,0
875289,50,30,224,0
875299,49,35,223,0
875310,52,35,225,0
875321,53,34,223,0
875332,55,34,221,0
875343,55,37,222,0
875354,59,34,223,0
875365,63,32,222,0
875376,65,34,220,0
875387,67,34,220,0
875398,71,35,219,0
875409,75,39,220,0
875421,77,41,222,0
875431,81,42,223,0
875442,82,44,222,0
875453,84,46,221,0
875464,84,46,222,0
875475,82,48,221,0
875486,77,51,222,0
875497,74,52,221,0
875508,71,54,222,0
875519,71,53,220,0
875530,71,55,221,0
875541,71,57,222,0
875553,74,55,222,0
875563,74,54,221,0
875575,73,55,220,0
875586,74,55,219,0
875597,73,55,217,0
875608,73,56,218,0
875619,73,58,219,0
875630,73,57,218,0
875641,77,58,219,0
875653,77,59,218,0
875663,78,57,217,0
875674,77,58,217,0
875686,78,56,215,0
875696,80,53,215,0
875707,81,50,215,0
875719,85,46,216,1
875729,87,38,213,0
875740,89,25,211,0
875751,90,17,207,0
875762,89,16,207,0
875773,87,18,205,0
875784,79,24,204,0
875795,65,31,212,0
875806,50,53,224,0
875817,45,55,224,0
875828,42,51,219,0
875839,40,45,214,0
875850,37,36,211,0
875861,35,28,211,0
875872,34,26,217,0
875883,35,23,221,0
875894,38,22,224,0
875905,41,16,227,0
875917,46,11,232,0
875928,51,13,237,0
875938,51,10,238,0
875949,50,6,240,0
875960,45,3,245,0
875971,36,-1,259,0
875982,33,0,271,0
875993,34,0,281,0
876004,35,1,290,0
876015,35,0,292,0
876026,40,0,289,0
876037,45,-2,277,0
876048,50,-4,266,0
876059,55,-13,253,0
876070,58,-20,244,0
876081,62,-20,235,0
876093,62,-20,224,0
876103,62,-19,216,0
876114,59,-15,210,0
876125,53,-13,202,0
876136,33,-6,193,0
876147,25,-7,192,0
876158,18,-1,197,0
876169,8,0,199,0
876181,3,1,208,0
876193,1,3,213,0
876203,1,3,214,0
876214,1,9,220,0
876225,2,10,224,0
876236,5,11,231,0
876247,6,11,234,0
876258,8,13,235,0
876269,9,15,237,0
876281,14,17,242,0
876292,13,18,237,0
876303,13,18,237,0
876313,13,19,235,0
876324,10,21,230,0
876335,7,23,227,0
876346,3,25,224,0
876357,-2,24,222,0
876368,-4,25,219,0
876379,-1,27,220,0
876391,-1,27,219,0
876401,-5,26,214,0
876412,-3,27,216,0
876423,1,33,216,0
876434,3,36,221,0
876445,4,36,225,0
876456,16,23,229,0
876467,24,17,231,0
876478,28,16,226,0
876489,27,13,226,0
876500,26,10,231,0
876511,27,18,236,0
876522,19,26,235,0
876533,13,33,238,0
876544,3,36,237,0
876556,-7,32,236,1
876567,-17,29,235,0
876578,-27,33,229,0
876588,-25,38,228,0
876599,-3,31,249,0
876610,28,41,298,0
876621,44,62,329,0
876632,110,25,384,0
876643,126,36,394,0
876654,113,18,343,0
876665,87,-15,269,0
876676,62,-35,222,0
876687,45,-51,188,0
876698,37,-61,159,0
876709,36,-62,142,0
876720,38,-60,140,0
876731,43,-52,152,0
876742,42,-36,164,0
876753,43,-22,175,0
876764,47,-10,187,0
876775,55,-8,196,0
876786,74,-14,214,0
876797,79,-14,217,0
876808,80,-16,219,0
876819,74,-15,218,0
876830,67,-16,217,0
876841,55,-19,209,0
876853,44,-14,210,0
876863,36,-9,209,0
876874,32,-6,213,0
876886,29,-6,214,0
876896,24,-2,216,0
876907,22,-3,220,0
876918,24,0,219,0
876929,27,1,216,0
876940,36,1,217,0
876951,44,1,215,0
876962,43,3,210,0
876973,42,0,205,0
876984,39,0,204,0
876995,38,0,206,0
877006,37,0,211,0
877017,36,4,216,0
877028,30,6,222,0
877039,26,4,223,0
877050,22,3,226,0
877061,20,3,225,0
877072,13,7,224,0
877083,9,8,224,0
877094,9,11,223,0
877105,8,14,224,0
877116,15,10,224,0
877128,21,10,227,0
877138,24,12,224,0
877149,25,13,229,0
877160,28,11,237,0
877171,30,11,240,0
877182,30,10,240,0
877193,23,14,241,0
877204,16,18,241,0
877215,7,25,239,0
877226,-2,25,238,0
877237,-14,24,236,0
877249,-21,24,230,1
877259,-13,34,216,0
877270,-2,39,225,0
877281,-10,-8,264,0
877293,-5,-2,265,0
877303,9,17,275,0
877314,24,27,300,0
877325,41,8,326,0
877336,57,1,329,0
877347,80,8,332,0
877358,104,20,301,0
877369,123,23,274,0
877380,134,14,250,0
877391,140,3,223,0
877403,142,-10,198,0
877413,137,-15,182,0
877424,131,-15,176,0
877435,118,-10,181,0
877446,85,-6,183,0
877457,68,1,190,0
877468,52,2,207,0
877479,34,6,228,0
877491,15,13,245,0
877501,2,14,256,0
877512,2,9,264,0
877523,2,10,270,0
877534,7,8,261,0
877545,6,2,244,0
877556,12,1,235,0
877567,18,2,225,0
877578,26,2,216,0
877589,31,4,210,0
877600,37,3,208,0
877612,52,1,200,0
877622,54,1,202,0
877633,58,0,207,0
877644,59,-4,210,0
877655,58,-6,213,0
877666,56,-3,215,0
877678,45,-2,205,0
877688,39,2,200,0
877699,29,0,204,0
877710,13,-1,199,0
877721,6,-1,202,0
877732,1,-4,199,0
877743,-5,-5,199,0
877754,-8,-7,202,0
877765,-12,-4,200,0
877776,-20,2,199,0
877787,-24,6,206,0
877798,-25,1,217,0
877809,-23,2,232,0
877820,-21,4,245,0
877831,-22,17,248,0
877842,-26,23,248,0
877853,-28,22,255,0
877864,-24,18,264,0
877875,-26,9,268,0
877886,-27,3,259,0
877897,-29,3,253,0
877908,-13,3,262,0
877919,51,-8,353,0
877930,83,55,395,0
877942,79,-8,357,1
877953,68,-5,318,0
877963,64,-12,313,0
877974,74,-19,324,0
877986,65,-6,290,0
877996,46,-27,239,0
878007,19,-44,210,0
878018,10,-43,182,0
878029,20,-51,166,0
878040,31,-44,153,0
878051,46,-39,155,0
878062,52,-24,156,0
878073,52,-12,162,0
878084,54,-12,171,0
878095,57,-7,184,0
878106,70,-3,205,0
878117,77,-1,213,0
878128,88,-5,218,0
878139,91,-9,209,0
878150,90,-14,207,0
878161,86,-12,212,0
878172,79,-5,208,0
878183,67,-9,205,0
878194,56,-4,205,0
878206,50,-3,208,0
878217,46,1,212,0
878228,46,-2,213,0
878239,45,-2,218,0
878250,42,-3,217,0
878261,37,-6,216,0
878272,31,-6,218,0
878283,23,-4,218,0
878294,19,-4,215,0
878305,19,-3,212,0
878316,17,-2,209,0
878328,14,-1,208,0
878338,8,2,210,0
878350,1,4,219,0
878361,-5,5,227,0
878372,-9,7,232,0
878383,-12,9,236,0
878394,-14,11,236,0
878405,-16,9,231,0
878417,-16,6,226,0
878428,-10,3,220,0
878439,-10,2,215,0
878450,-3,0,216,0
878461,8,-5,219,0
878472,16,-10,216,0
878483,19,-17,212,0
878494,25,-19,211,0
878505,30,-19,215,0
878516,30,-11,218,0
878528,29,-3,219,0
878538,25,2,223,0
878549,5,7,227,0
878560,-7,3,231,0
878571,-21,0,234,0
878583,-34,-5,237,1
878593,-36,-1,239,0
878604,-13,9,238,0
878615,-10,-2,280,0
878626,-9,-44,292,0
878637,-3,-7,278,0
878648,-19,1,271,0
878659,-13,18,280,0
878670,-8,16,302,0
878681,3,-6,317,0
878693,10,-12,316,0
878703,18,2,311,0
878714,76,32,305,0
878725,103,36,280,0
878736,121,26,253,0
878747,136,9,210,0
878758,140,0,173,0
878769,139,-4,143,0
878781,130,-15,129,0
878793,123,-14,140,0
878803,108,-10,159,0
878814,91,-3,181,0
878825,70,0,202,0
878836,47,0,214,0
878847,22,6,235,0
878859,5,6,277,0
878869,4,2,268,0
878880,13,-1,260,0
878892,11,-2,250,0
878903,15,-5,249,0
878913,17,-3,245,0
878924,23,-2,236,0
878935,19,-2,226,0
878946,25,1,221,0
878957,27,-1,212,0
878968,28,-1,207,0
878979,28,-1,205,0
878991,30,-1,206,0
879001,26,0,201,0
879012,21,-2,197,0
879023,15,0,196,0
879034,6,0,204,0
879045,2,0,205,0
879056,1,-1,207,0
879067,0,-1,203,0
879078,-3,-1,196,0
879089,-6,-4,194,0
879100,-8,-9,193,0
879111,-9,-8,195,0
879122,-8,-7,198,0
879133,-8,-8,203,0
879144,-8,-5,207,0
879155,-13,0,211,0
879166,-20,3,216,0
879178,-27,3,225,0
879188,-36,2,232,0
879199,-58,13,250,0
879210,-63,16,251,0
879221,-62,7,244,0
879232,-52,-4,246,0
879243,-49,-8,237,0
879254,-40,-21,223,0
879265,-30,-25,224,0
879276,-19,-23,235,0
879287,-10,-25,250,0
879298,-5,-30,254,0
879309,0,-27,262,0
879320,2,-22,280,0
879331,-3,-21,288,0
879343,-9,-20,298,1
879353,-13,-22,299,0
879364,-9,-17,277,0
879375,51,-12,279,0
879386,62,74,378,0
879397,66,15,339,0
879408,118,4,340,0
879419,150,37,375,0
879430,176,48,407,0
879441,159,51,399,0
879453,118,19,282,0
879463,72,-26,183,0
879474,36,-54,151,0
879486,16,-59,130,0
879496,7,-61,124,0
879507,9,-56,118,0
879518,16,-50,116,0
879529,24,-22,131,0
879540,31,-3,155,0
879551,44,14,185,0
879562,60,25,211,0
879573,81,21,228,0
879584,95,20,236,0
879595,112,13,232,0
879606,117,2,215,0
879617,113,-2,206,0
879628,101,-1,211,0
879639,87,3,217,0
879650,77,4,216,0
879661,69,2,214,0
879672,60,-1,209,0
879683,56,0,207,0
879694,46,4,204,0
879705,36,5,202,0
879716,29,0,208,0
879728,26,0,213,0
879738,22,-1,218,0
879749,20,-2,224,0
879760,20,-4,222,0
879772,18,-6,217,0
879782,18,-6,211,0
879793,19,-5,210,0
879804,19,-2,214,0
879815,16,0,216,0
879826,12,0,218,0
879837,11,0,222,0
879848,11,3,228,0
879859,6,7,229,0
879870,5,5,227,0
879881,8,6,226,0
879893,11,1,221,0
879903,15,0,217,0
879914,14,-1,212,0
879925,14,-5,210,0
879936,15,-8,212,0
879947,14,-8,214,0
879958,16,-7,218,0
879969,16,-4,223,0
879980,19,-3,228,0
879992,17,-2,229,0
880003,19,4,234,0
880013,20,8,236,0
880024,8,6,239,0
880035,-1,6,238,0
880046,0,15,229,0
880058,6,31,242,1
880068,5,-6,270,0
880079,4,-20,277,0
880091,-10,-12,274,0
880101,-15,-8,273,0
880112,-9,4,295,0
880123,0,0,313,0
880134,19,-4,315,0
880145,34,7,315,0
880156,53,25,311,0
880167,77,46,296,0
880178,97,51,282,0
880189,115,10,219,0
880200,122,-4,184,0
880211,122,-18,150,0
880222,111,-27,128,0
880233,99,-33,126,0
880244,85,-27,133,0
880255,63,-20,144,0
880266,48,-11,161,0
880278,34,-2,184,0
880288,21,3,207,0
880299,12,12,237,0
880311,8,14,262,0
880321,15,10,279,0
880332,20,2,275,0
880343,24,3,268,0
880354,19,1,248,0
880365,19,3,240,0
880377,20,5,234,0
880387,22,1,229,0
880398,27,-1,223,0
880409,32,1,226,0
880420,34,2,230,0
880431,33,5,236,0
880442,33,7,235,0
880454,29,7,228,0
880464,23,7,223,0
880475,15,4,218,0
880486,8,4,220,0
880497,3,3,217,0
880508,-1,2,213,0
880519,-15,-6,204,0
880530,-18,-3,206,0
880541,-20,-1,208,0
880553,-19,0,211,0
880563,-13,6,219,0
880574,-4,7,230,0
880586,12,11,228,0
880596,24,8,242,0
880607,28,8,226,0
880618,18,22,217,0
880629,11,12,218,0
880640,5,8,218,0
880651,-7,2,227,0
880662,-14,-2,232,0
880673,-19,-4,232,0
880684,-25,1,237,0
880695,-35,7,239,0
880706,-44,17,238,0
880717,-40,17,247,0
880728,15,25,316,0
880740,15,75,368,1
880750,5,64,368,0
880762,37,30,347,0
880772,35,17,305,0
880783,50,-2,328,0
880794,66,1,340,0
880805,65,6,310,0
880816,66,-25,252,0
880828,54,-57,220,0
880838,52,-64,191,0
880849,46,-56,143,0
880860,51,-48,142,0
880871,54,-34,145,0
880882,57,-18,158,0
880893,58,-1,171,0
880906,61,7,186,0
880917,69,12,200,0
880928,77,16,219,0
880938,86,12,230,0
880949,84,2,230,0
880960,74,-5,228,0
880971,62,-7,222,0
880982,51,-10,219,0
880993,27,-11,205,0
881004,15,-15,206,0
881015,10,-13,210,0
881026,7,-12,214,0
881037,7,-6,216,0
881048,8,-2,222,0
881059,5,0,220,0
881070,3,0,223,0
881081,5,0,221,0
881093,10,0,220,0
881103,11,2,216,0
881114,15,4,215,0
881125,19,3,212,0
881136,20,2,211,0
881147,19,3,212,0
881158,14,8,221,0
881169,11,12,226,0
881180,11,13,229,0
881192,11,16,234,0
881203,10,17,237,0
881213,10,20,235,0
881224,11,19,232,0
881235,12,16,228,0
881246,14,15,225,0
881257,14,12,222,0
881268,17,5,223,0
881279,21,0,223,0
881291,25,-4,225,0
881301,29,-9,226,0
881312,28,-5,225,0
881323,26,0,227,0
881334,22,2,227,0
881345,18,1,228,0
881356,15,5,226,0
881367,11,10,222,0
881378,2,23,217,0
881389,2,23,208,0
881401,25,33,211,0
881411,28,13,251,0
881422,25,-11,273,0
881433,6,1,271,0
881444,-7,10,280,0
881455,-7,15,292,0
881467,0,17,302,1
881478,10,12,301,0
881488,34,24,302,0
881499,61,18,295,0
881510,78,8,277,0
881521,90,-2,256,0
881532,96,-10,238,0
881543,94,-17,217,0
881554,94,-26,193,0
881565,91,-28,171,0
881578,93,-29,156,0
881588,92,-24,154,0
881599,81,-12,160,0
881610,69,-9,165,0
881622,66,-2,177,1
881632,65,3,196,0
881643,58,14,249,0
881654,51,23,274,0
881665,51,27,291,0
881676,57,25,302,0
881687,57,20,292,0
881698,51,12,268,0
881709,45,9,247,0
881720,41,14,246,0
881731,36,17,243,0
881742,31,11,231,0
881753,31,9,222,0
881764,32,17,220,0
881775,36,18,223,0
881786,39,16,226,0
881797,42,14,223,0
881808,35,3,213,0
881819,33,12,210,0
881830,24,7,206,0
881841,20,7,207,0
881853,13,12,203,0
881863,2,15,197,0
881874,-2,12,198,0
881886,-10,12,201,0
881896,-10,7,203,0
881907,-7,6,198,0
881918,-5,7,193,0
881929,-3,10,189,0
881940,-2,11,191,0
881951,0,12,199,0
881962,-2,19,213,0
881973,-15,26,237,0
881984,-15,20,243,0
881995,-13,27,253,0
882006,-12,16,266,0
882017,-2,1,280,0
882028,4,2,279,0
882039,1,16,263,0
882050,-9,18,257,0
882061,-16,4,253,0
882072,2,-18,261,0
882084,49,4,333,1
882094,40,34,328,0
882106,46,-13,321,0
882117,39,1,275,0
882128,53,2,284,0
882139,69,-13,306,0
882150,59,-3,285,0
882161,48,-10,248,0
882172,38,-39,204,0
882183,31,-37,185,0
882194,38,-46,168,0
882205,39,-48,163,0
882216,43,-47,155,0
882228,45,-36,158,0
882238,53,-29,161,0
882249,59,-15,169,0
882260,66,-2,180,0
882271,75,6,199,0
882282,90,6,225,0
882293,89,1,221,0
882304,83,-4,222,0
882315,75,-4,223,0
882326,65,-6,217,0
882337,51,-2,210,0
882348,41,-1,209,0
882359,25,-4,209,0
882370,17,-2,215,0
882381,16,-4,220,0
882393,16,-2,224,0
882403,17,2,225,0
882414,18,6,228,0
882425,20,10,225,0
882436,20,8,221,0
882447,21,3,214,0
882458,19,1,210,0
882469,17,-1,209,0
882480,19,0,205,0
882492,18,2,208,0
882503,18,4,214,0
882513,19,8,224,0
882524,19,11,234,0
882535,16,13,237,0
882546,12,12,235,0
882557,14,9,234,0
882568,15,8,232,0
882579,7,7,228,0
882591,8,4,228,0
882601,8,3,231,0
882612,10,1,226,0
882624,18,-9,217,0
882635,17,-10,217,0
882646,14,-10,220,0
882657,15,-9,221,0
882668,17,-8,223,0
882679,16,-6,226,0
882691,12,-1,228,0
882701,4,1,233,0
882712,1,3,237,0
882724,0,6,240,1
882734,1,7,244,0
882745,-4,7,249,0
882756,-10,4,244,0
882767,-26,5,240,0
882778,-29,5,238,0
882789,-20,12,235,0
882800,-2,29,243,0
882811,-12,7,279,0
882822,-17,1,295,0
882833,-25,2,278,0
882845,-15,-2,263,1
882855,0,24,262,0
882866,2,22,277,0
882878,15,-12,292,0
882888,30,-21,294,0
882899,47,-18,283,0
882911,72,-9,266,0
882921,92,-6,239,0
882932,121,-15,184,0
882943,129,-16,167,0
882954,130,-13,158,0
882965,125,-10,158,0
882976,115,-4,169,0
882987,103,-1,187,0
882998,88,2,205,0
883009,66,0,217,0
883020,45,1,232,0
883031,23,6,247,0
883042,0,17,266,0
883053,-23,27,291,0
883065,-32,31,311,0
883075,-34,25,307,0
883086,-33,23,291,0
883097,-7,17,249,0
883108,1,13,224,0
883119,13,12,211,0
883130,22,13,203,0
883141,26,15,199,0
883153,35,9,200,0
883163,44,10,199,0
883174,50,12,203,0
883186,46,13,206,0
883196,41,8,204,0
883207,38,6,208,0
883218,32,7,204,0
883229,26,7,200,0
883240,19,2,200,0
883251,10,1,203,0
883262,3,2,206,0
883273,-10,-1,206,0
883284,-14,-3,207,0
883295,-13,-5,208,0
883306,-14,-6,207,0
883317,-16,-1,209,0
883328,-19,0,211,0
883339,-19,0,215,0
883350,-17,5,222,0
883361,-15,13,230,0
883372,-16,25,230,0
883383,-22,29,234,0
883394,-25,20,239,0
883405,-21,10,243,0
883417,-15,1,248,0
883428,-5,-5,249,0
883438,-3,0,253,0
883449,-1,-6,255,0
883460,25,-17,279,0
883471,61,0,355,0
883482,55,45,350,0
883493,62,6,345,0
883505,68,-22,326,1
883515,50,-17,292,0
883526,53,-22,282,0
883537,70,-30,314,0
883548,63,-4,304,0
883559,31,1,282,0
883570,9,-18,248,0
883581,-1,-19,208,0
883593,-9,-22,187,0
883603,-3,-47,163,0
883614,15,-34,164,0
883625,28,-30,172,0
883636,38,-23,182,0
883647,53,-11,192,0
883658,63,0,197,0
883669,74,12,203,0
883680,80,18,210,0
883692,83,22,216,0
883703,78,20,221,0
883713,66,19,226,0
883724,61,18,227,0
883735,59,11,220,0
883746,57,4,211,0
883757,57,0,212,0
883768,58,-4,213,0
883779,61,-7,213,0
883791,67,-4,215,0
883801,71,-1,219,0
883812,67,-6,219,0
883823,65,-2,220,0
883835,58,2,225,0
883846,46,3,228,0
883857,35,2,228,0
883868,25,2,226,0
883879,15,1,223,0
883891,6,0,221,0
883901,0,-1,219,0
883912,-6,-1,220,0
883923,-12,-3,220,0
883934,-13,-1,221,0
883945,-13,-1,225,0
883956,-8,1,230,0
883967,-3,0,231,0
883978,0,3,231,0
883989,-1,5,233,0
884000,0,4,228,0
884011,0,5,226,0
884023,0,6,224,0
884033,1,7,223,0
884044,2,4,222,0
884055,4,3,222,0
884066,10,1,221,0
884078,17,0,221,0
884088,21,-1,219,0
884099,26,-3,221,0
884110,29,-6,220,0
884122,28,-7,221,0
884132,28,-8,220,0
884143,24,-5,222,0
884154,19,-2,222,0
884165,15,1,222,0
884176,8,4,220,0
884187,3,3,220,0
884198,0,4,220,0
884209,-2,5,222,0
884220,-6,9,224,0
884232,-9,13,224,1
884242,1,14,220,0
884253,27,-9,268,0
884264,22,-25,270,0
884275,8,-8,262,0
884286,-6,3,273,0
884297,-22,0,296,0
884308,-26,-6,304,0
884319,-22,-6,300,0
884330,-15,-1,300,0
884341,-2,13,301,0
884353,19,35,296,0
884363,49,51,287,0
884374,76,54,268,0
884386,98,48,244,0
884396,114,41,221,0
884407,123,24,195,0
884418,123,-8,140,0
884429,109,-19,123,0
884440,90,-25,125,0
884451,71,-27,132,0
884462,55,-26,150,0
884473,42,-22,171,0
884484,36,-11,193,0
884495,29,-1,217,0
884506,24,8,250,0
884517,26,13,278,0
884528,32,12,298,0
884539,35,17,307,0
884550,36,19,302,0
884561,37,17,291,0
884572,39,15,285,0
884583,37,17,261,0
884594,36,13,243,0
884605,35,9,228,0
884616,35,10,220,0
884628,36,9,218,0
884638,33,12,220,0
884649,32,16,225,0
884660,32,13,226,0
884671,31,11,226,0
884683,31,12,222,0
884694,36,14,224,0
884705,34,21,226,0
884716,33,23,224,0
884728,28,22,214,0
884738,23,24,212,0
884749,20,24,210,0
884760,16,24,211,0
884771,12,26,213,0
884782,5,18,222,0
884793,3,2,228,0
884804,14,16,240,0
884815,9,36,245,0
884826,-6,38,241,0
884837,-10,52,237,0
884848,-1,64,244,0
884859,7,60,250,0
884870,10,46,253,0
884881,20,35,222,0
884893,14,43,222,0
884903,22,14,225,0
884914,20,13,220,0
884925,18,14,213,0
884937,19,11,203,1
884947,23,8,206,0
884958,18,6,204,0
884969,15,6,213,0
884980,15,9,212,0
884992,15,10,212,0
885003,34,10,224,0
885013,62,41,271,0
885024,58,77,288,0
885035,72,64,297,0
885046,84,52,306,0
885057,83,53,319,0
885068,47,32,282,0
885080,31,-3,239,1
885091,20,-24,208,0
885101,16,-31,193,0
885112,22,-39,190,0
885123,35,-42,189,0
885134,44,-33,189,0
885145,53,-18,191,0
885156,61,-2,195,0
885167,64,5,196,0
885178,66,11,201,0
885189,67,19,205,0
885200,68,25,210,0
885211,71,30,215,0
885222,76,32,222,0
885233,78,25,219,0
885244,74,25,218,0
885255,72,18,214,0
885266,67,20,215,0
885278,63,19,214,0
885288,59,19,212,0
885299,54,21,213,0
885310,50,21,218,0
885321,45,23,226,0
885332,43,22,232,0
885343,42,24,228,0
885354,41,27,230,0
885365,40,31,232,0
885376,42,30,234,0
885387,43,29,232,0
885398,48,29,224,0
885409,52,26,219,0
885420,56,27,217,0
885431,57,26,214,0
885442,60,27,216,0
885453,61,25,219,0
885464,64,28,221,0
885475,64,32,223,0
885486,61,35,226,0
885497,56,36,230,0
885508,50,34,232,0
885519,45,31,232,0
885530,43,32,232,0
885541,39,38,230,0
885553,36,43,227,0
885563,38,40,230,0
885574,41,39,229,0
885586,43,40,231,0
885596,46,39,230,0
885607,47,33,233,0
885618,49,22,234,0
885629,48,23,227,0
885640,48,29,223,0
885651,48,35,222,0
885662,49,41,222,0
885673,44,38,226,0
885684,37,36,230,0
885695,34,35,230,0
885706,27,40,226,0
885717,17,43,223,0
885728,7,45,225,0
885739,7,50,229,0
885751,6,51,232,1
885761,13,55,233,0
885772,31,67,232,0
885783,46,79,252,0
885794,51,54,276,0
885805,39,29,287,0
885816,18,18,280,0
885828,2,15,269,0
885838,2,23,270,0
885849,9,29,280,0
885860,17,33,286,0
885871,26,39,275,0
885883,37,38,258,1
885893,72,32,221,0
885904,82,21,203,0
885916,93,12,191,0
885926,100,5,182,0
885937,101,1,178,0
885948,90,-6,167,0
885959,83,-9,164,0
885970,80,-9,170,0
885981,79,-8,177,0
885993,78,-6,189,0
886003,74,5,202,0
886014,67,15,231,0
886025,59,16,253,0
886036,55,17,271,0
886047,49,25,285,0
886059,45,15,267,0
886069,49,24,253,0
886080,44,18,235,0
886092,43,16,225,0
886103,41,17,219,0
886113,37,15,214,0
886124,33,10,208,0
886135,30,15,212,0
886146,29,17,218,0
886157,26,20,228,0
886168,25,22,233,0
886179,26,23,234,0
886191,29,24,233,0
886201,34,24,234,0
886212,42,24,239,0
886223,54,16,239,0
886234,57,10,237,0
886245,56,5,233,0
886256,50,3,226,0
886267,38,0,219,0
886278,26,-1,213,0
886289,16,-1,212,0
886300,7,0,209,0
886311,1,0,208,0
886322,1,1,211,0
886333,3,6,215,0
886344,9,12,216,0
886355,18,19,215,0
886366,20,18,206,0
886378,18,20,204,0
886388,10,14,205,0
886399,7,9,203,0
886410,0,5,203,0
886421,-6,0,208,0
886432,-9,-1,211,0
886443,-11,-4,214,0
886454,-17,-4,214,0
886465,-22,0,218,0
886476,-24,3,224,0
886487,-25,10,234,0
886498,-21,14,248,0
886509,-15,16,258,0
886521,-11,16,266,0
886531,-8,14,269,0
886542,18,6,290,0
886554,62,95,368,1
886564,67,33,380,0
886575,93,-2,353,0
886586,100,-1,340,0
886597,87,-16,344,0
886608,76,-25,302,0
886619,54,-47,256,0
886630,27,-54,211,0
886641,12,-51,179,0
886653,15,-61,163,0
886663,27,-54,149,0
886674,32,-45,144,0
886686,38,-36,150,0
886696,41,-33,159,0
886707,43,-24,170,0
886718,53,-2,214,0
886730,62,2,230,0
886740,74,-2,233,0
886751,82,-13,229,0
886762,83,-21,216,0
886773,78,-23,211,0
886784,73,-25,204,0
886795,66,-24,201,0
886806,57,-25,199,0
886817,49,-25,200,0
886828,52,-23,205,0
886839,51,-17,210,0
886850,51,-14,212,0
886861,53,-9,216,0
886872,51,-7,218,0
886883,46,-3,218,0
886894,42,-1,216,0
886905,35,-1,211,0
886917,33,-3,206,0
886928,28,-3,205,0
886938,22,-2,206,0
886949,18,-3,211,0
886960,12,0,220,0
886971,6,1,228,0
886982,2,-2,231,0
886993,-1,-3,233,0
887004,-1,-5,229,0
887015,-2,-4,225,0
887026,0,-4,227,0
887038,2,-4,229,0
887048,9,-9,226,0
887059,12,-5,226,0
887070,16,-9,225,0
887081,20,-11,221,0
887093,25,-13,216,0
887103,24,-14,216,0
887114,23,-17,216,0
887125,19,-15,213,0
887136,15,-12,212,0
887147,5,-7,219,0
887158,2,-7,219,0
887169,1,-3,221,0
887180,0,2,226,0
887192,-6,3,232,0
887203,-14,-1,237,0
887213,-21,0,243,0
887225,-7,6,231,1
887235,1,10,254,0
887246,-16,-42,279,0
887257,-2,-25,270,0
887268,-19,-13,267,0
887279,-19,-8,276,0
887291,-8,13,285,0
887301,1,6,301,0
887312,12,-13,313,0
887323,30,-11,322,0
887334,52,6,323,0
887345,76,27,315,0
887356,102,41,294,0
887367,122,39,263,0
887378,133,27,224,0
887389,142,0,153,0
887400,136,-7,136,0
887411,123,-9,133,0
887422,106,-12,137,0
887433,88,-13,150,0
887444,69,-8,177,0
887455,58,-1,203,0
887466,38,3,219,0
887478,20,18,239,0
887488,7,29,262,0
887499,0,22,282,0
887510,-3,20,280,0
887521,-2,16,275,0
887532,-3,12,258,0
887543,-4,9,253,0
887554,3,10,236,0
887565,2,6,219,0
887576,3,7,207,0
887587,9,11,209,0
887598,15,8,208,0
887609,16,2,204,0
887620,15,5,210,0
887631,13,5,214,0
887642,11,3,213,0
887653,9,1,213,0
887664,9,-1,210,0
887675,9,-2,209,0
887686,9,-2,208,0
887697,6,-3,202,0
887708,-2,-5,198,0
887719,-7,-7,196,0
887730,-10,-4,196,0
887741,-15,-4,197,0
887753,-17,-5,201,0
887763,-20,-2,207,0
887774,-22,-1,212,0
887786,-24,1,217,0
887796,-25,4,225,0
887807,-22,3,227,0
887818,-21,5,233,0
887829,-17,8,244,0
887840,-27,28,256,0
887851,-35,25,270,0
887862,-39,4,274,0
887873,-35,-13,272,0
887884,-21,-7,266,0
887896,-14,-16,271,1
887906,29,-31,318,0
887917,52,20,389,0
887928,29,47,363,0
887939,31,-12,338,0
887950,32,-24,317,0
887961,34,-21,309,0
887972,56,-7,338,0
887983,51,9,323,0
887994,35,6,285,0
888005,37,-20,234,0
888016,27,-25,193,0
888028,24,-42,161,0
888038,50,-47,139,0
888049,60,-40,146,0
888060,69,-29,152,0
888071,72,-16,163,0
888082,75,-10,175,0
888093,81,-3,189,0
888104,84,0,202,0
888115,86,0,215,0
888126,85,-4,217,0
888137,87,-5,221,0
888149,86,-9,217,0
888160,83,-9,215,0
888170,72,-4,216,0
888181,61,-2,217,0
888193,55,-3,212,0
888203,48,-11,208,0
888214,45,-3,212,0
888225,44,0,215,0
888236,39,1,219,0
888247,36,2,220,0
888259,30,3,217,0
888270,21,0,215,0
888281,11,3,219,0
888293,8,1,218,0
888303,2,0,217,0
888314,-2,2,220,0
888325,-5,2,217,0
888336,-8,2,216,0
888347,-10,3,218,0
888358,-4,5,227,0
888369,-2,6,231,0
888380,-1,3,232,0
888392,-3,1,222,0
888403,-4,0,220,0
888413,-2,1,222,0
888424,0,1,218,0
888435,0,1,220,0
888446,2,2,220,0
888457,1,3,218,0
888468,2,2,220,0
888479,2,0,219,0
888491,4,-5,215,0
888501,5,-6,213,0
888512,4,-7,209,0
888523,4,0,214,0
888534,2,6,216,0
888545,-2,9,216,0
888556,-12,4,216,0
888567,-20,1,220,0
888579,-26,-1,218,1
888589,-10,4,214,0
888600,-12,-9,258,0
888611,-26,-45,271,0
888622,-27,-25,269,0
888633,-42,-13,278,0
888644,-42,-7,292,0
888655,-30,-1,306,0
888666,-9,-10,315,0
888678,12,-13,320,0
888688,60,14,338,0
888699,86,24,328,0
888710,107,36,310,0
888721,123,38,280,0
888732,133,26,244,0
888743,138,16,209,0
888754,134,0,175,0
888765,129,-13,143,0
888776,119,-25,123,0
888787,103,-28,124,0
888798,85,-30,139,0
888809,69,-26,166,0
888820,57,-21,185,0
888831,46,-5,207,0
888842,34,1,218,0
888853,9,28,260,0
888864,11,29,287,0
888875,10,17,286,0
888887,6,18,278,0
888898,5,10,273,0
888909,6,6,254,0
888920,5,6,236,0
888931,5,2,222,0
888942,8,-1,212,0
888953,12,-1,206,0
888964,18,-3,198,0
888975,30,-3,194,0
888986,33,-3,193,0
888997,37,-5,195,0
889008,35,-5,205,0
889019,28,-6,208,0
889030,24,-10,211,0
889041,20,-12,215,0
889053,12,-13,209,0
889063,5,-15,203,0
889074,2,-14,197,0
889086,0,-16,196,0
889096,-2,-15,194,0
889107,-4,-18,193,0
889118,-5,-18,196,0
889129,-3,-16,200,0
889140,-3,-13,202,0
889151,-5,-7,209,0
889162,-7,-2,216,0
889173,-11,8,236,0
889184,-24,37,245,0
889195,-41,34,260,0
889206,-49,17,264,0
889217,-46,2,257,0
889228,-36,-5,257,0
889239,-28,-6,263,0
889250,-25,-6,272,0
889261,-20,-19,282,0
889273,3,-39,294,1
889283,58,-37,353,0
889294,70,21,387,0
889305,59,17,356,0
889316,61,-15,321,0
889328,61,-18,288,0
889338,80,-23,285,0
889349,72,-18,268,0
889360,61,-14,238,0
889371,63,-24,221,0
889382,61,-8,189,0
889393,58,23,193,0
889404,72,-76,171,0
889416,62,14,161,0
889426,72,-21,160,0
889437,64,-1,164,0
889448,69,3,178,0
889459,73,4,191,0
889470,79,2,208,0
889482,80,0,222,0
889493,85,-3,224,0
889503,99,-15,222,0
889514,103,-17,217,0
889525,99,-18,212,0
889536,87,-8,206,0
889547,75,-6,201,0
889558,68,-3,204,0
889569,64,1,209,0
889580,61,14,215,0
889592,63,19,225,0
889603,62,23,230,0
889613,56,19,225,0
889624,52,13,222,0
889635,47,9,223,0
889646,44,7,218,0
889659,33,-1,214,0
889669,31,-1,214,0
889680,29,-1,217,0
889692,27,0,220,0
889703,24,4,228,0
889713,17,5,236,0
889724,10,3,237,0
889735,-2,4,231,0
889746,-11,4,232,0
889757,-12,1,229,0
889768,-13,2,224,0
889779,-17,1,223,0
889791,-19,0,224,0
889801,-21,2,222,0
889812,-13,6,225,0
889823,-13,5,218,0
889834,-13,1,209,0
889845,-10,-1,205,0
889856,-8,1,211,0
889867,-9,5,217,0
889878,-9,5,222,0
889889,-6,2,225,0
889900,-5,2,228,0
889911,-5,3,231,0
889922,-7,8,231,0
889933,-7,8,231,0
889944,-10,7,229,0
889955,-17,0,231,0
889966,-20,-1,229,0
889978,-27,-9,237,0
889989,-25,-7,243,1
889999,-20,-1,247,0
890010,-4,5,246,0
890021,5,-6,265,0
890032,0,-43,284,0
890044,0,-16,266,0
890054,-20,-3,253,0
890065,-36,-12,259,0
890076,-29,2,264,0
890087,-26,7,270,0
890098,-22,0,278,0
890109,-9,2,275,0
890120,7,12,278,0
890131,34,17,281,0
890142,67,26,279,0
890153,138,35,237,0
890164,153,25,206,0
890175,159,12,178,0
890186,156,-7,146,0
890197,153,-14,134,0
890208,137,-11,143,0
890219,115,-6,165,0
890230,89,0,194,0
890241,55,2,216,0
890253,29,0,236,0
890264,10,15,264,0
890275,-4,14,286,0
890286,-10,21,305,0
890297,5,8,288,0
890308,10,2,266,0
890319,13,4,259,0
890330,17,5,254,0
890341,26,2,246,0
890353,32,0,231,0
890363,41,0,228,0
890374,40,-1,211,0
890386,41,-5,196,0
890396,37,-4,193,0
890407,29,-3,192,0
890418,22,-4,194,0
890429,17,-2,199,0
890440,10,-1,205,0
890451,3,-4,208,0
890462,1,-8,210,0
890473,-1,-10,209,0
890484,0,-14,209,0
890495,0,-19,209,0
890506,-2,-15,204,0
890517,-9,-10,205,0
890528,-10,-10,207,0
890539,-9,-13,206,0
890550,-8,-12,209,0
890561,-8,-3,214,0
890572,-11,-1,219,0
890583,-17,0,222,0
890594,-23,0,225,0
890605,-29,2,223,0
890616,-36,0,223,0
890628,-43,-3,218,0
890638,-46,-8,214,0
890649,-45,-8,217,0
890660,-43,-9,217,0
890671,-39,-8,220,0
890682,-31,-16,223,0
890693,-22,-21,223,0
890704,-11,-25,223,0
890715,-1,-28,229,0
890726,5,-29,240,0
890737,15,-26,246,0
890748,20,-19,254,0
890759,25,-19,261,0
890770,29,-24,273,0
890781,32,-23,282,0
890793,28,-24,279,0
890803,19,-36,271,0
890814,33,-43,270,0
890825,125,-37,353,0
890836,75,71,374,0
890847,89,-15,313,0
890859,140,-35,307,0
890870,161,-12,345,1
890880,180,13,396,0
890892,149,32,352,0
890903,104,11,278,0
890913,61,12,226,0
890924,5,8,191,0
890935,-49,-5,137,0
890946,-36,-78,194,0
890957,-24,-46,107,0
890968,3,-55,132,0
890979,12,-9,143,0
890991,35,-7,163,0
891001,50,13,183,0
891012,69,10,197,0
891023,90,6,211,0
891034,114,2,221,0
891045,127,4,224,0
891056,129,3,218,0
891067,121,0,216,0
891078,112,0,228,0
891089,100,2,232,0
891100,95,-3,224,0
891111,90,-5,213,0
891122,80,-5,202,0
891133,60,-3,196,0
891144,51,-3,201,0
891155,46,2,207,0
891166,45,7,214,0
891178,34,12,217,0
891188,24,15,223,0
891199,21,12,229,0
891210,13,12,231,0
891221,7,8,230,0
891232,6,7,225,0
891243,9,3,223,0
891255,8,0,218,0
891265,5,-2,211,0
891276,3,0,211,0
891287,3,-1,214,0
891298,7,-4,217,0
891309,12,-2,222,0
891320,15,-2,224,0
891331,13,0,224,0
891342,14,-1,226,0
891353,16,-1,229,0
891364,13,0,230,0
891375,13,0,227,0
891386,16,-2,226,0
891397,20,-2,226,0
891408,23,-3,225,0
891419,22,-3,222,0
891430,24,-5,216,0
891441,25,-9,213,0
891453,23,-9,209,0
891463,17,-8,212,0
891474,16,-4,212,0
891486,12,-1,214,0
891496,4,2,218,0
891507,1,3,223,0
891518,-4,3,227,0
891529,-12,0,234,0
891541,-20,-6,240,1
891551,-23,-7,241,0
891562,-27,-3,242,0
891573,-23,2,240,0
891584,8,17,230,0
891595,3,-16,274,0
891606,6,-53,279,0
891617,3,-22,262,0
891628,0,10,276,0
891639,13,21,281,0
891650,22,-8,298,0
891661,34,-17,307,0
891672,47,-3,309,0
891683,68,21,308,0
891694,94,37,301,0
891705,112,39,279,0
891716,126,27,247,0
891728,134,18,212,0
891738,137,11,178,0
891749,129,3,152,0
891760,117,-3,135,0
891771,99,-11,134,0
891782,84,-7,155,0
891793,48,3,187,0
891804,28,5,198,0
891815,14,13,219,0
891826,11,15,247,0
891837,10,16,265,0
891848,11,15,271,0
891859,17,13,273,0
891870,15,10,265,0
891881,16,6,260,0
891893,14,3,256,0
891904,11,3,245,0
891916,12,4,236,0
891926,18,5,235,0
891937,23,2,226,0
891949,31,0,218,0
891960,29,-1,213,0
891971,28,-3,212,0
891982,27,-3,217,0
891993,24,-6,217,0
892004,22,-7,220,0
892015,14,-3,218,0
892026,6,-3,217,0
892037,0,-5,213,0
892048,-5,-5,206,0
892059,-7,-7,201,0
892070,-8,-8,197,0
892081,-11,-10,197,0
892093,-9,-13,197,0
892103,-4,-12,194,0
892114,0,0,188,0
892125,-5,15,190,0
892136,-10,17,209,0
892147,-12,11,227,0
892158,-12,10,234,0
892169,-14,9,233,0
892180,-16,8,232,0
892192,-19,14,239,0
892203,-22,16,245,0
892213,-25,8,261,0
892224,-22,0,264,0
892235,-17,1,261,0
892246,-15,11,260,0
892257,16,-3,292,0
892268,57,9,374,0
892279,50,47,355,0
892291,58,0,354,0
892301,61,-17,323,0
892312,58,-5,310,0
892324,73,-2,349,1
892334,62,16,347,0
892345,32,6,295,0
892356,24,-24,235,0
892367,9,-32,190,0
892378,2,-43,164,0
892389,19,-51,147,0
892401,29,-57,141,0
892412,50,-42,153,0
892423,54,-31,162,0
892434,60,-12,181,0
892445,67,0,194,0
892456,69,9,206,0
892467,71,8,220,0
892478,70,9,231,0
892489,69,2,229,0
892500,64,1,224,0
892511,61,-5,220,0
892522,62,-9,217,0
892533,59,-11,214,0
892544,57,-13,210,0
892555,57,-16,210,0
892566,54,-14,209,0
892578,47,-10,211,0
892588,46,-7,216,0
892599,44,-1,221,0
892610,41,0,223,0
892621,37,0,222,0
892632,29,1,223,0
892643,23,0,222,0
892654,18,-2,218,0
892665,12,-2,214,0
892676,7,-2,212,0
892687,4,-5,210,0
892698,5,-4,213,0
892709,1,-2,217,0
892720,0,0,224,0
892731,-3,0,232,0
892742,-5,1,239,0
892753,-2,1,238,0
892764,-2,2,233,0
892775,-1,1,227,0
892786,1,-2,227,0
892797,4,-2,221,0
892808,9,-5,218,0
892819,14,-7,216,0
892830,19,-10,216,0
892841,22,-13,215,0
892853,25,-18,213,0
892863,27,-20,215,0
892874,29,-20,217,0
892886,30,-18,220,0
892896,27,-14,222,0
892907,19,-3,221,0
892918,13,2,220,0
892929,7,8,223,0
892940,1,11,227,0
892951,-5,7,229,0
892962,-12,2,227,0
892973,-18,3,226,0
892984,-20,2,228,0
892995,-10,3,227,0
893007,8,11,243,1
893017,1,-21,271,0
893028,1,-22,274,0
893039,-10,-9,263,0
893050,-24,-9,273,0
893061,-16,16,283,0
893072,-1,2,288,0
893083,5,-5,286,0
893094,16,1,288,0
893105,43,10,300,0
893116,71,21,298,0
893128,92,28,292,0
893138,109,27,273,0
893149,117,21,250,0
893160,115,14,220,0
893171,117,4,196,0
893182,114,-12,171,0
893193,107,-22,151,0
893204,98,-31,137,0
893215,89,-32,136,0
893226,78,-31,148,0
893237,62,-22,181,0
893248,60,-18,200,0
893259,57,-7,216,0
893270,50,6,232,0
893281,39,13,249,0
893293,31,22,274,0
893303,26,20,289,0
893314,15,16,288,0
893325,8,16,283,0
893336,9,12,272,0
893347,13,8,260,0
893358,12,4,251,0
893369,15,-1,242,0
893380,19,-4,226,0
893391,25,-4,214,0
893403,32,0,212,0
893413,34,1,215,0
893424,35,-1,217,0
893435,35,-1,216,0
893446,33,-2,214,0
893457,28,-4,215,0
893468,22,-3,213,0
893479,17,-3,214,0
893491,12,-4,213,0
893501,5,-3,213,0
893512,3,-8,209,0
893523,1,-10,208,0
893534,0,-12,207,0
893545,0,-12,205,0
893556,1,-17,206,0
893567,7,-10,196,0
893578,2,2,201,0
893589,-3,5,208,0
893600,-11,6,217,0
893611,-15,6,221,0
893622,-18,11,226,0
893633,-22,14,226,0
893644,-20,18,230,0
893655,-22,28,237,0
893666,-26,20,243,0
893678,-20,5,241,0
893688,-13,1,240,0
893699,-6,-1,239,0
893710,1,-2,242,0
893721,2,-5,244,0
893732,-7,-1,257,0
893743,-14,0,259,0
893754,8,-13,289,0
893765,58,15,375,0
893776,54,60,359,0
893787,60,13,346,0
893798,81,-17,327,0
893810,73,-11,281,1
893820,67,-16,261,0
893831,84,-17,288,0
893842,76,5,299,0
893853,41,0,277,0
893864,35,-31,239,0
893875,27,-36,207,0
893886,12,-30,180,0
893897,30,-47,159,0
893908,41,-39,160,0
893919,54,-26,169,0
893930,64,-15,182,0
893941,73,1,192,0
893953,84,11,197,0
893963,92,13,207,0
893974,95,13,218,0
893986,92,14,225,0
893996,88,9,224,0
894007,80,5,222,0
894018,72,3,215,0
894029,72,3,210,0
894040,68,2,206,0
894051,72,-2,209,0
894062,69,-3,219,0
894073,68,-6,221,0
894084,66,-8,221,0
894095,65,-7,222,0
894106,65,-1,225,0
894117,62,-3,222,0
894128,54,-3,222,0
894139,47,-5,221,0
894150,38,-5,219,0
894161,31,-5,219,0
894172,23,-8,217,0
894183,20,-9,217,0
894194,16,-7,218,0
894205,13,-6,222,0
894216,9,-9,224,0
894228,10,0,227,0
894238,9,-2,229,0
894249,8,-1,230,0
894260,8,-1,230,0
894271,12,-3,229,0
894282,13,-5,228,0
894293,14,-3,228,0
894305,15,-3,228,0
894315,16,-9,223,0
894326,20,-10,224,0
894337,22,-11,223,0
894348,24,-10,224,0
894359,25,-9,223,0
894370,26,-10,221,0
894381,26,-10,222,0
894393,26,-10,222,0
894403,26,-10,223,0
894414,23,-12,223,0
894425,22,-11,224,0
894436,21,-10,221,0
894447,20,-8,223,0
894458,17,-4,223,0
894469,16,-1,224,0
894480,13,0,226,0
894492,13,0,226,0
894503,12,1,226,0
894513,10,-3,225,0
894524,8,-6,224,0
894535,7,-11,224,0
894547,4,-13,225,1
894557,3,-11,221,0
894568,15,-1,220,0
894579,24,-7,229,0
894591,28,-19,229,0
894601,29,-20,228,0
894612,17,-28,226,0
894623,6,-17,226,0
894634,-8,-7,235,0
894645,-17,-4,250,0
894656,-14,7,263,0
894668,6,21,278,1
894678,31,28,288,0
894689,56,35,298,0
894700,80,43,301,0
894711,110,53,295,0
894722,130,54,283,0
894733,128,37,251,0
894744,119,16,229,0
894755,106,2,211,0
894766,89,-8,194,0
894778,69,-14,186,0
894788,56,-21,179,0
894799,47,-19,176,0
894810,47,-19,176,0
894821,50,-17,179,0
894832,56,-14,184,0
894843,62,-11,188,0
894854,71,-9,194,0
894865,79,-3,201,0
894876,84,0,210,0
894887,87,0,219,0
894898,74,0,243,0
894909,66,-1,250,0
894920,58,1,254,0
894931,50,8,255,0
894942,40,11,256,0
894953,28,16,261,0
894964,20,12,261,0
894975,11,11,265,0
894986,7,9,262,0
894998,9,7,256,0
895008,13,7,248,0
895019,19,8,244,0
895030,26,10,238,0
895041,31,11,240,0
895053,35,7,237,0
895063,47,15,220,0
895074,47,14,209,0
895086,46,16,208,0
895097,47,16,211,0
895108,48,15,215,0
895119,47,13,213,0
895130,43,15,214,0
895141,41,14,217,0
895153,39,16,218,0
895163,37,17,222,0
895174,35,17,224,0
895186,37,17,227,0
895196,34,20,227,0
895207,34,21,228,0
895218,33,23,227,0
895229,35,24,229,0
895240,37,25,229,0
895252,41,26,232,0
895262,39,24,239,0
895273,43,10,247,0
895284,47,13,249,0
895295,48,31,246,0
895306,38,33,243,0
895318,29,35,241,0
895329,24,38,238,0
895340,28,29,236,0
895351,29,25,238,0
895362,19,24,230,0
895373,15,22,231,0
895384,15,23,226,0
895395,26,30,225,0
895406,42,40,228,0
895417,52,57,220,0
895428,60,79,217,0
895440,73,79,216,1
895450,82,72,223,0
895461,83,66,220,0
895472,78,56,212,0
895483,69,44,207,0
895494,64,33,203,0
895505,60,28,203,0
895516,54,20,204,0
895528,47,14,217,0
895538,45,17,218,0
895549,49,22,217,0
895560,59,23,217,0
895571,70,20,225,0
895582,78,20,222,0
895593,78,19,221,0
895604,75,9,216,0
895616,66,5,213,1
895628,61,2,213,0
895638,56,0,219,0
895649,55,3,226,0
895660,57,8,233,0
895671,59,14,236,0
895682,63,19,230,0
895693,65,17,227,0
895704,64,13,224,0
895715,62,9,225,0
895726,51,7,219,0
895737,43,5,219,0
895748,34,6,224,0
895759,28,8,228,0
895770,25,10,227,0
895781,23,10,225,0
895793,25,9,227,0
895803,24,11,230,0
895814,24,12,231,0
895825,24,14,231,0
895836,24,14,235,0
895847,27,18,235,0
895858,29,15,231,0
895869,28,16,228,0
895880,28,17,227,0
895892,26,20,226,0
895903,27,17,226,0
895913,26,18,227,0
895924,27,19,230,0
895935,29,21,231,0
895946,28,20,232,0
895957,33,20,233,0
895968,34,21,234,0
895979,35,19,230,0
895991,33,18,229,0
896001,35,21,232,0
896012,29,21,228,0
896024,28,21,227,0
896034,26,24,227,0
896045,23,24,229,0
896056,21,25,231,0
896067,20,26,228,0
896078,17,24,226,0
896089,14,23,224,0
896100,11,24,223,0
896111,9,27,224,0
896122,6,30,223,0
896133,6,34,227,0
896144,8,37,231,0
896155,10,42,230,0
896166,8,53,227,0
896178,-4,63,231,1
896188,-7,65,229,0
896199,-11,67,229,0
896210,-8,66,224,0
896221,-7,65,238,0
896232,-4,62,249,0
896243,1,75,263,0
896254,0,65,273,0
896265,4,61,280,0
896276,8,59,290,0
896287,21,49,291,0
896298,38,42,283,0
896309,52,34,271,0
896320,63,34,262,0
896331,71,30,256,0
896342,87,27,249,0
896353,94,24,245,0
896364,98,20,239,0
896375,100,11,231,0
896386,99,2,220,0
896397,94,-3,211,0
896408,90,-13,198,0
896419,90,-18,188,0
896430,94,-21,180,0
896441,98,-22,179,0
896453,97,-24,181,0
896463,93,-21,189,0
896474,86,-22,198,0
896486,81,-16,207,0
896496,75,-8,221,0
896507,61,0,239,0
896518,53,1,249,0
896529,46,0,255,0
896540,40,1,257,0
896551,39,1,254,0
896562,37,-1,244,0
896573,37,-3,236,0
896584,35,-3,232,0
896595,32,-1,228,0
896606,34,-2,223,0
896617,36,-3,221,0
896628,36,0,221,0
896639,36,0,219,0
896650,38,1,219,0
896661,42,4,222,0
896672,47,6,222,0
896685,50,4,212,0
896695,49,3,206,0
896706,46,4,203,0
896717,41,4,202,0
896728,33,6,204,0
896739,26,8,209,0
896750,20,7,211,0
896761,11,11,215,0
896772,3,11,212,0
896783,1,8,212,0
896794,0,8,212,0
896805,0,9,212,0
896816,-4,13,211,0
896828,-7,15,214,0
896838,-7,15,221,0
896849,-4,15,228,0
896860,-4,13,231,0
896871,-5,8,233,0
896882,-6,5,231,0
896893,-5,2,226,0
896904,-7,1,223,0
896916,-6,0,226,0
896926,-2,1,233,0
896937,-1,9,242,0
896948,-4,13,250,0
896959,-4,17,257,0
896970,-6,20,261,0
896981,-14,21,260,0
896993,-27,26,252,0
897003,-23,19,266,0
897014,53,4,364,0
897025,44,95,379,0
897037,23,43,338,1
897047,53,-10,294,0
897058,64,-14,285,0
897069,80,-25,325,0
897080,88,-14,326,0
897093,76,-4,279,0
897103,63,-20,221,0
897114,41,-42,195,0
897125,32,-41,175,0
897136,41,-49,158,0
897148,50,-49,146,1
897158,47,-37,150,0
897169,52,-29,156,0
897180,56,-22,165,0
897192,62,-17,190,0
897203,69,-15,212,0
897213,79,-12,232,0
897224,87,-17,239,0
897235,90,-20,230,0
897246,86,-20,222,0
897257,79,-16,215,0
897268,71,-16,205,0
897279,60,-21,202,0
897291,48,-19,202,0
897301,42,-17,201,0
897312,31,-10,216,0
897323,30,-8,223,0
897334,32,-9,224,0
897345,31,-7,225,0
897356,33,-6,224,0
897367,33,-6,224,0
897378,33,-6,216,0
897389,31,-7,210,0
897400,31,-5,207,0
897411,34,-5,205,0
897422,31,-6,210,0
897433,29,-7,214,0
897444,25,-5,218,0
897455,21,-6,226,0
897466,14,-2,232,0
897478,3,-5,233,0
897488,1,-7,232,0
897499,0,-8,226,0
897510,0,-10,223,0
897521,0,-8,222,0
897532,0,-6,223,0
897543,4,-8,223,0
897554,7,-9,220,0
897565,11,-12,217,0
897576,14,-12,215,0
897587,14,-12,216,0
897598,20,-9,217,0
897609,21,-5,218,0
897620,23,-2,219,0
897631,22,1,220,0
897642,11,11,223,0
897654,2,12,223,1
897664,-4,6,229,0
897675,-9,6,233,0
897686,-13,8,233,0
897697,-23,9,236,0
897708,-29,8,238,0
897719,-26,10,235,0
897730,2,20,221,0
897741,3,-5,263,0
897753,4,-39,276,0
897763,5,-2,261,0
897775,-8,-5,261,1
897786,-3,9,273,0
897796,-4,18,294,0
897807,16,-11,313,0
897818,26,1,323,0
897829,53,10,330,0
897840,81,18,321,0
897851,101,28,305,0
897862,112,27,273,0
897873,128,17,244,0
897884,132,5,206,0
897895,130,-6,176,0
897906,129,-17,146,0
897917,126,-24,133,0
897928,118,-27,134,0
897939,104,-29,138,0
897950,91,-25,148,0
897961,80,-20,169,0
897972,50,6,215,0
897983,37,5,233,0
897994,14,20,252,0
898005,15,15,275,0
898016,19,14,286,0
898028,15,14,278,0
898038,16,12,270,0
898049,17,9,261,0
898060,19,7,246,0
898071,22,3,236,0
898082,22,2,228,0
898093,23,0,219,0
898104,26,-2,214,0
898115,27,0,213,0
898126,31,0,213,0
898137,28,-6,201,0
898149,26,-7,201,0
898159,27,-10,205,0
898170,24,-13,205,0
898181,19,-13,208,0
898193,10,-12,208,0
898203,2,-10,208,0
898214,-3,-13,207,0
898225,-10,-16,204,0
898236,-15,-18,202,0
898247,-19,-23,205,0
898258,-16,-25,201,0
898269,-12,-25,200,0
898280,-9,-22,201,0
898292,-10,-16,208,0
898303,-8,-6,220,0
898313,-13,2,225,0
898324,-17,9,231,0
898335,-18,8,232,0
898346,-19,8,237,0
898357,-18,1,241,0
898369,-16,-14,242,0
898380,-6,-27,252,0
898392,0,-35,259,1
898403,1,-29,264,0
898413,8,-30,274,0
898424,46,-23,332,0
898435,54,36,361,0
898446,29,40,330,0
898457,50,-18,304,0
898468,95,-5,369,0
898479,81,30,374,0
898491,61,7,306,0
898501,58,-25,244,0
898512,51,-16,212,0
898523,36,-28,184,0
898534,30,-37,166,0
898545,29,-39,157,0
898556,31,-36,153,0
898567,34,-29,155,0
898578,39,-13,159,0
898589,49,-4,167,0
898600,61,2,176,0
898611,71,10,185,0
898622,96,19,213,0
898633,102,19,217,0
898644,108,18,222,0
898655,110,11,227,0
898666,107,13,229,0
898678,98,16,230,0
898689,83,5,222,0
898700,64,-1,215,0
898711,49,-3,208,0
898722,38,-3,212,0
898733,29,-2,216,0
898744,25,-2,224,0
898755,23,-2,224,0
898766,32,-1,221,0
898778,35,0,218,0
898788,36,-1,217,0
898799,37,6,210,0
898810,35,7,208,0
898821,35,10,209,0
898832,36,11,213,0
898843,36,15,216,0
898854,37,16,219,0
898865,36,13,222,0
898876,33,11,223,0
898887,29,8,225,0
898899,22,7,231,0
898911,14,10,234,0
898921,4,6,234,0
898932,1,4,234,0
898943,0,2,235,0
898954,0,2,231,0
898965,1,0,226,0
898976,4,-4,222,0
898987,10,-7,220,0
898998,16,-7,218,0
899009,23,-8,216,0
899020,28,-9,215,0
899031,29,-11,214,0
899042,30,-8,209,0
899053,35,-4,208,0
899065,39,2,210,1
899075,38,6,213,0
899086,31,2,228,0
899097,24,0,236,0
899108,29,-2,239,0
899119,59,17,236,0
899130,93,43,255,0
899141,105,-16,284,0
899153,95,-31,276,0
899163,62,-3,257,0
899174,38,9,267,0
899186,47,15,290,0
899196,50,14,299,0
899207,59,12,290,0
899218,72,5,264,0
899229,91,-3,233,0
899240,103,-6,200,0
899251,123,-8,178,0
899262,110,-1,185,0
899273,87,6,196,0
899286,70,15,223,0
899296,45,18,246,0
899307,20,24,269,0
899318,-10,31,287,0
899329,-36,32,300,0
899340,-48,21,286,0
899351,-45,17,270,0
899362,-35,20,258,0
899373,-17,29,256,0
899384,4,29,247,0
899395,25,27,236,0
899406,55,17,220,0
899417,63,14,217,0
899428,69,14,213,0
899439,71,19,212,0
899450,74,9,206,0
899461,76,8,205,0
899472,73,10,204,0
899483,70,10,204,0
899494,61,8,207,0
899505,51,3,210,0
899516,39,5,219,0
899528,31,6,226,0
899538,24,10,229,0
899549,18,17,232,0
899560,13,20,227,0
899571,14,24,227,0
899582,18,26,231,0
899593,18,30,230,0
899604,23,31,232,0
899615,25,32,233,0
899627,25,29,237,0
899637,28,23,243,0
899648,34,24,248,0
899659,23,29,247,0
899670,26,22,227,0
899681,30,29,227,0
899693,32,33,222,0
899703,32,32,217,0
899714,35,27,214,0
899725,35,22,213,0
899736,37,24,216,0
899747,34,29,214,0
899758,28,28,213,0
899769,24,25,216,0
899780,19,31,211,0
899792,12,35,205,0
899803,6,36,201,0
899813,2,35,197,0
899825,-2,36,186,1
899835,-6,23,182,0
899846,3,18,182,0
899857,71,-1,234,0
899868,139,35,377,0
899879,138,120,423,0
899891,165,97,391,0
899901,114,10,224,0
899912,75,-10,192,0
899923,47,-30,165,0
899934,27,-40,158,0
899945,3,-46,158,0
899956,-1,-39,161,0
899967,-6,-27,178,0
899978,-1,-16,196,0
899989,8,-7,209,0
900000,21,-5,218,0
900011,34,-3,228,0
900022,52,3,232,0
900033,70,4,234,0
900044,80,9,237,0
900055,85,11,241,0
900066,85,15,236,0
900078,79,13,230,0
900088,74,10,220,0
900099,74,13,216,0
900110,73,12,219,0
900121,73,13,218,0
900132,64,13,219,0
900143,58,13,225,0
900154,52,14,234,0
900165,44,14,232,0
900176,43,12,231,0
900187,42,14,227,0
900198,42,16,228,0
900209,39,15,226,0
900220,40,14,226,0
900231,47,15,226,0
900243,52,14,226,0
900253,59,11,227,0
900264,62,7,228,0
900275,65,4,226,0
900286,68,3,225,0
900297,69,4,226,0
900308,68,4,224,0
900319,66,5,223,0
900330,62,4,223,0
900341,57,3,226,0
900353,50,3,230,0
900363,44,4,233,0
900374,39,8,233,0
900386,38,7,231,0
900396,31,7,233,0
900407,29,9,233,0
900418,28,8,231,0
900429,29,6,228,0
900440,29,7,230,0
900452,32,4,228,0
900462,30,2,230,0
900473,31,5,227,0
900484,29,11,227,0
900495,28,14,230,0
900506,25,19,230,0
900517,22,23,226,0
900528,18,22,226,0
900540,16,22,227,0
900550,15,25,224,0
900561,7,29,225,0
900572,6,35,223,0
900583,3,39,225,0
900594,5,42,223,0
900605,2,49,225,0
900616,0,49,227,0
900628,0,43,224,0
900638,-4,45,223,0
900649,0,46,216,0
900660,10,38,208,0
900672,24,25,219,1
900682,35,24,217,0
900693,35,28,209,0
900704,36,6,213,0
900715,37,2,212,0
900726,35,-1,232,0
900737,44,4,245,0
900748,46,16,250,0
900760,55,27,255,0
900771,69,35,262,0
900782,90,41,271,0
900793,103,51,279,0
900804,112,53,283,0
900815,113,49,280,0
900826,109,37,274,0
900837,102,24,259,0
900848,97,11,246,0
900860,90,3,235,0
900870,84,-5,225,0
900881,71,-20,209,0
900893,64,-20,214,0
900903,58,-22,218,0
900914,53,-21,218,0
900925,55,-17,223,0
900936,52,-13,233,0
900947,49,-10,239,0
900958,47,-13,239,0
900969,46,-15,242,0
900980,49,-18,237,0
900992,53,-13,243,0
901003,52,-10,246,0
901013,49,-14,245,0
901024,47,-19,238,0
901035,47,-21,235,0
901046,46,-20,222,0
901057,49,-16,217,0
901068,50,-14,211,0
901079,49,-13,205,0
901091,52,-13,203,0
901101,54,-6,206,0
901112,51,0,210,0
901123,45,1,216,0
901134,40,4,221,0
901145,35,3,226,0
901157,32,3,224,0
901168,22,10,230,0
901179,13,13,231,0
901191,5,11,233,0
901201,-3,7,235,0
901212,-8,13,220,0
901223,-7,41,219,0
901234,-13,7,209,0
901245,-16,24,213,0
901256,-8,10,212,0
901267,-4,10,211,0
901278,-1,11,210,0
901289,0,12,208,0
901301,1,14,210,0
901312,2,13,211,0
901323,2,14,210,0
901334,1,15,213,0
901345,-4,14,222,0
901356,-9,13,223,0
901367,-10,12,222,0
901378,-10,12,223,0
901389,-12,13,221,0
901400,-14,10,223,0
901411,-15,10,230,0
901422,-12,5,238,0
901433,-14,5,247,0
901444,-12,3,252,0
901455,-13,5,252,0
901467,4,2,267,0
901478,53,5,335,0
901489,75,60,359,1
901499,69,48,351,0
901510,108,-13,359,0
901521,120,2,366,0
901533,92,-1,338,0
901544,64,-13,280,0
901555,39,-22,230,0
901566,6,-33,195,0
901578,-17,-48,173,0
901588,-23,-57,155,0
901599,-14,-58,154,0
901610,0,-55,166,0
901621,20,-49,179,0
901632,38,-43,186,0
901643,53,-31,191,0
901654,69,-15,197,0
901665,87,2,208,0
901676,90,4,208,0
901687,89,3,207,0
901698,87,1,209,0
901709,82,0,209,0
901720,76,0,209,0
901731,74,0,211,0
901742,71,-3,212,0
901753,69,-8,212,0
901764,66,-10,214,0
901775,66,-14,214,0
901786,67,-15,215,0
901797,63,-12,211,0
901808,56,-15,212,0
901819,48,-9,217,0
901830,38,-1,223,0
901841,32,0,225,0
901853,27,1,225,0
901863,25,0,225,0
901874,23,0,220,0
901885,21,-1,215,0
901896,23,-2,215,0
901907,21,-1,214,0
901918,20,1,218,0
901929,17,1,220,0
901940,17,0,221,0
901951,15,1,224,0
901962,11,2,228,0
901973,8,3,231,0
901984,4,4,229,0
901995,-2,4,230,0
902006,-5,4,229,0
902017,-2,6,230,0
902028,-1,7,229,0
902039,0,6,225,0
902050,1,6,222,0
902061,7,5,220,0
902073,15,3,220,0
902084,23,-2,218,0
902095,29,-6,220,0
902106,31,-9,221,0
902117,33,-10,220,0
902129,34,-9,220,1
902139,31,-3,220,0
902150,22,8,220,0
902161,16,11,216,0
902172,5,11,214,0
902183,-5,5,213,0
902194,-12,6,205,0
902205,-13,12,201,0
902216,5,14,200,0
902228,8,-15,239,0
902238,10,-39,250,0
902249,10,-5,239,0
902260,9,14,245,0
902271,15,25,266,0
902282,14,15,294,0
902293,17,0,298,0
902304,19,6,307,0
902315,41,11,320,0
902326,61,21,315,0
902337,81,31,311,0
902348,97,31,302,0
902360,103,30,277,0
902370,102,21,246,0
902381,99,9,218,0
902393,97,2,197,0
902403,92,-7,182,0
902414,87,-18,167,0
902425,84,-28,158,0
902436,79,-33,154,0
902447,77,-40,154,0
902458,75,-41,162,0
902469,73,-39,174,0
902480,68,-33,205,0
902492,75,-29,216,0
902503,71,-19,229,0
902513,65,-3,243,0
902524,49,1,256,0
902535,41,6,272,0
902546,24,14,280,0
902557,11,25,284,0
902568,-2,20,281,0
902579,-8,13,274,0
902591,-11,9,263,0
902601,-10,3,252,0
902612,-8,6,243,0
902623,-1,3,235,0
902634,7,5,231,0
902645,22,8,226,0
902656,29,7,223,0
902667,33,7,218,0
902678,35,5,213,0
902689,32,3,207,0
902700,31,3,206,0
902711,27,0,203,0
902722,20,0,203,0
902733,13,0,202,0
902744,9,-4,197,0
902756,6,-4,195,0
902766,5,-3,195,0
902778,2,-2,195,0
902788,1,-1,197,0
902799,1,-3,199,0
902810,-2,5,215,0
902821,-5,8,213,0
902832,-9,12,208,0
902843,-15,15,209,0
902854,-16,13,213,0
902865,-16,11,220,0
902876,-16,12,226,0
902887,-16,15,232,0
902898,-14,17,241,0
902909,-18,36,250,0
902921,-31,37,248,1
902931,-36,21,248,0
902942,-38,10,247,0
902953,-36,9,248,0
902964,-33,9,249,0
902975,39,-15,352,0
902986,64,27,382,0
902997,72,24,379,0
903008,92,-11,344,0
903019,120,-29,352,0
903030,138,-7,356,0
903041,116,6,316,0
903053,85,-8,274,0
903063,55,-9,230,0
903074,16,-13,200,0
903085,2,-37,183,0
903096,-11,-55,165,0
903108,-12,-40,133,0
903119,-11,-111,219,0
903130,27,-18,189,0
903141,59,-51,175,0
903153,62,-11,193,0
903163,84,-8,201,0
903174,94,1,206,0
903185,102,2,209,0
903196,105,1,207,0
903207,105,0,209,0
903218,103,-3,210,0
903229,99,-2,214,0
903240,94,-7,221,0
903251,83,-6,218,0
903262,79,-6,217,0
903273,78,-4,213,0
903284,78,-6,208,0
903295,77,-10,218,0
903306,79,-10,222,0
903317,73,-11,221,0
903328,67,-12,223,0
903339,65,-9,224,0
903350,59,-5,226,0
903361,49,-3,230,0
903372,45,-4,229,0
903383,39,-4,226,0
903394,38,-1,223,0
903406,37,-1,223,0
903417,33,-2,219,0
903428,33,-4,218,0
903439,33,-3,219,0
903450,29,-2,224,0
903461,28,-1,225,0
903472,28,0,231,0
903483,29,0,231,0
903494,31,0,232,0
903505,31,1,233,0
903516,31,1,236,0
903528,28,3,233,0
903538,25,2,233,0
903549,25,1,228,0
903560,23,1,228,0
903571,20,3,230,0
903582,21,0,226,0
903593,26,0,225,0
903604,28,0,227,0
903615,33,0,233,0
903626,35,0,232,0
903637,34,1,236,0
903648,33,1,235,0
903660,30,1,237,0
903670,28,0,232,0
903681,26,2,232,0
903693,23,5,232,0
903703,20,7,233,0
903714,18,9,229,0
903725,14,9,228,0
903736,13,7,229,0
903747,11,8,229,0
903758,11,10,229,0
903769,12,11,230,0
903780,15,14,229,0
903792,13,12,229,0
903803,14,13,227,1
903813,10,14,225,0
903824,8,13,221,0
903835,10,9,221,0
903846,26,-19,224,0
903857,36,-45,247,0
903868,45,-31,238,0
903879,44,-16,224,0
903891,28,-22,221,0
903901,25,-29,215,0
903912,35,-34,217,0
903923,30,-52,223,0
903934,35,-42,224,0
903945,40,-1,244,0
903956,38,8,255,0
903968,45,16,262,1
903978,55,20,258,0
903989,67,20,257,0
904001,73,18,255,0
904012,75,13,248,0
904023,75,0,235,0
904034,74,-16,222,0
904045,76,-29,215,0
904056,75,-30,208,0
904067,67,-30,207,0
904078,64,-29,208,0
904089,64,-20,214,0
904100,64,-21,218,0
904111,64,-23,219,0
904122,64,-20,222,0
904134,70,-22,229,0
904144,76,-20,233,0
904155,79,-16,231,0
904166,79,-15,228,0
904178,79,-17,222,0
904188,77,-22,221,0
904199,78,-30,227,0
904211,77,-27,235,0
904221,76,-26,233,0
904232,73,-26,236,0
904243,72,-27,240,0
904254,66,-23,238,0
904265,61,-27,234,0
904276,59,-25,228,0
904287,61,-22,228,0
904298,58,-20,227,0
904309,56,-17,230,0
904320,51,-18,231,0
904331,48,-16,230,0
904342,44,-16,226,0
904353,44,-20,223,0
904364,44,-23,224,0
904375,46,-27,222,0
904386,49,-29,223,0
904397,50,-29,225,0
904408,52,-27,226,0
904419,51,-27,227,0
904430,48,-30,226,0
904441,43,-33,226,0
904453,43,-33,227,0
904463,42,-29,226,0
904474,39,-22,226,0
904485,37,-27,223,0
904496,33,-31,220,0
904508,34,-31,224,0
904519,32,-31,223,0
904530,32,-34,222,0
904542,33,-35,221,0
904553,33,-38,223,0
904563,36,-37,226,0
904574,33,-39,225,0
904585,31,-40,226,0
904596,29,-42,225,0
904607,26,-42,224,0
904618,23,-43,225,0
904629,26,-43,227,0
904640,28,-42,225,0
904651,28,-41,223,0
904662,30,-43,219,0
904673,36,-44,217,0
904684,41,-45,218,0
904695,47,-47,220,0
904706,51,-46,222,0
904717,55,-48,224,0
904728,58,-49,224,0
904739,62,-52,219,0
904750,63,-51,219,0
904761,62,-52,219,0
904772,61,-50,217,0
904783,62,-49,215,0
904794,63,-49,215,0
904805,63,-50,215,0
904816,65,-51,216,0
904828,65,-49,216,0
904838,68,-48,214,0
904849,70,-48,213,0
904860,73,-48,213,0
904871,75,-47,214,0
904882,78,-47,212,0
904893,80,-47,211,0
904904,85,-52,206,0
904916,86,-52,204,0
904926,89,-52,203,0
904937,89,-53,202,0
904948,89,-54,203,0
904960,88,-55,202,0
904970,88,-54,203,0
904981,88,-55,203,0
904993,89,-53,204,0
905003,89,-53,204,0
905014,89,-56,203,0
905025,86,-56,204,0
905036,85,-57,203,0
905047,84,-56,201,0
905058,83,-56,198,0
905069,78,-54,194,0
905080,74,-53,193,0
905092,71,-52,193,0
905103,69,-52,194,0
905113,70,-52,198,0
905124,70,-61,201,0
905135,72,-66,205,0
905146,74,-67,211,0
905158,73,-67,214,0
905168,67,-66,213,0
905179,63,-66,210,0
905191,64,-65,209,0
905201,63,-56,203,0
905212,66,-48,213,0
905224,79,-21,249,1
905234,70,71,426,0
905245,60,59,467,0
905256,55,1,423,0
905267,69,-73,317,0
905278,110,-63,213,0
905289,98,-4,159,0
905300,81,-52,131,0
905311,77,-50,125,0
905322,60,-39,128,0
905333,37,-48,141,0
905344,27,-65,168,0
905355,27,-64,191,0
905366,39,-52,204,0
905378,49,-34,214,0
905388,56,-18,217,0
905399,69,21,237,0
905410,63,37,236,0
905421,55,37,235,0
905432,52,36,233,0
905443,52,37,228,0
905454,52,41,224,0
905465,48,36,223,0
905476,45,34,220,0
905487,47,28,226,0
905498,47,25,230,0
905509,47,18,229,0
905520,48,18,231,0
905531,45,16,228,0
905542,40,15,232,0
905553,36,16,234,0
905564,22,20,235,0
905575,17,22,236,0
905586,15,22,237,0
905597,13,24,236,0
905608,13,22,232,0
905619,13,16,228,0
905630,19,14,228,0
905641,27,8,226,0
905653,29,10,229,0
905663,32,11,234,0
905674,42,12,237,0
905685,45,9,236,0
905696,44,7,232,0
905707,44,4,234,0
905718,44,3,236,0
905729,40,1,232,0
905740,33,1,235,0
905751,31,-1,237,0
905762,31,-2,231,0
905773,32,0,233,0
905784,30,-1,228,0
905795,25,0,224,0
905806,16,1,222,0
905817,12,1,222,0
905828,9,1,224,0
905839,5,2,226,0
905850,2,3,228,0
905861,2,3,230,0
905872,2,2,229,0
905883,0,6,232,0
905894,-4,3,235,0
905905,-10,1,233,0
905917,-14,-1,231,0
905928,-17,-5,225,0
905938,-14,-4,219,0
905949,-9,-2,218,0
905960,-8,-3,219,0
905971,-9,-1,222,0
905982,-13,0,223,0
905993,-18,3,224,0
906004,-18,8,224,0
906015,-16,12,224,0
906027,-4,20,220,1
906037,17,28,224,0
906048,11,-14,259,0
906060,-12,1,261,0
906070,-31,-3,276,0
906081,-25,3,287,0
906093,3,31,279,0
906103,20,43,289,0
906114,34,30,302,0
906125,44,26,304,0
906136,50,28,303,0
906147,54,34,293,0
906158,66,38,275,0
906169,79,37,250,0
906180,97,31,226,0
906192,105,19,198,0
906203,111,5,176,0
906213,111,0,154,0
906224,106,-9,138,0
906235,83,-9,156,0
906246,66,-5,178,0
906257,55,0,199,0
906268,41,-2,213,0
906279,29,7,230,0
906291,19,15,240,0
906301,8,23,255,0
906312,9,19,262,0
906323,13,10,260,0
906334,16,4,261,0
906345,16,5,263,0
906356,15,10,262,0
906367,14,2,249,0
906378,22,-1,248,0
906389,30,-5,241,0
906400,34,-3,228,0
906411,36,-3,221,0
906422,36,-1,211,0
906433,34,-4,204,0
906444,32,-4,204,0
906455,30,-7,203,0
906466,21,-7,203,0
906478,16,-6,205,0
906488,12,-10,206,0
906499,7,-10,204,0
906510,5,-14,204,0
906521,3,-12,199,0
906532,3,-14,196,0
906543,2,-14,195,0
906554,1,-15,198,0
906565,-4,-7,206,0
906576,-7,-2,211,0
906587,-10,0,215,0
906598,-12,-1,217,0
906609,-12,2,220,0
906620,-14,7,227,0
906631,-15,10,242,0
906642,-17,36,257,0
906653,-33,36,243,0
906664,-34,7,250,0
906675,-31,-5,256,0
906686,-27,-13,255,0
906697,-17,-8,256,0
906708,-7,-9,261,0
906719,27,-20,298,0
906730,70,24,361,0
906741,85,3,349,0
906753,82,-1,324,0
906764,71,-3,301,1
906774,85,-7,318,0
906785,83,7,319,0
906796,52,18,266,0
906807,20,-1,224,0
906818,10,-27,183,0
906829,2,-31,162,0
906840,-7,-42,152,0
906851,-3,-49,155,0
906862,7,-43,164,0
906873,15,-40,174,0
906884,32,-30,183,0
906895,62,-14,188,0
906906,80,-10,194,0
906917,97,-1,206,0
906928,112,4,208,0
906939,120,10,210,0
906950,124,18,212,0
906961,128,20,219,0
906972,126,25,222,0
906983,116,17,223,0
906994,103,14,216,0
907005,93,13,208,0
907016,86,9,200,0
907028,80,6,200,0
907038,72,0,203,0
907049,57,-1,213,0
907061,32,2,233,0
907071,25,-7,244,0
907082,22,0,240,0
907093,6,14,233,0
907105,0,10,235,0
907115,0,13,229,0
907126,-4,18,225,0
907137,-1,15,220,0
907149,0,16,220,0
907159,0,14,220,0
907170,6,14,223,0
907181,11,13,221,0
907193,14,11,221,0
907203,15,11,221,0
907214,19,11,221,0
907225,27,9,223,0
907236,29,11,225,0
907247,31,13,225,0
907258,28,14,228,0
907269,26,13,228,0
907280,23,13,228,0
907292,19,12,223,0
907303,14,8,221,0
907313,11,7,219,0
907324,11,5,216,0
907335,12,3,216,0
907346,16,5,217,0
907357,20,6,216,0
907368,21,6,219,0
907379,23,7,218,0
907391,24,3,221,0
907401,24,1,224,0
907412,26,2,227,0
907423,23,3,232,0
907434,17,0,233,0
907445,8,-1,236,0
907456,1,-4,237,0
907468,1,1,233,1
907478,24,30,228,0
907489,36,30,260,0
907500,32,-34,286,0
907511,24,-21,272,0
907522,17,5,260,0
907533,24,36,278,0
907544,33,25,299,0
907555,43,11,304,0
907566,47,13,311,0
907578,59,20,310,0
907588,69,27,298,0
907599,75,34,275,0
907610,80,35,245,0
907621,86,31,216,0
907632,92,30,191,0
907643,96,23,170,0
907654,96,12,154,0
907665,90,3,148,0
907676,85,-5,150,0
907687,82,-9,159,0
907698,82,-3,180,0
907709,84,4,201,0
907720,81,11,241,0
907731,78,10,252,0
907742,76,5,256,0
907753,73,0,255,0
907764,68,0,256,0
907775,65,1,252,0
907786,61,0,247,0
907797,56,0,239,0
907808,53,-1,232,0
907819,48,0,230,0
907830,41,4,228,0
907841,38,8,221,0
907853,32,6,216,0
907863,32,6,211,0
907874,33,9,210,0
907885,27,4,201,0
907896,23,2,200,0
907907,18,1,201,0
907918,11,0,205,0
907929,5,-4,203,0
907940,3,-7,203,0
907951,0,-9,199,0
907962,-2,-10,194,0
907973,-3,-14,192,0
907984,-3,-18,189,0
907995,-4,-21,187,0
908006,-1,-23,190,0
908017,2,-18,196,0
908028,2,-9,203,0
908039,-2,-1,214,0
908050,-15,-1,230,0
908061,-15,0,245,0
908072,-15,20,266,0
908083,-27,26,276,0
908094,-34,1,279,0
908105,-41,-18,272,0
908116,-33,-5,259,0
908128,24,-13,304,0
908138,69,39,388,0
908149,52,39,377,0
908161,61,-28,360,0
908171,68,-23,331,0
908183,74,-3,308,1
908193,74,0,312,0
908204,48,-24,271,0
908216,33,-42,214,0
908226,31,-44,201,0
908237,26,-40,177,0
908248,31,-32,164,0
908259,34,-26,158,0
908270,34,-12,166,0
908281,40,-15,177,0
908293,46,-5,178,0
908303,54,0,185,0
908314,66,11,197,0
908325,85,12,215,0
908336,106,6,216,0
908347,122,1,215,0
908358,126,1,210,0
908369,116,1,212,0
908380,63,7,209,0
908392,36,10,208,0
908403,15,13,214,0
908413,-1,17,215,0
908424,-4,21,222,0
908435,-9,19,223,0
908446,-9,13,222,0
908457,-7,7,221,0
908468,-6,2,216,0
908479,1,-1,216,0
908491,5,-3,216,0
908503,10,-1,217,0
908513,14,1,217,0
908524,16,2,216,0
908535,24,1,213,0
908546,25,1,215,0
908557,21,1,218,0
908568,17,1,221,0
908579,10,0,223,0
908591,2,0,226,0
908601,-2,0,229,0
908612,-4,1,228,0
908623,-5,2,223,0
908634,-9,1,219,0
908645,-7,3,219,0
908657,-2,4,219,0
908668,-1,10,218,0
908679,0,7,220,0
908691,7,2,221,0
908701,9,-1,221,0
908712,13,-1,219,0
908723,15,0,215,0
908734,19,-1,221,0
908745,21,6,226,0
908756,16,12,234,0
908767,9,16,242,0
908778,0,21,245,0
908789,-14,25,250,0
908800,-29,25,251,0
908811,-43,27,245,0
908822,-59,24,239,0
908833,-64,25,235,0
908844,-25,24,204,0
908855,-35,-37,271,0
908866,-26,1,264,0
908878,-40,-16,278,1
908888,-31,-27,314,0
908899,-4,-10,318,0
908911,13,-2,322,0
908921,51,17,312,0
908932,94,29,303,0
908943,134,30,283,0
908954,156,29,257,0
908965,174,28,227,0
908976,176,33,194,0
908987,174,34,177,0
908998,156,27,164,0
909009,136,20,160,0
909020,82,6,192,0
909031,56,-1,200,0
909042,30,0,208,0
909053,3,-4,214,0
909064,-17,-2,237,0
909075,-22,3,261,0
909086,-23,1,275,0
909097,-13,2,277,0
909108,-2,5,263,0
909119,8,12,247,0
909130,15,18,239,0
909142,23,20,238,0
909153,30,21,231,0
909164,43,13,213,0
909175,43,8,206,0
909186,40,5,202,0
909197,38,5,202,0
909208,35,5,199,0
909219,29,2,196,0
909230,29,1,199,0
909241,29,-1,211,0
909253,28,-5,218,0
909263,25,-2,221,0
909274,16,-2,210,0
909285,10,-4,206,0
909296,5,1,205,0
909307,0,-4,197,0
909318,-1,-4,193,0
909329,-5,2,201,0
909340,-11,12,194,0
909351,-21,20,197,0
909362,-34,25,206,0
909373,-41,23,221,0
909384,-44,18,234,0
909395,-40,12,245,0
909406,-24,7,249,0
909417,-19,16,260,0
909429,-15,-1,274,0
909439,-2,0,284,0
909450,1,15,279,0
909461,-1,12,271,0
909472,-1,-2,260,0
909483,50,-2,296,0
909494,19,35,315,0
909505,21,12,308,0
909516,23,-2,278,0
909528,31,10,262,0
909538,53,41,344,0
909550,38,50,328,1
909561,32,24,288,0
909571,39,-11,251,0
909582,42,-27,211,0
909593,47,-40,169,0
909604,47,-44,139,0
909615,47,-42,132,0
909626,47,-30,144,0
909637,41,-12,159,0
909648,37,6,171,0
909659,51,40,198,0
909670,61,40,214,0
909681,66,44,224,0
909693,69,43,228,0
909703,72,38,224,0
909714,75,23,215,0
909725,77,24,212,0
909736,71,17,204,0
909747,58,10,203,0
909758,46,10,201,0
909769,33,7,208,0
909780,29,5,217,0
909791,30,7,222,0
909803,30,12,224,0
909813,27,9,222,0
909824,20,6,225,0
909835,14,6,224,0
909846,10,5,221,0
909857,8,8,220,0
909868,9,9,216,0
909879,15,11,214,0
909891,18,10,214,0
909901,22,13,211,0
909912,27,13,214,0
909923,27,18,221,0
909934,26,20,226,0
909945,23,22,229,0
909956,21,22,233,0
909967,17,24,232,0
909978,15,25,230,0
909989,11,21,221,0
910000,11,19,220,0
910011,14,17,219,0
910022,16,19,221,0
910033,17,20,226,0
910044,24,14,229,0
910055,31,0,238,0
910066,38,0,237,0
910078,39,4,236,0
910088,41,6,239,0
910099,40,15,244,0
910110,33,19,250,0
910121,24,24,249,0
910132,5,34,245,0
910143,-12,36,237,0
910155,-2,51,220,1
910165,0,18,258,0
910176,-4,-9,275,0
910187,-25,13,277,0
910198,-27,24,279,0
910209,-1,42,294,0
910220,17,36,307,0
910231,30,23,308,0
910242,24,19,307,0
910253,35,22,295,0
910264,59,25,278,0
910275,91,23,263,0
910286,112,14,240,0
910297,126,4,213,0
910308,131,-1,193,0
910319,126,-14,160,0
910330,117,-14,157,0
910342,104,-15,164,0
910353,92,-10,165,0
910363,74,-5,168,0
910374,59,-3,189,0
910385,47,-1,215,0
910396,28,2,237,0
910407,15,4,260,0
910418,13,6,281,0
910429,19,13,287,0
910440,26,10,275,0
910451,32,10,262,0
910462,32,7,249,0
910473,32,2,235,0
910484,28,12,226,0
910495,25,8,219,0
910506,25,8,218,0
910517,27,9,221,0
910528,29,10,220,0
910539,30,7,217,0
910550,32,5,212,0
910562,32,3,204,0
910572,29,3,201,0
910583,23,6,202,0
910594,16,9,203,0
910605,7,11,205,0
910616,1,8,204,0
910628,-2,6,205,0
910638,-9,5,209,0
910649,-15,3,203,0
910660,-17,5,203,0
910671,-17,4,208,0
910682,-12,11,216,0
910693,-5,4,216,0
910704,11,0,203,0
910715,12,30,209,0
910726,1,38,225,0
910737,-4,22,249,0
910748,0,10,247,0
910759,1,13,240,0
910770,-8,19,239,0
910781,-19,18,252,0
910793,-22,9,251,0
910803,-19,1,248,0
910815,26,4,287,1
910825,54,34,354,0
910836,40,63,382,0
910847,50,45,378,0
910858,52,27,336,0
910869,46,8,315,0
910880,52,-4,336,0
910892,38,3,311,0
910903,20,-14,252,0
910913,14,-43,218,0
910924,13,-54,183,0
910935,13,-57,159,0
910946,17,-55,145,0
910957,27,-47,142,0
910968,40,-37,150,0
910979,65,-8,180,0
910991,79,1,191,0
911001,87,10,201,0
911012,90,14,217,0
911023,89,10,220,0
911034,87,5,217,0
911045,91,-1,213,0
911056,87,-3,214,0
911067,79,-2,216,0
911078,63,-11,217,0
911089,49,-14,215,0
911100,37,-17,216,0
911111,29,-15,219,0
911122,26,-5,219,0
911133,25,1,220,0
911144,16,3,221,0
911155,13,2,221,0
911166,9,3,221,0
911178,2,3,218,0
911188,1,0,216,0
911200,0,0,214,0
911210,0,2,213,0
911221,0,2,213,0
911232,1,3,216,0
911243,3,1,219,0
911254,6,4,223,0
911265,7,7,228,0
911276,8,11,230,0
911287,6,13,232,0
911298,8,15,231,0
911309,9,13,227,0
911320,13,12,223,0
911331,16,10,220,0
911342,17,6,221,0
911353,18,5,222,0
911364,22,1,226,0
911375,25,0,226,0
911386,27,0,226,0
911397,25,0,225,0
911408,23,2,225,0
911419,20,6,224,0
911430,16,7,225,0
911441,11,12,222,0
911453,6,17,221,0
911463,6,16,223,0
911474,11,18,222,0
911485,7,23,222,0
911496,4,26,224,0
911507,0,26,227,0
911519,-2,26,234,1
911529,5,27,232,0
911540,36,37,233,0
911551,22,-1,283,0
911562,14,-28,290,0
911573,0,0,265,0
911584,-18,-5,248,0
911595,-12,16,268,0
911606,-11,7,289,0
911617,5,-5,300,0
911629,12,-1,305,1
911639,60,14,309,0
911650,86,20,288,0
911662,104,25,262,0
911672,109,15,232,0
911683,110,5,213,0
911694,109,-7,197,0
911705,99,-13,183,0
911716,86,-19,170,0
911728,69,-22,170,0
911738,58,-22,182,0
911749,48,-21,196,0
911760,36,-18,209,0
911771,24,-16,220,0
911782,10,-10,235,0
911793,0,1,252,0
911804,-4,19,282,0
911815,0,19,282,0
911826,1,13,272,0
911837,9,6,260,0
911848,14,6,249,0
911859,17,1,234,0
911870,18,-5,221,0
911881,18,-6,213,0
911893,19,-6,203,0
911903,23,-4,198,0
911914,32,-2,195,0
911925,43,1,197,0
911936,44,2,196,0
911947,46,2,198,0
911958,47,3,200,0
911969,35,1,211,0
911980,26,0,213,0
911992,18,0,214,0
912003,10,-4,212,0
912013,2,-4,210,0
912024,-5,-7,206,0
912035,-8,-10,203,0
912046,-10,-14,198,0
912057,-8,-14,194,0
912068,-7,-14,193,0
912079,-6,-9,190,0
912091,-10,2,192,0
912101,-16,6,205,0
912112,-15,2,220,0
912123,-14,1,226,0
912134,-15,16,240,0
912146,-22,29,253,1
912156,-30,27,257,0
912167,-37,21,263,0
912178,-41,13,263,0
912189,-43,13,256,0
912200,-45,12,255,0
912211,-47,4,254,0
912222,-38,-6,255,0
912234,14,-27,310,0
912244,52,17,393,0
912255,52,60,371,0
912266,70,-5,353,0
912278,69,-24,321,0
912288,74,-27,319,0
912299,71,9,300,0
912310,15,32,207,0
912321,12,-123,262,0
912332,23,-31,181,0
912343,20,-27,172,0
912354,35,-56,152,0
912365,41,-32,155,0
912376,52,-30,163,0
912387,54,-15,170,0
912399,52,-10,178,0
912410,55,2,192,0
912421,61,5,206,0
912432,66,5,218,0
912443,70,2,220,0
912454,80,-7,214,0
912465,82,-8,211,0
912476,76,-10,211,0
912487,67,-10,215,0
912498,64,-7,211,0
912509,59,-8,209,0
912520,46,-14,207,0
912531,33,-11,208,0
912542,29,-8,216,0
912553,29,-7,218,0
912564,34,-8,221,0
912575,34,-5,221,0
912586,33,-2,222,0
912597,30,-1,223,0
912608,20,0,219,0
912619,16,1,217,0
912630,11,2,215,0
912641,10,-1,213,0
912653,8,0,213,0
912663,9,2,218,0
912674,6,4,222,0
912685,3,7,230,0
912696,1,7,231,0
912707,1,7,232,0
912718,1,9,226,0
912729,0,10,227,0
912740,-1,14,227,0
912751,1,10,224,0
912762,2,11,222,0
912773,9,2,220,0
912784,16,1,221,0
912795,21,-2,218,0
912806,27,-9,218,0
912817,32,-14,218,0
912828,35,-16,217,0
912839,37,-15,217,0
912850,38,-12,219,0
912862,35,-8,219,0
912872,31,-6,216,0
912883,24,-3,214,0
912895,14,-3,215,1
912905,8,-2,215,0
912917,2,1,216,0
912928,-5,2,220,0
912938,-10,4,224,0
912949,29,23,218,0
912960,21,1,273,0
912971,16,-42,273,0
912982,7,-27,260,0
912993,-6,-10,255,0
913004,-21,11,277,0
913015,-33,5,311,0
913028,-22,-20,322,0
913038,-9,-17,321,0
913049,3,-2,315,0
913060,32,19,329,0
913071,63,35,322,0
913082,88,41,305,0
913093,106,36,253,0
913105,105,24,221,0
913115,96,8,192,0
913126,87,-9,163,0
913137,78,-22,141,0
913149,67,-31,129,0
913159,56,-33,126,0
913171,42,-31,131,0
913181,35,-26,151,0
913193,35,-24,176,0
913203,39,-20,198,0
913214,36,-6,221,0
913225,30,2,244,0
913236,28,9,262,0
913248,25,17,279,0
913258,16,10,289,0
913269,8,3,282,0
913280,8,4,268,0
913292,12,2,257,0
913303,11,1,242,0
913313,11,-2,224,0
913324,12,-1,213,0
913335,14,1,202,0
913346,19,0,199,0
913357,21,4,201,0
913368,23,4,201,0
913379,22,7,207,0
913391,23,2,203,0
913401,23,-1,201,0
913412,19,1,206,0
913423,14,-3,207,0
913434,14,-3,217,0
913445,16,0,218,0
913456,9,0,214,0
913468,7,1,211,0
913479,2,-5,208,0
913491,1,-6,207,0
913501,-1,0,208,0
913512,-7,4,209,0
913523,-11,10,215,0
913534,-15,21,219,0
913545,-23,20,221,0
913556,-25,25,226,0
913567,-28,30,230,0
913578,-30,27,234,0
913589,-23,27,235,0
913600,-19,27,242,0
913611,-14,24,250,0
913622,-6,21,251,0
913633,1,12,253,0
913644,11,12,255,0
913655,21,19,254,0
913667,36,26,262,1
913678,63,53,292,0
913688,61,90,309,0
913701,67,85,316,0
913711,79,79,320,0
913722,64,55,280,0
913733,65,67,282,0
913744,51,89,275,0
913755,36,81,250,0
913766,31,43,219,0
913778,31,23,196,0
913788,29,22,187,0
913799,29,25,184,0
913810,29,34,189,0
913821,25,47,196,0
913832,29,63,209,0
913843,31,79,218,0
913854,39,86,218,0
913865,54,91,204,0
913876,65,97,191,0
913887,86,97,192,0
913898,95,88,194,0
913909,96,82,190,0
913920,95,80,180,0
913931,88,82,178,0
913942,87,84,182,0
913953,86,81,187,0
913964,84,82,184,0
913975,75,93,190,0
913986,66,98,201,0
913997,63,96,214,0
914008,65,92,220,0
914019,73,90,219,0
914030,83,89,216,0
914041,85,85,217,0
914053,72,79,234,0
914063,65,78,234,0
914074,62,79,231,0
914085,60,79,224,0
914096,63,74,215,0
914107,64,70,206,0
914118,65,71,206,0
914129,65,72,209,0
914140,64,75,213,0
914151,64,75,216,0
914162,63,77,220,0
914173,61,77,225,0
914184,57,76,226,0
914195,55,74,225,0
914206,53,70,226,0
914217,49,74,223,0
914228,48,74,224,0
914239,48,75,221,0
914250,50,74,223,0
914262,51,74,220,0
914272,50,74,221,0
914283,45,75,220,0
914294,44,73,221,0
914305,44,69,221,0
914317,43,72,221,0
914328,44,70,221,0
914340,44,70,222,0
914351,41,71,222,0
914362,42,74,223,0
914374,45,75,224,0
914384,49,75,222,0
914395,55,76,220,0
914407,61,75,217,0
914418,64,76,216,0
914429,64,79,214,0
914440,63,80,214,0
914451,61,76,213,0
914463,58,74,214,1
914473,54,76,213,0
914484,51,78,213,0
914495,50,77,213,0
914506,49,77,215,0
914517,51,74,213,0
914528,52,68,214,0
914539,55,58,202,0
914550,59,50,180,0
914562,67,54,180,0
914572,82,9,194,0
914583,97,-38,197,0
914594,92,-43,197,0
914605,75,-29,210,0
914616,61,-3,238,0
914628,47,16,261,0
914638,41,22,276,0
914649,34,17,277,0
914660,24,13,268,0
914671,-7,22,284,0
914682,-28,20,298,0
914693,-45,16,301,0
914704,-55,8,298,0
914715,-62,-3,298,0
914726,-61,-17,289,0
914737,-55,-18,274,0
914748,-43,-11,258,0
914759,-32,-2,244,0
914770,-21,1,238,0
914781,-7,1,229,0
914793,4,1,219,0
914803,14,0,213,0
914814,21,2,203,0
914825,26,1,201,0
914836,32,-10,190,0
914847,40,-11,193,0
914858,45,-8,195,0
914869,44,-3,204,0
914880,42,-2,210,0
914891,40,-3,217,0
914903,35,-4,220,0
914913,29,-4,216,0
914924,21,-1,215,0
914935,9,1,214,0
914946,2,4,212,0
914957,-6,11,219,0
914968,-12,13,225,0
914979,-18,18,229,0
914991,-21,21,230,0
915001,-28,22,232,0
915012,-28,23,235,0
915023,-26,25,234,0
915034,-22,24,231,0
915045,-19,19,229,0
915056,-14,14,226,0
915067,-11,11,221,0
915078,-9,11,217,0
915089,-11,14,217,0
915100,-7,15,216,0
915111,-5,17,216,0
915122,-3,19,216,0
915133,-2,20,218,0
915144,0,20,224,0
915155,0,20,234,0
915166,1,23,247,0
915178,3,22,250,0
915188,1,24,252,0
915199,0,21,252,0
915210,-1,19,252,0
915221,0,21,246,0
915232,-9,23,238,0
915243,-21,23,235,0
915254,-25,19,237,0
915265,-12,15,254,0
915277,49,-11,327,1
915287,89,64,383,0
915298,53,45,367,0
915309,72,1,322,0
915320,77,24,275,0
915331,59,-10,260,0
915342,53,-7,262,0
915353,38,-13,259,0
915364,35,-26,246,0
915375,16,-34,210,0
915386,21,-122,236,0
915397,54,-64,171,0
915408,41,-45,158,0
915419,49,-42,150,0
915430,43,-28,157,0
915441,41,-20,161,0
915453,40,-13,186,0
915463,39,-12,204,0
915474,44,-7,220,0
915485,55,-8,228,0
915496,66,-12,226,0
915507,69,-13,223,0
915518,68,-21,218,0
915529,62,-26,207,0
915540,53,-25,201,0
915551,49,-19,198,0
915562,48,-15,196,0
915573,50,-12,202,0
915584,51,-10,208,0
915595,50,-6,214,0
915606,49,-5,218,0
915617,48,-8,217,0
915628,42,-11,210,0
915639,37,-9,210,0
915650,38,-6,211,0
915662,37,-9,205,0
915672,37,-7,206,0
915683,38,-4,205,0
915694,38,1,209,0
915705,32,1,214,0
915716,27,1,221,0
915728,18,0,222,0
915738,12,-1,224,0
915749,7,-1,222,0
915760,4,0,220,0
915771,2,0,218,0
915782,2,1,218,0
915793,7,6,219,0
915804,11,2,220,0
915815,23,-1,220,0
915826,38,-8,219,0
915837,41,-10,220,0
915849,42,-9,222,0
915859,41,-17,222,0
915870,34,-12,218,0
915881,30,-9,213,0
915893,26,0,209,0
915903,20,13,210,0
915914,7,19,216,0
915925,-3,11,218,0
915936,-17,10,225,0
915948,-28,11,229,1
915958,-2,24,219,0
915969,0,26,270,0
915980,-9,-29,304,0
915991,-38,-6,316,0
916003,-38,13,319,0
916013,-26,38,325,0
916024,-15,12,337,0
916035,-1,-10,342,0
916046,8,3,330,0
916057,33,26,322,0
916068,66,40,301,0
916079,92,42,269,0
916091,111,42,243,0
916101,125,27,210,0
916112,131,15,176,0
916123,137,1,154,0
916134,128,-8,140,0
916145,116,-14,134,0
916156,87,-15,155,0
916167,76,-8,174,0
916178,60,-5,193,0
916189,44,0,219,0
916200,32,2,248,0
916211,27,6,268,0
916222,22,11,279,0
916233,19,14,280,0
916244,19,15,274,0
916255,15,12,256,0
916266,12,7,240,0
916278,13,3,229,0
916288,11,4,220,0
916299,12,-1,218,0
916310,17,1,214,0
916321,29,-8,208,0
916332,33,-7,207,0
916343,38,-4,209,0
916354,43,-5,211,0
916365,46,-4,214,0
916376,45,-3,215,0
916387,40,-1,207,0
916398,35,6,200,0
916409,29,3,202,0
916420,13,1,198,0
916431,7,1,202,0
916442,1,2,201,0
916453,-1,2,198,0
916464,-5,2,195,0
916475,-9,1,196,0
916486,-17,0,200,0
916497,-16,1,203,0
916508,-18,4,208,0
916519,-18,6,214,0
916530,-16,2,217,0
916541,-12,1,226,0
916553,-8,8,234,0
916563,-10,12,242,0
916574,-10,7,252,0
916585,-11,1,257,0
916596,-8,-3,260,0
916607,-4,-6,257,0
916618,-1,-4,261,0
916629,-5,-1,261,0
916640,-14,3,260,0
916651,18,-18,304,0
916662,70,9,406,0
916673,53,73,384,0
916684,59,5,367,0
916696,62,-17,329,1
916706,53,5,296,0
916717,70,1,322,0
916728,59,-12,315,0
916739,50,-6,265,0
916750,46,-28,235,0
916762,41,-32,201,0
916772,36,-40,170,0
916783,42,-42,147,0
916794,44,-44,135,0
916805,47,-41,130,0
916816,42,-24,160,0
916828,49,-24,175,0
916838,63,-17,193,0
916850,81,-11,209,0
916860,95,-13,216,0
916871,102,-16,221,0
916882,109,-20,222,0
916893,103,-18,217,0
916904,90,-19,210,0
916916,69,-14,207,0
916926,54,-5,207,0
916937,37,0,211,0
916948,36,-1,210,0
916959,34,-1,211,0
916970,30,2,216,0
916981,25,0,216,0
916993,22,-2,214,0
917003,20,-6,214,0
917014,16,-9,212,0
917025,13,-8,213,0
917036,10,-4,213,0
917047,12,-3,211,0
917058,13,-3,213,0
917069,9,-1,220,0
917080,9,0,227,0
917092,6,3,229,0
917103,7,3,233,0
917113,3,4,233,0
917124,0,0,227,0
917135,1,-3,222,0
917146,2,-4,219,0
917157,0,-5,219,0
917168,0,-1,220,0
917179,-1,-1,224,0
917191,1,-7,225,0
917201,1,-11,223,0
917212,4,-15,219,0
917223,7,-13,219,0
917234,6,-7,221,0
917245,7,-6,223,0
917256,4,-3,221,0
917267,2,-1,218,0
917278,1,3,214,0
917289,-2,10,219,0
917300,-13,9,222,0
917311,-27,-2,234,0
917322,-28,-1,240,0
917334,-9,5,238,1
917344,-4,5,267,0
917355,-14,-52,289,0
917366,6,-30,277,0
917378,-15,-12,274,0
917388,-28,-26,286,0
917399,-6,-11,280,0
917410,4,2,290,0
917421,17,-1,310,0
917432,38,-2,317,0
917443,55,12,317,0
917454,80,23,301,0
917466,106,31,274,1
917476,142,22,218,0
917487,145,13,187,0
917498,140,3,158,0
917509,130,-6,141,0
917520,115,-10,141,0
917531,96,-13,160,0
917542,72,-20,181,0
917553,54,-12,201,0
917564,32,-9,213,0
917575,15,-7,229,0
917586,7,3,257,0
917597,2,13,274,0
917608,-2,6,276,0
917619,-1,3,269,0
917630,0,-6,256,0
917641,7,-8,229,0
917653,13,-9,219,0
917663,16,-7,209,0
917674,22,-5,204,0
917685,27,-9,193,0
917696,31,-6,192,0
917707,35,-7,192,0
917718,35,-4,196,0
917729,34,-1,199,0
917740,27,0,199,0
917751,21,-1,200,0
917762,13,0,202,0
917773,3,1,206,0
917784,-7,0,209,0
917795,-14,-2,209,0
917806,-23,-10,205,0
917817,-24,-14,202,0
917828,-21,-16,202,0
917839,-20,-17,202,0
917850,-20,-16,207,0
917862,-17,-15,216,0
917872,-18,-15,221,0
917883,-20,-11,226,0
917894,-26,-7,230,0
917905,-30,-7,232,0
917917,-33,-6,232,0
917928,-29,9,249,0
917938,-48,38,257,0
917949,-59,18,266,0
917960,-56,-4,260,0
917971,-28,-14,252,0
917982,-16,-6,259,0
917993,-16,-16,264,0
918004,11,-46,286,0
918015,84,-49,388,0
918026,86,12,381,0
918037,82,0,352,0
918048,81,-17,298,0
918060,73,-22,267,1
918070,98,-37,290,0
918081,106,-21,298,0
918093,88,-19,273,0
918103,81,-39,241,0
918114,80,-29,202,0
918125,65,55,132,0
918136,75,-2,146,0
918147,77,-12,171,0
918158,73,-44,148,0
918169,56,-3,166,0
918180,51,-10,180,0
918192,50,-4,199,0
918203,64,-9,214,0
918213,85,-13,222,0
918224,104,-14,223,0
918235,113,-9,221,0
918246,105,-10,218,0
918257,90,-4,216,0
918268,76,1,209,0
918279,67,8,207,0
918291,63,13,207,0
918301,52,22,214,0
918312,48,20,221,0
918323,44,20,222,0
918334,38,15,223,0
918345,33,10,221,0
918356,30,8,219,0
918368,28,6,220,0
918378,24,4,216,0
918389,23,4,213,0
918400,19,8,217,0
918411,15,10,223,0
918422,11,11,229,0
918433,5,12,234,0
918444,1,12,233,0
918455,0,10,233,0
918466,-5,9,228,0
918478,-8,7,224,0
918488,-10,5,223,0
918499,-13,7,221,0
918510,-13,9,220,0
918521,-18,8,224,0
918532,-16,7,222,0
918543,-16,7,222,0
918554,-19,8,220,0
918565,-16,7,218,0
918576,-15,6,219,0
918587,-14,4,219,0
918598,-11,1,218,0
918609,-11,-2,217,0
918620,-12,-5,216,0
918631,-12,-2,229,0
918642,-12,0,240,0
918653,-19,2,246,0
918664,-24,1,248,0
918675,-32,2,252,0
918686,-41,-1,252,0
918697,-46,-1,253,0
918708,-40,-3,249,0
918719,-11,7,247,0
918731,-17,-28,280,1
918741,-19,-69,294,0
918753,-10,-43,277,0
918763,1,-16,266,0
918774,6,-7,294,0
918785,36,-14,311,0
918796,80,-13,290,0
918807,103,-12,267,0
918818,119,-7,240,0
918829,129,-1,204,0
918840,137,13,178,0
918851,141,24,158,0
918862,140,36,155,0
918874,141,47,169,1
918884,133,57,189,0
918895,104,52,205,0
918906,76,38,223,0
918917,45,30,232,0
918928,14,32,254,0
918939,-10,38,267,0
918950,-27,29,268,0
918962,-13,10,258,0
918972,-2,2,241,0
918984,5,4,232,0
918995,13,10,229,0
919006,22,8,224,0
919017,32,4,219,0
919028,41,4,216,0
919039,40,1,207,0
919050,37,3,212,0
919062,29,4,212,0
919072,25,1,207,0
919083,22,-1,200,0
919094,18,-1,192,0
919105,14,-1,192,0
919116,3,-6,203,0
919128,-1,-14,214,0
919138,-7,-13,212,0
919149,-10,4,209,0
919160,-23,-14,192,0
919171,-23,-5,188,0
919182,-26,-10,185,0
919193,-29,-2,193,0
919204,-31,-9,196,0
919215,-25,-6,207,0
919226,-28,8,217,0
919237,-32,6,218,0
919248,-37,9,220,0
919259,-43,14,224,0
919270,-51,20,232,0
919281,-59,12,248,0
919293,-58,8,253,0
919303,-56,3,252,0
919314,-52,8,255,0
919325,-54,15,255,0
919336,-45,-2,262,0
919347,-36,-9,259,0
919358,-27,-2,259,0
919369,-7,-2,259,0
919380,54,-14,299,0
919392,100,17,389,0
919403,113,55,370,0
919414,124,-3,339,1
919424,119,-14,302,0
919435,126,-15,335,0
919446,64,30,316,0
919457,25,-1,249,0
919468,9,-31,198,0
919479,-6,-21,178,0
919491,-11,-40,163,0
919501,1,-39,151,0
919512,16,-44,154,0
919523,31,-36,162,0
919534,43,-28,173,0
919545,52,-14,179,0
919556,60,-2,189,0
919567,62,2,199,0
919578,65,4,210,0
919589,72,1,214,0
919601,82,-7,204,0
919612,80,-6,204,0
919623,82,-7,208,0
919634,84,-7,213,0
919645,87,-2,214,0
919656,87,0,212,0
919667,80,-3,207,0
919678,69,-3,206,0
919689,62,0,209,0
919700,63,3,210,0
919711,62,1,210,0
919722,55,3,216,0
919733,48,4,222,0
919744,40,6,224,0
919755,24,6,222,0
919766,21,5,221,0
919778,18,8,217,0
919788,16,8,215,0
919799,15,7,214,0
919810,8,9,215,0
919821,3,7,217,0
919832,1,7,223,0
919843,-1,8,231,0
919854,-5,13,238,0
919865,-3,12,238,0
919876,0,8,233,0
919887,1,8,226,0
919898,5,2,220,0
919909,10,1,221,0
919920,16,0,223,0
919931,17,-1,222,0
919942,17,-3,218,0
919953,19,-6,216,0
919964,19,-7,218,0
919975,18,-7,220,0
919986,17,-5,220,0
919997,15,-1,224,0
920008,13,0,226,0
920019,10,1,230,0
920030,6,2,232,0
920041,3,0,233,0
920053,0,0,233,1
920063,-11,1,232,0
920074,-20,1,231,0
920085,-20,5,223,0
920096,2,29,219,0
920107,0,0,262,0
920118,3,-38,273,0
920129,6,-5,266,0
920140,0,-2,276,0
920151,12,-4,299,0
920162,26,3,315,0
920173,45,1,319,0
920184,63,1,315,0
920196,78,2,305,1
920206,97,11,298,0
920217,106,9,272,0
920228,113,4,237,0
920239,116,-2,197,0
920250,115,-5,149,0
920262,98,-1,135,0
920272,87,-2,134,0
920283,75,-1,147,0
920294,60,11,166,0
920305,37,18,187,0
920316,14,18,215,0
920328,3,23,254,0
920338,4,18,280,0
920349,11,15,290,0
920360,20,12,290,0
920371,30,8,279,0
920382,39,5,267,0
920393,38,3,253,0
920404,41,0,237,0
920416,44,0,221,0
920426,47,0,214,0
920437,47,-2,210,0
920448,51,1,213,0
920459,47,3,210,0
920470,36,3,204,0
920481,30,2,208,0
920493,18,1,201,0
920503,6,1,199,0
920514,-1,0,202,0
920525,-7,1,209,0
920536,-11,1,207,0
920547,-15,0,204,0
920558,-17,-5,198,0
920569,-19,-7,196,0
920580,-17,-12,193,0
920592,-14,-12,193,0
920603,-8,-11,196,0
920613,-3,-7,203,0
920624,0,-3,213,0
920635,1,-1,223,0
920646,0,1,233,0
920657,-2,4,236,0
920668,-7,6,236,0
920679,-13,5,242,0
920691,-16,5,250,0
920701,-20,3,255,0
920712,-21,3,260,0
920723,-23,1,256,0
920734,-21,-1,253,0
920745,35,-30,301,0
920756,82,35,407,0
920768,42,65,402,1
920778,59,-14,383,0
920789,78,-13,332,0
920800,90,-15,352,0
920811,78,-6,358,0
920822,58,10,287,0
920833,38,23,189,0
920844,34,-156,235,0
920855,49,-25,161,0
920866,44,-55,144,0
920878,53,-40,141,0
920888,64,-40,145,0
920899,73,-20,151,0
920911,77,-10,181,1
920921,82,-14,186,0
920932,84,-7,197,0
920943,97,-5,208,0
920954,106,-14,214,0
920965,104,-23,211,0
920976,92,-19,212,0
920987,95,-19,216,0
920998,80,-14,215,0
921009,64,-12,217,0
921020,44,-3,219,0
921031,27,-5,214,0
921042,18,-4,210,0
921053,16,0,216,0
921065,8,1,221,0
921076,4,0,225,0
921087,2,0,224,0
921098,3,-1,224,0
921109,1,-3,222,0
921120,3,-4,221,0
921131,2,-2,219,0
921142,5,-4,216,0
921153,7,-6,214,0
921164,11,-3,215,0
921175,11,0,220,0
921186,10,1,223,0
921197,8,2,228,0
921208,8,6,229,0
921219,2,12,234,0
921230,5,16,229,0
921241,6,17,225,0
921253,8,13,222,0
921263,8,8,219,0
921274,8,6,219,0
921285,10,4,218,0
921296,9,2,217,0
921307,7,0,216,0
921318,6,0,218,0
921329,6,1,216,0
921340,10,2,215,0
921351,14,1,210,0
921364,14,6,205,0
921374,2,16,209,0
921385,-7,17,215,0
921397,-19,21,221,1
921407,-24,22,220,0
921418,-10,5,227,0
921429,-19,-29,260,0
921440,-8,-29,255,0
921451,-6,1,251,0
921462,-24,0,269,0
921473,-13,8,285,0
921484,-12,14,303,0
921495,-3,-5,314,0
921506,10,-6,315,0
921517,21,12,315,0
921529,45,24,319,1
921539,96,31,295,0
921550,118,25,274,0
921562,129,15,250,0
921572,133,3,218,0
921583,133,-10,187,0
921594,134,-25,161,0
921605,126,-34,140,0
921616,110,-44,135,0
921628,93,-50,135,0
921638,73,-47,141,0
921649,60,-48,156,0
921660,50,-46,180,0
921671,46,-36,199,0
921682,41,-25,216,0
921693,35,-17,236,0
921704,27,-5,259,0
921715,9,7,294,0
921726,4,13,302,0
921737,1,9,290,0
921748,-2,5,279,0
921759,2,1,263,0
921770,1,1,245,0
921781,2,-3,233,0
921793,8,-8,225,0
921803,14,-6,219,0
921814,19,-5,219,0
921825,27,-1,223,0
921836,30,0,222,0
921847,32,0,215,0
921858,33,0,208,0
921869,32,0,206,0
921880,25,0,202,0
921891,21,-3,200,0
921903,16,-6,199,0
921913,8,-5,197,0
921924,3,-7,195,0
921935,0,-7,195,0
921946,-1,-10,198,0
921957,-3,-13,199,0
921968,-6,-14,198,0
921979,-6,-10,202,0
921991,-5,-3,208,0
922001,-6,1,211,0
922012,-3,2,215,0
922023,-4,5,220,0
922034,0,12,223,0
922045,-7,23,233,0
922056,-10,22,235,0
922067,-12,19,241,0
922078,-10,9,247,0
922089,-6,4,244,0
922100,-7,9,239,0
922111,-15,12,244,0
922122,-23,11,246,0
922133,-30,8,244,0
