timestamp,accX,accY,accZ,step
483279,-6,141,194,0
483290,-8,140,195,0
483301,-8,138,192,0
483312,-7,136,191,0
483323,-7,137,190,0
483334,-8,137,191,0
483344,-9,142,194,0
483355,-9,137,193,0
483365,-10,139,193,0
483375,-9,137,191,0
483385,-9,138,192,0
483395,-7,136,189,0
483405,-8,140,192,0
483415,-9,144,196,0
483426,-10,141,193,0
483437,-6,134,191,0
483447,-2,122,185,0
483458,-6,126,186,0
483468,-10,133,192,0
483478,-12,132,193,0
483488,-17,142,200,0
483498,-14,137,200,0
483509,-17,135,194,0
483519,-16,136,195,0
483530,-14,120,183,0
483541,-19,133,195,0
483552,-22,132,193,0
483563,-28,139,200,0
483573,-23,129,192,0
483584,-27,129,193,0
483594,-26,127,190,0
483605,-23,130,191,0
483616,-20,132,192,0
483627,-20,133,194,0
483638,-20,138,200,0
483649,-17,141,202,0
483660,-10,135,197,0
483671,-5,134,198,0
483682,-3,137,200,0
483693,-2,140,199,0
483704,-3,136,194,0
483715,-3,136,194,0
483726,-3,139,195,0
483737,-2,135,192,0
483748,-4,140,195,0
483759,-5,145,196,0
483770,-6,131,185,0
483781,-10,134,189,0
483792,-9,127,186,0
483803,-15,132,196,0
483814,-13,131,194,0
483825,-12,134,193,0
483836,-7,136,192,0
483847,-6,137,190,0
483858,-5,138,188,0
483869,-7,140,185,0
483880,-5,142,187,0
483891,-5,142,188,0
483902,-1,147,190,0
483913,0,142,191,0
483924,1,139,193,0
483935,2,138,191,0
483946,-1,141,192,0
483957,0,142,192,0
483968,-5,144,189,0
483979,-10,144,189,0
483990,-8,146,191,0
484001,-7,152,192,0
484012,-5,150,193,0
484023,-3,148,189,0
484034,-1,147,188,0
484045,-3,146,185,0
484056,-4,146,185,0
484067,-4,143,186,0
484078,-7,147,188,0
484089,-6,148,190,0
484100,-4,147,189,0
484111,-3,143,189,0
484122,-5,143,189,0
484133,-9,143,187,0
484144,-11,148,193,0
484155,-5,141,190,0
484166,-6,147,190,0
484177,-7,156,196,0
484188,-5,143,189,0
484199,-4,141,191,0
484210,-3,141,191,0
484221,-5,143,189,0
484232,-7,143,190,0
484243,-9,145,189,0
484254,-8,145,189,0
484265,-10,147,189,0
484276,-11,142,189,0
484287,-9,140,191,0
484298,-8,143,190,0
484309,-9,144,190,0
484320,-10,144,192,0
484331,-16,143,192,0
484342,-19,139,193,0
484353,-22,136,191,0
484364,-24,138,191,0
484375,-23,142,193,0
484386,-22,143,193,0
484397,-19,141,193,0
484408,-17,140,192,0
484419,-14,142,190,0
484430,-13,143,190,0
484441,-16,143,189,0
484452,-23,143,188,0
484463,-24,140,186,0
484474,-23,139,187,0
484485,-21,138,186,0
484496,-16,139,190,0
484507,-9,140,190,0
484518,-7,140,191,0
484529,-6,139,190,0
484540,-7,140,193,0
484551,-9,139,192,0
484562,-12,141,191,0
484573,-13,141,192,0
484584,-14,145,193,0
484595,-14,144,194,0
484606,-15,142,194,0
484617,-13,139,193,0
484628,-11,136,193,0
484639,-10,137,193,0
484650,-6,137,193,0
484661,-5,140,193,0
484672,-7,141,195,0
484683,-9,139,194,0
484694,-12,140,193,0
484705,-16,138,194,0
484716,-16,137,194,0
484727,-15,134,193,0
484738,-13,135,191,0
484749,-8,134,192,0
484760,-3,135,190,0
484771,0,139,190,0
484782,-10,138,193,0
484793,-14,142,191,0
484804,-21,142,191,0
484815,-24,144,188,0
484826,-30,146,188,0
484837,-36,145,188,0
484848,-37,145,190,0
484859,-31,144,192,0
484870,-28,143,193,0
484881,-26,141,193,0
484892,-24,142,193,0
484903,-25,143,192,0
484914,-24,141,191,0
484925,-26,142,191,0
484936,-27,140,193,0
484947,-29,145,190,0
484958,-31,145,190,0
484969,-32,146,189,0
484980,-32,144,188,0
484991,-33,143,189,0
485002,-31,142,189,0
485013,-32,141,189,0
485024,-32,138,189,0
485035,-32,139,190,0
485046,-33,139,188,0
485057,-31,138,189,0
485068,-31,138,190,0
485079,-32,140,190,0
485090,-34,141,190,0
485101,-36,138,191,0
485112,-35,136,189,0
485123,-38,135,191,0
485134,-39,135,190,0
485145,-40,139,189,0
485156,-42,139,190,0
485167,-39,136,192,0
485178,-39,138,190,0
485189,-40,138,190,0
485200,-39,139,190,0
485211,-37,139,191,0
485222,-35,138,189,0
485233,-36,140,190,0
485244,-36,138,191,0
485255,-36,139,191,0
485266,-42,135,192,0
485277,-41,134,190,0
485289,-44,139,188,0
485300,-46,137,187,0
485311,-48,140,187,0
485322,-48,139,186,0
485333,-46,139,187,0
485344,-45,135,189,0
485355,-44,136,187,0
485366,-45,135,185,0
485377,-43,135,187,0
485388,-45,136,187,0
485399,-47,136,187,0
485410,-46,137,187,0
485421,-46,136,188,0
485432,-43,134,189,0
485443,-43,134,188,0
485454,-44,131,188,0
485465,-45,133,184,0
485476,-46,134,185,0
485487,-47,132,184,0
485498,-47,134,185,0
485509,-49,138,183,0
485520,-51,137,184,0
485531,-53,136,186,0
485542,-51,133,186,0
485553,-52,135,184,0
485564,-47,133,180,0
485575,-43,134,180,0
485586,-38,136,180,0
485597,-37,138,182,0
485608,-40,137,183,0
485619,-40,136,185,0
485630,-42,136,183,0
485641,-43,138,184,0
485652,-45,140,175,0
485663,-49,141,178,0
485674,-48,144,180,0
485685,-46,143,181,0
485696,-45,142,177,0
485707,-45,141,171,0
485718,-47,143,170,0
485729,-33,145,161,0
485740,-33,145,183,0
485751,-36,158,191,0
485762,-44,154,196,0
485773,-57,151,203,0
485784,-59,152,206,1
485795,-58,179,220,0
485806,-54,189,235,0
485817,-38,178,226,0
485828,-29,206,246,0
485839,-19,196,242,0
485850,-12,207,253,0
485861,1,199,236,0
485872,3,184,225,0
485884,-1,203,240,0
485894,16,156,199,0
485905,26,135,188,0
485916,27,123,180,0
485927,19,122,182,0
485938,15,114,181,0
485949,24,98,165,0
485960,25,89,151,0
485971,24,101,156,0
485982,23,107,163,0
485993,22,133,194,0
486004,18,143,199,0
486015,13,143,200,0
486026,8,152,217,0
486037,3,156,227,0
486048,3,152,225,0
486059,6,142,218,0
486070,5,124,199,0
486081,6,120,196,0
486092,10,110,188,0
486103,12,111,185,0
486114,10,114,186,0
486125,13,113,182,0
486136,11,115,184,0
486147,9,115,181,0
486158,10,113,179,0
486169,3,119,191,0
486180,7,109,184,0
486191,0,114,186,0
486202,1,109,180,0
486213,-3,108,182,0
486224,-9,107,183,0
486235,-26,109,187,0
486246,-27,104,187,0
486257,-32,104,187,0
486268,-32,102,185,0
486279,-38,101,183,0
486290,-37,104,186,0
486301,-43,105,188,0
486312,-47,110,190,0
486323,-52,112,189,0
486334,-51,113,187,0
486345,-57,118,174,0
486356,-51,117,163,0
486367,-48,119,178,0
486378,-38,110,177,0
486389,-26,110,181,0
486400,-23,106,190,0
486411,-25,114,199,0
486422,-25,122,212,0
486433,-20,120,214,0
486444,-23,124,221,0
486455,-20,119,215,0
486466,-30,140,228,0
486477,-36,147,233,0
486488,-39,125,215,0
486499,-49,130,228,0
486510,-54,121,221,0
486521,-61,130,222,0
486532,-61,116,212,0
486543,-42,204,286,0
486554,-27,197,293,0
486565,-6,200,308,0
486576,-2,176,278,1
486587,14,186,285,0
486598,38,174,268,0
486609,36,141,231,0
486620,37,101,231,0
486631,38,87,205,0
486642,33,64,180,0
486653,48,58,163,0
486664,55,66,161,0
486675,55,81,151,0
486686,45,98,143,0
486697,43,104,148,0
486708,37,114,156,0
486719,43,135,181,0
486730,51,131,191,0
486741,54,125,195,0
486752,46,119,195,0
486763,38,111,190,0
486774,27,105,181,0
486785,18,110,175,0
486796,6,121,173,0
486807,0,128,177,0
486818,-7,137,181,0
486829,-11,140,184,0
486840,-9,137,182,0
486851,-8,131,185,0
486862,-3,124,181,0
486873,3,122,179,0
486884,-1,117,174,0
486895,-1,122,180,0
486906,-1,125,182,0
486917,-3,127,186,0
486928,-9,126,188,0
486939,-15,127,188,0
486950,-20,129,187,0
486961,-25,134,188,0
486972,-30,136,188,0
486983,-35,136,186,0
486994,-38,136,187,0
487005,-37,134,184,0
487016,-35,131,179,0
487027,-35,128,178,0
487038,-34,127,177,0
487049,-32,119,182,0
487060,-32,117,183,0
487071,-34,116,183,0
487082,-34,116,184,0
487093,-35,121,186,0
487104,-34,125,189,0
487115,-36,128,190,0
487126,-37,133,188,0
487137,-47,133,191,0
487148,-56,134,197,0
487159,-61,133,200,0
487170,-65,134,203,0
487181,-64,138,208,0
487192,-33,144,206,0
487203,-37,149,272,1
487214,-49,158,244,0
487225,-60,160,259,0
487236,-54,171,258,0
487247,-48,189,254,0
487258,-44,216,294,0
487269,-21,200,290,0
487280,2,207,276,0
487291,34,183,245,0
487302,56,187,237,0
487313,76,137,197,0
487324,67,181,215,0
487335,78,143,172,0
487346,100,66,93,0
487357,85,71,98,0
487368,33,126,174,0
487379,34,106,160,0
487390,22,117,176,0
487401,4,123,191,0
487412,-17,142,215,0
487423,-28,148,219,0
487434,-29,142,216,0
487445,-11,112,191,0
487456,-23,183,241,0
487467,6,90,157,0
487478,5,95,162,0
487489,-12,135,197,0
487500,1,105,165,0
487511,2,113,176,0
487522,13,106,176,0
487533,17,99,174,0
487544,10,108,186,0
487555,6,108,187,0
487566,-3,105,185,0
487577,-8,105,184,0
487588,-18,104,183,0
487599,-26,101,184,0
487610,-32,96,175,0
487621,-36,94,172,0
487632,-38,84,163,0
487643,-36,84,166,0
487654,-36,85,166,0
487665,-34,84,166,0
487676,-35,84,170,0
487687,-34,90,184,0
487698,-40,97,209,0
487709,-41,110,212,0
487720,-55,120,222,0
487731,-67,135,227,0
487742,-78,138,225,0
487753,-83,132,222,0
487764,-73,134,221,0
487775,-55,134,216,0
487786,-48,131,213,0
487797,-56,130,221,0
487808,-72,124,237,0
487819,-69,167,275,0
487830,-28,255,317,1
487841,-17,222,327,0
487852,-8,182,335,0
487863,-14,147,278,0
487874,16,190,287,0
487885,43,161,265,0
487896,42,102,228,0
487907,48,82,198,0
487918,38,69,175,0
487929,35,75,160,0
487940,42,90,157,0
487951,43,102,157,0
487962,41,104,143,0
487973,38,110,137,0
487984,43,122,145,0
487995,45,133,151,0
488006,47,138,156,0
488017,52,145,170,0
488028,56,138,182,0
488039,58,131,187,0
488050,50,131,190,0
488061,40,131,192,0
488072,28,132,191,0
488083,17,134,191,0
488094,8,136,190,0
488105,0,136,193,0
488117,-9,136,194,0
488128,-12,134,177,0
488139,-16,132,171,0
488150,-15,129,172,0
488161,-16,128,173,0
488172,-22,128,173,0
488183,-21,132,178,0
488194,-22,134,179,0
488205,-21,133,180,0
488216,-20,133,180,0
488227,-24,138,184,0
488238,-27,141,188,0
488249,-28,142,186,0
488260,-31,140,181,0
488271,-32,140,180,0
488282,-31,139,179,0
488293,-30,138,180,0
488304,-24,135,183,0
488315,-15,131,186,0
488326,-12,130,186,0
488337,-10,126,187,0
488348,-10,128,187,0
488360,-10,126,187,0
488371,-11,124,191,0
488382,-13,124,192,0
488393,-13,125,193,0
488404,-15,128,193,0
488415,-18,127,193,0
488426,-18,129,193,0
488437,-18,130,194,0
488448,-20,129,197,0
488459,-20,127,200,0
488470,-24,128,200,0
488481,-39,123,205,0
488492,-53,122,203,0
488503,-59,127,204,0
488514,-34,146,200,0
488525,-28,177,219,0
488536,-12,155,281,0
488547,-15,175,268,0
488558,-41,179,253,1
488569,-59,204,255,0
488580,-59,200,246,0
488591,-52,211,247,0
488602,-38,227,255,0
488613,-5,196,229,0
488624,21,199,228,0
488635,62,151,189,0
488646,62,156,175,0
488657,49,174,182,0
488668,94,88,108,0
488679,69,108,128,0
488690,46,121,147,0
488701,20,133,167,0
488712,-1,135,174,0
488723,-15,146,186,0
488734,-20,152,197,0
488745,-20,153,205,0
488756,-10,146,208,0
488767,-11,149,212,0
488778,-4,143,210,0
488789,-1,129,195,0
488800,6,126,197,0
488811,10,128,192,0
488822,22,109,177,0
488833,17,108,172,0
488844,15,109,171,0
488855,11,107,170,0
488866,4,113,177,0
488877,-7,122,187,0
488888,-6,107,177,0
488899,-7,108,183,0
488910,-17,109,188,0
488921,-23,109,189,0
488932,-24,105,185,0
488943,-25,102,184,0
488954,-27,100,180,0
488965,-29,98,177,0
488976,-32,90,173,0
488987,-35,92,176,0
488998,-36,92,176,0
489009,-38,93,181,0
489020,-43,100,185,0
489031,-49,101,183,0
489042,-48,109,185,0
489053,-43,114,189,0
489064,-39,120,198,0
489075,-35,127,213,0
489086,-29,129,216,0
489098,-24,132,216,0
489108,-28,144,224,0
489119,-34,142,229,0
489130,-33,144,223,0
489141,-30,138,214,0
489152,-39,129,222,0
489163,-41,159,246,1
489174,-7,295,310,0
489185,-23,261,285,0
489196,-4,185,312,0
489207,39,162,260,0
489218,34,160,243,0
489229,23,191,289,0
489240,20,180,251,0
489251,18,145,227,0
489262,25,121,219,0
489273,31,96,205,0
489284,35,85,187,0
489295,34,71,166,0
489306,30,75,153,0
489317,24,88,147,0
489328,17,108,137,0
489339,14,118,135,0
489350,13,135,149,0
489361,19,151,169,0
489372,28,153,183,0
489383,32,145,188,0
489394,30,130,184,0
489405,23,123,179,0
489416,11,127,180,0
489427,3,130,182,0
489438,-4,133,182,0
489449,-10,133,183,0
489460,-8,133,180,0
489471,-2,132,173,0
489482,2,130,176,0
489493,1,129,178,0
489504,-5,129,181,0
489515,-10,128,182,0
489526,-16,128,175,0
489537,-21,128,180,0
489548,-21,130,179,0
489559,-26,134,176,0
489570,-27,136,173,0
489581,-26,137,175,0
489592,-23,141,176,0
489603,-22,144,175,0
489614,-20,145,176,0
489625,-15,146,175,0
489636,-13,148,174,0
489647,-10,151,177,0
489658,-7,151,176,0
489669,-5,145,174,0
489680,-6,140,176,0
489691,-7,139,182,0
489702,-8,137,187,0
489714,-9,141,191,0
489725,-4,138,194,0
489736,0,137,196,0
489747,0,143,196,0
489758,-3,144,197,0
489769,-13,147,194,0
489780,-37,149,186,0
489791,-43,156,187,0
489802,-50,161,188,0
489813,-61,160,187,0
489824,-54,160,188,0
489835,-31,176,188,0
489846,-25,193,225,1
489857,-14,197,255,0
489869,-27,198,250,0
489880,-30,193,247,0
489891,-30,214,242,0
489902,-27,215,222,0
489913,-25,200,224,0
489924,-3,199,203,0
489935,11,231,228,0
489946,45,148,172,0
489958,63,138,171,0
489969,73,132,168,0
489980,96,126,162,0
489991,118,70,98,0
490002,97,120,138,0
490013,81,114,138,0
490024,68,113,140,0
490036,44,140,163,0
490046,22,154,182,0
490057,7,160,198,0
490068,-7,179,240,0
490079,-3,163,226,0
490090,-5,156,214,0
490101,-14,166,218,0
490112,-6,137,193,0
490123,-12,149,205,0
490135,-2,136,192,0
490146,0,135,189,0
490157,1,129,186,0
490168,4,126,185,0
490179,8,127,186,0
490190,13,124,181,0
490201,9,127,181,0
490212,8,125,183,0
490223,4,123,190,0
490234,-2,120,182,0
490245,-6,117,183,0
490256,-7,108,182,0
490267,-8,100,177,0
490279,-10,98,176,0
490290,-17,98,178,0
490301,-25,101,190,0
490312,-24,112,185,0
490323,-15,134,159,0
490334,-6,135,152,0
490345,-22,131,186,0
490356,-19,133,200,0
490367,-14,139,201,0
490378,-18,130,197,0
490389,-24,123,189,0
490400,-29,121,187,0
490411,-35,124,183,0
490422,-39,124,181,0
490433,-36,128,183,0
490444,-38,136,190,0
490455,-43,136,196,0
490466,-54,136,200,0
490477,-64,147,216,0
490488,-62,180,243,0
490499,-39,268,278,1
490510,-68,257,285,0
490521,-35,234,311,0
490532,4,155,254,0
490543,13,134,243,0
490554,25,128,243,0
490565,25,118,241,0
490576,42,102,224,0
490587,44,75,202,0
490598,49,67,192,0
490609,46,73,179,0
490620,43,90,162,0
490631,32,110,152,0
490642,27,120,140,0
490653,19,126,136,0
490664,20,138,141,0
490675,21,146,161,0
490686,28,143,177,0
490697,38,129,193,0
490708,36,122,196,0
490719,29,111,193,0
490730,23,110,188,0
490741,17,115,188,0
490752,12,117,187,0
490763,3,124,191,0
490774,1,128,192,0
490785,1,128,185,0
490796,1,128,179,0
490807,0,125,175,0
490818,2,124,170,0
490829,-1,123,166,0
490840,-4,121,164,0
490851,-3,124,168,0
490862,-7,130,178,0
490873,-11,131,180,0
490884,-14,134,181,0
490895,-15,137,185,0
490906,-20,139,185,0
490917,-22,142,186,0
490928,-22,143,185,0
490939,-22,142,187,0
490950,-22,140,188,0
490961,-17,137,185,0
490972,-14,134,179,0
490983,-12,132,176,0
490994,-7,132,181,0
491005,-5,132,187,0
491016,-3,130,190,0
491027,3,121,196,0
491038,2,121,201,0
491049,0,119,205,0
491060,-5,120,206,0
491071,-16,122,204,0
491082,-24,128,202,0
491093,-35,136,195,0
491104,-47,143,191,0
491115,-59,149,193,0
491126,-65,144,193,0
491137,-70,138,194,0
491148,-70,133,195,0
491159,-36,148,191,0
491170,-35,150,238,0
491181,-42,159,245,0
491192,-48,165,251,0
491203,-35,194,239,1
491214,-24,187,221,0
491225,-2,192,262,0
491236,21,216,281,0
491248,31,213,269,0
491258,57,182,233,0
491269,69,202,242,0
491280,110,140,184,0
491291,113,146,187,0
491302,116,99,140,0
491313,106,89,124,0
491324,91,104,140,0
491335,70,126,176,0
491346,34,135,190,0
491357,12,132,180,0
491368,-4,140,191,0
491379,-20,147,202,0
491390,-23,144,207,0
491401,-23,152,224,0
491412,-14,129,203,0
491423,-14,115,191,0
491434,-22,121,191,0
491445,-29,130,196,0
491456,-28,123,185,0
491467,-16,116,176,0
491478,-7,116,178,0
491489,4,105,186,0
491500,17,107,183,0
491511,21,106,186,0
491522,23,103,186,0
491533,18,103,189,0
491544,12,100,188,0
491555,9,97,186,0
491566,3,99,191,0
491577,0,98,191,0
491588,-10,94,187,0
491599,-20,94,178,0
491610,-26,91,173,0
491621,-30,90,168,0
491632,-34,90,168,0
491643,-41,92,169,0
491654,-39,95,170,0
491665,-43,98,179,0
491676,-46,99,188,0
491687,-41,107,189,0
491698,-37,114,190,0
491709,-39,118,195,0
491720,-44,122,205,0
491731,-45,123,213,0
491742,-45,125,216,0
491753,-48,132,221,0
491764,-54,139,228,0
491775,-62,144,232,0
491786,-67,139,230,0
491797,-74,133,233,0
491808,-75,125,237,0
491819,-78,132,248,0
491830,-62,181,283,0
491841,-2,232,325,1
491852,15,193,335,0
491863,27,170,281,0
491874,32,151,248,0
491885,57,181,250,0
491896,58,157,255,0
491907,55,114,246,0
491918,68,101,216,0
491929,57,75,194,0
491940,53,83,159,0
491951,43,107,148,0
491962,36,119,134,0
491973,34,115,131,0
491984,30,111,135,0
491995,30,115,142,0
492006,39,129,167,0
492017,51,131,182,0
492028,61,125,188,0
492039,58,124,189,0
492050,47,128,189,0
492061,42,122,179,0
492072,36,124,176,0
492083,32,128,176,0
492094,30,129,177,0
492105,25,131,180,0
492116,18,134,184,0
492127,14,133,184,0
492138,13,131,182,0
492149,13,126,181,0
492160,2,122,172,0
492171,0,124,174,0
492182,-5,125,174,0
492193,-9,133,186,0
492204,-15,135,188,0
492215,-21,133,188,0
492226,-25,132,188,0
492237,-29,133,187,0
492248,-32,128,186,0
492259,-36,127,182,0
492270,-37,126,177,0
492281,-36,127,176,0
492292,-33,125,176,0
492303,-29,127,178,0
492314,-22,127,184,0
492325,-16,122,185,0
492336,-14,120,185,0
492347,-13,117,190,0
492358,-15,119,190,0
492369,-18,113,189,0
492380,-20,109,189,0
492391,-23,109,182,0
492402,-24,109,176,0
492413,-25,114,176,0
492424,-27,121,180,0
492435,-29,125,188,0
492446,-31,128,193,0
492457,-32,131,194,0
492468,-32,139,197,0
492479,-20,148,209,1
492490,-15,156,277,0
492501,-36,173,266,0
492512,-66,174,256,0
492523,-79,179,269,0
492534,-80,188,262,0
492545,-72,183,254,0
492556,-55,184,271,0
492567,-32,198,275,0
492578,-12,206,266,0
492589,19,196,260,0
492600,37,150,215,0
492611,44,163,217,0
492622,43,159,211,0
492633,68,94,150,0
492644,55,115,152,0
492655,58,98,119,0
492666,51,113,135,0
492677,37,126,161,0
492688,34,127,175,0
492699,25,142,192,0
492710,9,155,209,0
492721,6,159,219,0
492732,7,153,218,0
492743,7,149,218,0
492754,7,132,196,0
492765,3,118,184,0
492776,3,107,178,0
492787,4,103,176,0
492799,6,102,175,0
492809,14,101,174,0
492820,14,109,178,0
492831,12,112,182,0
492842,4,115,186,0
492853,1,119,193,0
492864,-8,120,196,0
492875,-14,115,198,0
492886,-20,112,203,0
492897,-22,105,200,0
492908,-22,102,195,0
492919,-24,94,190,0
492930,-22,90,183,0
492941,-18,86,173,0
492952,-7,76,155,0
492963,-12,86,156,0
492974,-23,94,174,0
492985,-20,97,174,0
492996,-25,103,176,0
493007,-33,111,184,0
493018,-41,120,190,0
493029,-50,126,195,0
493040,-57,130,201,0
493051,-57,133,203,0
493062,-59,134,206,0
493073,-55,133,215,0
493084,-55,137,220,0
493095,-59,138,227,0
493106,-54,132,230,0
493117,-49,129,234,0
493128,-52,129,234,0
493139,-46,135,248,0
493150,-10,225,298,0
493161,-2,287,304,0
493172,-19,205,324,0
493183,10,175,311,1
493194,16,171,270,0
493205,35,187,285,0
493216,62,208,293,0
493227,59,151,262,0
493238,55,105,234,0
493249,53,70,197,0
493260,39,55,173,0
493271,44,56,150,0
493282,48,70,144,0
493293,45,85,135,0
493304,33,114,133,0
493315,31,125,142,0
493326,30,135,155,0
493337,38,140,171,0
493349,48,140,187,0
493359,57,133,195,0
493370,61,123,195,0
493381,56,111,191,0
493392,50,109,186,0
493403,43,109,180,0
493415,33,118,179,0
493426,21,127,180,0
493437,11,132,181,0
493448,2,136,184,0
493459,2,135,181,0
493470,1,133,179,0
493481,-2,129,180,0
493492,-3,126,177,0
493503,-5,125,173,0
493514,-10,127,172,0
493525,-14,127,175,0
493536,-18,131,182,0
493547,-24,134,186,0
493558,-25,134,183,0
493569,-25,132,184,0
493580,-26,131,185,0
493591,-26,133,186,0
493602,-22,132,185,0
493613,-15,130,183,0
493624,-9,132,185,0
493635,-6,131,187,0
493646,-4,132,186,0
493657,-3,131,188,0
493668,-2,129,189,0
493679,-3,125,189,0
493690,-1,121,190,0
493701,0,119,191,0
493713,1,118,195,0
493724,2,121,194,0
493735,0,129,196,0
493746,-5,132,199,0
493757,-12,130,198,0
493768,-22,125,199,0
493779,-28,124,196,0
493791,-38,125,197,0
493801,-43,126,200,0
493812,-33,131,206,0
493823,0,148,215,1
493834,6,143,266,0
493845,11,160,276,0
493856,-7,168,256,0
493867,-28,170,256,0
493878,-42,178,258,0
493889,-37,169,253,0
493900,-29,192,252,0
493911,-7,212,248,0
493922,24,213,249,0
493933,64,153,199,0
493944,66,153,188,0
493955,70,151,183,0
493966,80,96,135,0
493977,59,107,153,0
493988,52,85,144,0
494000,31,104,171,0
494010,20,114,185,0
494021,4,124,196,0
494032,-8,136,213,0
494043,-12,140,224,0
494054,-7,146,231,0
494065,3,132,217,0
494076,6,122,205,0
494087,12,117,195,0
494098,10,99,176,0
494109,10,97,176,0
494120,13,94,175,0
494131,15,96,179,0
494142,19,100,184,0
494153,22,97,187,0
494164,24,100,187,0
494175,25,103,191,0
494186,23,101,191,0
494197,22,100,189,0
494208,21,98,188,0
494219,20,99,188,0
494230,17,100,190,0
494241,15,103,190,0
494252,6,97,191,0
494263,3,97,188,0
494274,0,95,183,0
494285,-4,98,185,0
494296,-9,95,183,0
494307,-11,95,185,0
494318,-14,95,185,0
494329,-23,97,191,0
494341,-25,101,195,0
494352,-26,103,194,0
494363,-30,103,195,0
494374,-33,102,197,0
494385,-35,104,199,0
494396,-36,108,205,0
494407,-35,105,208,0
494418,-29,102,209,0
494429,-23,102,224,0
494440,-10,102,224,0
494451,-6,111,224,0
494462,-7,118,223,0
494473,-12,114,218,0
494484,-23,117,216,1
494495,-30,119,214,0
494506,-42,125,224,0
494517,-39,169,256,0
494528,-4,249,283,0
494539,1,210,281,0
494550,14,174,308,0
494561,32,160,282,0
494572,42,185,258,0
494583,50,190,262,0
494594,42,158,262,0
494605,47,135,243,0
494616,41,107,215,0
494627,30,88,188,0
494638,33,87,167,0
494649,29,88,160,0
494660,29,102,152,0
494671,28,108,141,0
494682,25,118,129,0
494693,22,125,128,0
494704,22,141,139,0
494715,30,153,154,0
494726,39,161,177,0
494737,43,161,184,0
494748,47,155,186,0
494759,45,146,185,0
494770,41,141,188,0
494781,35,137,183,0
494792,30,140,179,0
494803,27,142,176,0
494814,24,144,178,0
494825,19,147,174,0
494836,18,153,173,0
494847,15,148,170,0
494858,11,146,168,0
494869,9,146,172,0
494880,6,142,173,0
494891,0,139,177,0
494902,-1,140,178,0
494913,-5,140,180,0
494924,-7,138,186,0
494935,-8,136,189,0
494946,-9,137,185,0
494957,-11,140,182,0
494968,-14,144,183,0
494979,-14,145,185,0
494990,-14,145,182,0
495001,-15,146,182,0
495012,-17,147,183,0
495023,-16,146,181,0
495034,-13,145,183,0
495045,-14,144,181,0
495056,-7,134,182,0
495067,-1,132,181,0
495078,0,131,180,0
495089,-2,129,180,0
495100,-2,133,184,0
495111,-2,133,186,0
495122,1,135,188,0
495133,0,135,190,0
495144,-1,133,190,0
495155,-8,135,190,0
495166,-12,136,187,0
495177,-17,135,186,0
495188,-19,133,185,0
495199,-20,133,182,0
495210,-21,134,184,1
495221,-11,133,176,0
495232,16,181,157,0
495243,42,193,210,0
495254,53,205,244,0
495265,29,181,231,0
495276,15,183,205,0
495287,24,190,199,0
495298,35,200,208,0
495309,33,193,222,0
495320,31,194,230,0
495331,24,195,224,0
495342,16,205,229,0
495353,22,201,221,0
495364,28,197,215,0
495375,32,177,202,0
495386,37,127,186,0
495397,38,105,172,0
495408,34,96,163,0
495419,22,94,155,0
495430,12,104,150,0
495441,5,120,153,0
495452,0,140,162,0
495463,-6,159,178,0
495474,-5,163,190,0
495485,-2,165,200,0
495496,5,163,208,0
495507,18,163,208,0
495518,24,163,205,0
495529,24,151,198,0
495540,30,147,192,0
495551,40,138,194,0
495562,46,137,189,0
495573,49,137,182,0
495584,47,135,180,0
495595,39,135,177,0
495606,34,136,178,0
495617,27,135,177,0
495628,20,135,179,0
495639,15,132,178,0
495650,15,131,177,0
495661,17,130,178,0
495672,22,129,176,0
495683,27,127,178,0
495694,30,127,178,0
495705,34,127,181,0
495716,40,127,186,0
495727,45,128,187,0
495738,45,128,189,0
495749,47,130,192,0
495760,47,133,194,0
495771,44,136,198,0
495782,42,132,197,0
495793,31,138,203,0
495804,27,136,205,0
495815,24,136,203,0
495826,18,131,200,0
495837,13,131,202,0
495848,7,130,202,0
495859,4,126,203,0
495870,3,125,200,0
495881,2,123,194,0
495892,2,119,193,0
495903,-2,121,193,0
495914,-8,119,195,0
495925,-13,119,194,0
495936,-14,115,194,0
495947,-15,118,195,0
495958,-15,120,196,0
495969,-11,119,193,0
495980,-9,116,187,0
495991,-6,114,184,0
496002,-6,115,183,0
496013,-5,115,182,0
496024,-6,114,177,0
496035,-4,114,179,0
496046,1,130,175,0
496057,6,178,176,0
496068,3,198,193,0
496079,13,180,211,0
496090,39,187,211,1
496101,39,237,210,0
496112,25,264,225,0
496123,29,250,230,0
496134,37,211,235,0
496145,38,167,219,0
496156,21,129,179,0
496167,9,119,154,0
496178,0,133,149,0
496189,-1,146,146,0
496200,5,142,134,0
496211,18,152,149,0
496222,25,162,151,0
496233,30,179,136,0
496244,39,192,132,0
496255,46,199,138,0
496266,51,206,150,0
496277,52,198,165,0
496288,54,189,163,0
496299,57,191,151,0
496310,58,193,143,0
496321,51,194,141,0
496332,43,193,143,0
496343,35,192,146,0
496354,25,193,146,0
496365,19,192,148,0
496376,14,196,160,0
496387,13,192,162,0
496398,17,192,159,0
496409,24,187,149,0
496420,27,190,147,0
496431,28,194,147,0
496442,24,196,152,0
496453,24,197,156,0
496464,23,195,155,0
496475,20,196,151,0
496486,18,195,151,0
496497,15,195,151,0
496508,15,195,150,0
496519,16,194,151,0
496530,17,192,153,0
496541,17,190,154,0
496552,15,190,152,0
496563,12,191,151,0
496574,9,190,151,0
496585,8,190,149,0
496596,8,191,145,0
496607,6,189,144,0
496618,5,190,144,0
496629,4,191,146,0
496640,5,192,147,0
496651,4,192,150,0
496662,7,191,150,0
496673,6,194,147,0
496684,7,198,147,0
496695,5,200,149,0
496706,4,201,145,0
496717,4,200,146,0
496728,6,199,148,0
496739,10,199,149,0
496750,13,201,149,0
496761,12,199,147,0
496772,14,197,146,0
496783,12,199,146,0
496794,10,199,146,0
496805,10,198,143,0
496816,12,196,142,0
496827,11,197,142,0
496838,13,196,143,0
496849,15,196,145,0
496860,18,198,141,0
496871,17,199,142,0
496882,16,197,142,0
496893,13,196,142,0
496904,10,196,141,0
496915,8,196,141,0
496926,7,196,143,0
496937,7,197,143,0
496949,7,194,142,0
496960,8,195,142,0
496971,7,194,143,0
496982,6,194,143,0
496993,5,194,144,0
497004,7,194,145,0
497015,3,193,148,0
497026,4,194,145,0
497037,4,196,146,0
497048,3,197,146,0
497059,0,196,143,0
497070,-3,197,140,0
497081,-3,195,136,0
497092,-2,198,138,0
497103,-1,196,140,0
497114,-3,197,139,0
497125,-6,191,142,0
497136,-5,194,136,0
497147,-7,201,134,0
497158,-10,206,140,0
497169,-16,209,135,0
497180,-18,202,131,0
497191,-18,204,128,0
497202,-17,201,128,0
497213,-14,197,130,0
497224,-9,189,132,0
497235,7,166,133,1
497246,25,162,131,0
497257,51,150,139,0
497268,62,147,153,0
497279,53,148,167,0
497290,25,166,185,0
497301,4,186,205,0
497312,3,201,219,0
497323,31,181,206,0
497334,32,192,219,0
497345,35,162,206,0
497356,27,139,195,0
497367,-6,165,217,0
497378,-28,187,237,0
497389,-45,203,247,0
497400,-48,195,240,0
497411,-45,186,233,0
497422,-30,177,222,0
497433,-13,160,214,0
497445,-4,147,218,0
497455,6,135,216,0
497466,19,126,206,0
497478,30,121,203,0
497489,34,122,196,0
497500,24,124,178,0
497511,23,128,172,0
497522,19,137,173,0
497533,17,135,168,0
497544,13,137,166,0
497555,10,136,163,0
497566,9,134,168,0
497577,13,133,174,0
497588,13,133,183,0
497599,9,129,181,0
497610,3,129,182,0
497621,-7,132,182,0
497632,-11,134,183,0
497643,-22,136,183,0
497654,-25,137,181,0
497665,-29,133,172,0
497676,-26,136,178,0
497687,-17,128,173,0
497698,-7,133,184,0
497709,5,127,186,0
497720,14,124,184,0
497731,23,124,191,0
497742,28,121,188,0
497753,28,119,190,0
497764,23,117,192,0
497775,18,115,193,0
497786,8,116,193,0
497797,3,115,194,0
497808,-2,118,195,0
497819,-7,116,195,0
497830,-16,122,198,0
497841,-17,124,202,0
497852,-12,121,202,0
497863,-12,117,201,0
497874,-15,113,201,0
497885,-15,113,202,0
497896,-12,114,201,0
497907,-14,115,198,0
497918,-17,119,195,0
497929,-19,119,194,0
497940,-22,120,192,0
497951,-22,115,193,0
497962,-22,118,194,0
497973,-21,116,205,0
497984,-16,131,214,0
497995,-14,124,210,0
498006,-9,124,202,0
498017,-14,127,219,0
498028,-20,126,227,0
498039,-24,124,224,0
498050,-35,120,223,0
498061,-46,108,218,1
498072,-52,102,204,0
498083,-60,102,201,0
498094,-56,134,220,0
498105,-5,215,271,0
498116,-14,181,243,0
498127,-3,146,265,0
498138,13,139,265,0
498149,54,156,265,0
498160,67,145,255,0
498171,63,129,233,0
498182,50,118,156,0
498193,49,50,244,0
498204,78,104,158,0
498215,50,79,187,0
498226,57,94,166,0
498237,46,92,168,0
498248,38,105,158,0
498259,32,110,156,0
498270,33,120,164,0
498281,35,131,171,0
498292,41,137,177,0
498303,50,137,179,0
498314,63,123,183,0
498325,64,122,186,0
498336,61,123,187,0
498347,52,128,190,0
498358,43,130,189,0
498369,30,133,188,0
498380,23,131,187,0
498391,21,131,183,0
498402,17,133,179,0
498413,12,133,176,0
498424,11,131,176,0
498435,19,129,175,0
498446,22,129,176,0
498457,27,129,179,0
498468,19,132,184,0
498479,12,136,181,0
498490,4,141,179,0
498501,1,142,181,0
498512,-3,143,184,0
498523,-6,144,188,0
498534,-8,141,187,0
498545,-10,141,186,0
498556,-11,141,184,0
498567,-11,139,184,0
498578,-9,137,183,0
498589,-9,136,185,0
498600,-9,134,183,0
498611,-10,133,183,0
498622,-13,134,183,0
498633,-13,134,185,0
498644,-15,136,186,0
498655,-18,135,183,0
498666,-19,132,182,0
498677,-21,133,181,0
498688,-22,133,185,0
498699,-20,135,186,0
498710,-16,136,190,0
498721,-18,139,193,0
498732,-16,141,196,0
498743,-22,144,200,0
498754,-28,148,202,0
498765,-33,146,199,0
498776,-42,148,195,0
498787,-53,143,197,0
498798,-58,141,189,0
498809,-25,152,196,0
498820,-13,145,234,0
498831,-28,161,241,1
498842,-37,152,209,0
498853,-56,169,233,0
498864,-48,176,251,0
498875,-33,182,270,0
498886,-17,174,254,0
498897,-22,238,303,0
498908,11,223,272,0
498919,26,223,257,0
498930,34,217,242,0
498941,51,219,247,0
498952,97,94,135,0
498963,98,108,148,0
498974,87,77,121,0
498985,95,66,102,0
498996,68,105,147,0
499007,60,108,144,0
499018,47,115,150,0
499029,35,123,167,0
499040,23,138,194,0
499052,13,161,224,0
499062,13,165,230,0
499073,22,141,211,0
499084,22,134,203,0
499095,18,123,189,0
499106,15,122,188,0
499117,7,132,200,0
499128,6,126,190,0
499139,7,124,192,0
499150,12,117,187,0
499161,10,114,187,0
499172,13,110,184,0
499183,13,106,179,0
499194,11,103,176,0
499205,9,104,178,0
499216,7,103,183,0
499227,5,103,186,0
499238,2,103,190,0
499249,0,100,189,0
499260,-5,98,190,0
499271,-10,96,185,0
499282,-17,96,181,0
499293,-21,87,176,0
499304,-22,81,189,0
499315,-16,95,176,0
499326,-17,96,179,0
499337,1,93,140,0
499348,-22,130,185,0
499359,-37,133,228,0
499370,-32,129,214,0
499381,-27,124,195,0
499392,-35,121,197,0
499403,-42,122,204,0
499414,-52,126,209,0
499425,-60,132,217,0
499436,-63,133,223,0
499447,-66,136,226,0
499458,-70,124,224,0
499469,-70,124,226,0
499480,-45,178,265,0
499491,-3,274,302,0
499502,-6,241,322,1
499513,10,200,331,0
499524,19,170,269,0
499535,25,155,245,0
499546,50,175,282,0
499557,59,162,286,0
499568,64,128,247,0
499579,74,86,213,0
499590,67,62,187,0
499601,65,68,164,0
499612,61,80,160,0
499623,45,98,130,0
499634,40,106,129,0
499645,37,116,134,0
499656,30,136,145,0
499667,27,149,163,0
499678,37,148,174,0
499689,47,139,181,0
499700,53,130,186,0
499711,51,125,189,0
499722,45,126,189,0
499733,35,126,185,0
499744,28,129,183,0
499755,24,133,185,0
499766,22,130,182,0
499777,18,131,184,0
499788,5,130,189,0
499799,-1,129,190,0
499810,-5,126,186,0
499821,-8,124,178,0
499832,-9,122,176,0
499843,-9,126,176,0
499854,-11,128,174,0
499865,-9,130,174,0
499876,-12,131,176,0
499887,-15,136,178,0
499898,-22,136,179,0
499909,-29,136,183,0
499920,-33,135,187,0
499931,-34,135,183,0
499942,-37,133,181,0
499953,-31,131,179,0
499964,-26,132,180,0
499975,-20,134,181,0
499986,-14,129,181,0
499997,-10,127,185,0
500008,-4,123,188,0
500019,-2,118,190,0
500030,0,119,192,0
500041,0,119,191,0
500052,-3,125,188,0
500063,-11,128,186,0
500074,-22,128,181,0
500085,-32,128,182,0
500096,-41,128,183,0
500107,-52,132,184,0
500118,-56,134,191,0
500129,-24,153,195,0
500140,-18,152,243,0
500151,-19,164,246,0
500162,-40,174,233,1
500173,-55,180,253,0
500184,-46,202,251,0
500195,-39,198,244,0
500206,-24,182,260,0
500217,-13,197,266,0
500228,3,212,264,0
500239,27,214,260,0
500250,45,220,261,0
500261,66,183,220,0
500272,81,158,202,0
500283,100,100,140,0
500294,85,98,134,0
500305,79,76,107,0
500316,66,86,124,0
500327,56,74,120,0
500338,32,121,165,0
500349,25,127,165,0
500360,17,136,182,0
500371,8,161,212,0
500382,-5,171,224,0
500393,-9,164,221,0
500404,-4,150,210,0
500415,-4,139,196,0
500426,-10,131,188,0
500437,-12,127,185,0
500448,-1,114,181,0
500459,5,110,181,0
500470,14,105,179,0
500481,20,107,179,0
500492,22,106,177,0
500503,20,105,177,0
500514,11,106,180,0
500525,5,106,182,0
500536,1,106,185,0
500547,-6,108,189,0
500558,-9,107,191,0
500569,-15,107,191,0
500580,-18,103,190,0
500591,-23,98,186,0
500602,-26,94,179,0
500613,-26,82,167,0
500624,-25,79,166,0
500635,-26,83,170,0
500646,-25,87,172,0
500657,-22,95,176,0
500668,-31,101,181,0
500679,-36,109,187,0
500690,-42,118,195,0
500701,-43,126,201,0
500712,-42,135,203,0
500723,-46,142,211,0
500734,-51,149,224,0
500745,-56,153,230,0
500756,-57,154,233,0
500767,-63,141,249,0
500778,-65,133,264,0
500789,-64,133,274,0
500800,-38,202,316,0
500811,0,240,302,0
500822,-6,196,332,0
500833,26,188,304,1
500844,37,151,267,0
500855,57,183,274,0
500866,66,178,278,0
500877,53,131,252,0
500888,33,95,249,0
500899,29,65,198,0
500910,64,65,168,0
500921,40,57,129,0
500932,42,102,141,0
500943,38,128,134,0
500954,40,130,137,0
500965,39,133,152,0
500976,46,140,164,0
500987,53,142,179,1
500998,59,138,191,0
501009,64,130,197,0
501020,69,117,194,0
501031,64,114,195,0
501042,58,107,187,0
501053,49,105,179,0
501064,37,110,170,0
501075,22,125,167,0
501086,11,135,169,0
501097,9,139,175,0
501108,14,139,177,0
501119,14,134,181,0
501130,6,133,184,0
501141,3,131,187,0
501152,6,131,185,0
501163,4,125,184,0
501174,1,120,186,0
501185,-2,126,190,0
501196,-10,125,192,0
501207,-22,126,190,0
501218,-33,124,189,0
501229,-36,123,187,0
501240,-40,122,183,0
501251,-42,122,180,0
501262,-44,127,174,0
501273,-39,129,174,0
501284,-34,129,176,0
501295,-24,129,179,0
501306,-19,127,183,0
501317,-13,124,186,0
501328,-9,122,189,0
501339,-5,120,190,0
501350,-4,118,192,0
501361,-5,114,189,0
501372,-8,114,184,0
501383,-19,111,179,0
501394,-28,112,178,0
501405,-37,117,179,0
501416,-48,127,184,1
501427,-62,140,196,0
501438,-52,148,204,0
501449,-14,172,216,0
501460,-16,155,283,0
501471,-18,162,278,0
501482,-49,162,252,0
501493,-64,170,266,0
501504,-58,195,263,0
501515,-53,198,266,0
501526,-23,172,265,0
501537,6,164,256,0
501548,22,149,232,0
501559,27,180,248,0
501570,42,192,240,0
501581,44,204,233,0
501592,85,110,135,0
501603,99,105,118,0
501614,86,99,100,0
501625,72,107,113,0
501636,71,96,118,0
501647,63,87,129,0
501658,39,114,163,0
501669,39,128,181,0
501680,33,144,197,0
501691,16,166,222,0
501702,-2,182,241,0
501713,-7,177,235,0
501724,10,145,213,0
501735,15,125,200,0
501746,3,137,213,0
501757,-3,116,203,0
501768,-11,119,202,0
501779,-12,116,189,0
501790,-15,120,184,0
501801,-9,107,181,0
501812,-2,103,167,0
501823,-3,106,167,0
501834,-3,105,166,0
501845,-1,103,165,0
501856,3,102,170,0
501867,3,106,173,0
501878,7,104,174,0
501889,7,104,175,0
501900,3,103,177,0
501911,2,105,176,0
501922,-1,106,178,0
501933,-2,107,176,0
501944,-5,107,177,0
501955,-10,112,183,0
501966,-17,113,189,0
501977,-24,113,190,0
501988,-27,113,188,0
501999,-39,118,190,0
502010,-40,128,192,0
502021,-53,140,198,0
502032,-59,131,211,0
502043,-54,126,220,0
502054,-47,129,225,0
502065,-43,132,232,0
502076,-29,130,238,0
502087,-32,129,234,0
502098,-40,125,241,1
502109,-50,130,254,0
502120,-29,212,300,0
502131,-18,236,309,0
502142,2,168,323,0
502153,30,171,303,0
502164,31,157,271,0
502175,45,179,286,0
502186,52,165,275,0
502197,42,123,239,0
502208,38,91,216,0
502219,34,83,199,0
502230,25,77,178,0
502241,22,87,155,0
502252,27,99,144,0
502263,32,113,136,0
502274,28,124,132,0
502285,29,121,132,0
502296,29,150,161,0
502307,38,158,179,0
502318,42,157,192,0
502329,51,139,195,0
502341,60,127,198,0
502352,55,125,201,0
502363,56,116,194,0
502374,48,111,185,0
502385,33,113,177,0
502396,23,127,182,0
502407,25,131,182,0
502418,21,130,180,0
502429,18,133,184,0
502440,16,130,182,0
502451,13,128,180,0
502462,9,126,178,0
502473,4,127,178,0
502484,1,129,180,0
502495,-3,129,182,0
502506,-10,133,182,0
502517,-16,134,188,0
502528,-21,134,192,0
502539,-27,133,189,0
502550,-32,134,186,0
502561,-32,128,189,0
502572,-29,130,189,0
502583,-26,130,189,0
502594,-23,127,191,0
502605,-23,124,188,0
502616,-23,122,188,0
502627,-26,123,184,0
502638,-30,122,182,0
502649,-34,118,183,0
502660,-36,114,182,0
502671,-39,112,182,0
502682,-40,111,185,0
502694,-38,112,192,0
502705,-29,120,189,0
502716,-28,122,186,0
502727,-28,124,186,0
502738,-30,122,188,1
502749,-33,119,189,0
502760,-33,111,188,0
502771,-26,105,199,0
502782,-17,107,216,0
502793,-19,114,233,0
502804,-31,133,230,0
502815,-47,158,233,0
502826,-50,181,239,0
502837,-44,191,255,0
502848,-30,213,275,0
502859,-28,215,286,0
502870,-29,186,259,0
502881,-20,185,241,0
502892,-27,212,251,0
502903,-2,181,219,0
502914,8,197,225,0
502925,47,124,164,0
502936,59,113,150,0
502947,57,117,158,0
502958,61,85,123,0
502969,62,61,106,0
502980,41,73,124,0
502991,21,89,151,0
503002,10,105,174,0
503013,9,117,174,0
503024,6,113,173,0
503035,-15,138,212,0
503046,-13,141,219,0
503057,-15,143,230,0
503068,-20,141,227,0
503079,-18,140,230,0
503090,-6,133,228,0
503101,3,125,217,0
503112,10,114,203,0
503123,10,119,203,0
503134,12,117,197,0
503145,18,99,185,0
503156,12,104,192,0
503167,5,100,192,0
503178,-1,94,192,0
503190,-8,89,178,0
503200,-9,93,174,0
503211,-11,98,176,0
503222,-15,101,178,0
503233,-13,98,176,0
503244,-12,99,173,0
503255,-11,97,169,0
503266,-15,100,172,0
503277,-16,101,175,0
503288,-15,104,183,0
503299,-17,104,181,0
503310,-21,109,192,0
503321,-23,111,201,0
503332,-23,111,202,0
503343,-28,120,205,0
503354,-36,122,206,0
503365,-54,123,206,0
503376,-53,126,212,0
503387,-52,117,206,0
503398,-56,126,213,0
503409,-48,120,213,0
503420,-45,122,216,0
503431,-40,124,223,0
503442,-30,122,227,0
503453,-22,113,223,0
503464,-20,103,219,0
503475,-15,98,223,1
503486,-8,116,234,0
503497,23,251,252,0
503508,-19,205,225,0
503519,12,196,262,0
503530,37,183,246,0
503541,39,205,258,0
503552,27,241,262,0
503563,2,200,241,0
503574,16,173,238,0
503585,17,128,210,0
503596,4,95,190,0
503607,4,96,158,0
503618,4,104,141,1
503629,7,125,144,0
503640,9,144,140,0
503651,11,157,129,0
503662,15,175,118,0
503674,20,172,102,0
503684,25,170,110,0
503695,50,174,153,0
503706,67,181,173,0
503717,70,192,168,0
503728,72,187,158,0
503739,73,170,158,0
503750,68,165,155,0
503761,61,162,152,0
503772,47,157,155,0
503783,34,160,164,0
503794,18,175,168,0
503805,4,187,169,0
503816,-9,189,173,0
503827,-23,184,171,0
503838,-29,182,162,0
503849,-30,175,156,0
503860,-25,171,148,0
503871,-17,174,142,0
503882,-6,170,151,0
503893,4,167,166,0
503904,10,169,164,0
503915,9,179,161,0
503926,14,183,155,0
503937,10,185,159,0
503948,7,185,162,0
503959,3,185,165,0
503971,-1,185,166,0
503981,-8,185,167,0
503992,-13,185,161,0
504003,-20,187,155,0
504014,-25,184,147,0
504025,-23,182,146,0
504036,-18,184,144,0
504047,-16,184,148,0
504058,-12,186,153,0
504069,-3,182,159,0
504080,7,184,170,0
504091,15,181,175,0
504102,16,181,174,1
504113,12,177,171,0
504124,5,173,168,0
504135,0,166,164,0
504146,-5,168,159,0
504157,-12,174,154,0
504168,-13,181,154,0
504179,0,217,154,0
504190,4,237,169,0
504201,11,233,200,0
504212,9,230,220,0
504223,1,225,215,0
504234,-3,216,208,0
504245,-2,207,201,0
504256,1,204,196,0
504267,6,200,197,0
504278,11,195,192,0
504289,14,187,183,0
504300,23,176,173,0
504311,37,164,166,0
504322,53,136,150,0
504333,61,114,130,0
504344,44,103,127,0
504355,25,117,141,0
504366,9,144,149,0
504377,3,175,164,0
504388,7,190,187,0
504399,8,193,205,0
504410,6,202,231,0
504421,4,196,241,0
504432,4,186,227,0
504443,12,163,208,0
504454,17,149,199,0
504465,19,140,192,0
504476,21,130,183,0
504487,18,130,181,0
504498,17,130,178,0
504509,9,137,178,0
504520,6,139,175,0
504531,-2,143,174,0
504542,-9,143,173,0
504553,-11,146,177,0
504564,-14,147,183,0
504575,-14,148,187,0
504586,-12,146,190,0
504597,-8,141,185,0
504608,-6,143,183,0
504619,-2,134,175,0
504630,-3,135,178,0
504641,-1,126,175,0
504652,1,126,169,0
504663,2,123,161,0
504674,5,111,181,0
504685,6,119,189,0
504696,3,121,190,0
504707,-1,129,186,0
504718,-3,141,177,0
504729,-15,148,186,0
504740,-27,137,195,0
504751,-25,139,189,0
504762,-34,138,187,0
504773,-43,140,188,0
504784,-45,134,182,0
504795,-42,141,184,0
504806,-48,141,187,0
504817,-54,144,187,0
504828,-50,165,189,0
504839,-24,232,220,0
504850,-7,228,224,0
504861,36,269,261,0
504872,32,255,283,0
504883,39,224,266,0
504894,50,159,249,0
504905,48,127,223,1
504916,49,92,188,0
504927,41,80,156,0
504938,33,89,145,0
504949,23,103,151,0
504960,15,117,140,0
504971,18,132,132,0
504982,22,145,133,0
504993,30,156,134,0
505004,50,180,151,0
505015,58,180,160,0
505026,65,174,172,0
505037,65,166,173,1
505048,62,159,176,0
505059,48,159,177,0
505070,34,161,166,0
505081,24,160,158,0
505092,17,163,156,0
505103,17,167,167,0
505114,10,167,176,0
505125,7,172,170,0
505136,-1,177,171,0
505147,-1,177,174,0
505158,1,173,175,0
505169,-3,173,168,0
505180,-4,174,163,0
505191,-5,172,159,0
505202,-2,173,151,0
505214,0,174,148,0
505225,1,176,146,0
505236,0,181,146,0
505247,0,184,148,0
505258,-1,189,150,0
505269,-5,191,151,0
505280,-2,189,150,0
505291,0,190,149,0
505302,1,190,149,0
505313,7,190,157,0
505324,10,192,159,0
505335,10,193,162,0
505346,13,190,163,0
505357,16,187,166,0
505368,16,181,168,0
505379,18,174,172,0
505390,17,170,170,0
505401,13,168,170,0
505412,8,171,174,0
505423,8,169,173,0
505434,5,172,169,0
505445,-1,179,168,0
505456,-9,185,163,0
505467,-16,190,163,0
505478,-19,187,163,0
505489,-18,185,164,0
505500,-19,187,163,0
505511,-16,202,154,0
505522,-17,227,159,0
505533,-8,228,188,0
505544,-2,220,210,1
505555,-5,215,209,0
505566,-10,215,200,0
505577,-13,210,201,0
505588,-3,196,198,0
505599,7,191,193,0
505610,15,192,190,0
505621,27,187,185,0
505632,45,173,180,0
505643,73,154,173,0
505654,83,139,164,0
505666,89,123,155,0
505676,90,109,150,0
505687,71,101,151,0
505698,52,105,159,0
505709,34,120,169,0
505720,25,142,175,0
505731,17,163,177,0
505742,2,178,202,0
505753,-7,180,218,0
505764,-4,183,220,0
505775,9,178,207,0
505786,23,178,197,0
505797,30,169,193,0
505808,29,160,187,0
505819,28,147,184,0
505830,23,140,181,0
505841,17,143,179,0
505852,13,144,179,0
505863,9,144,174,0
505874,9,143,172,0
505885,10,149,174,0
505896,8,149,172,0
505907,0,150,194,0
505918,2,138,195,0
505929,2,149,182,0
505940,-2,137,183,0
505951,-1,138,174,0
505962,-4,140,176,0
505973,-8,143,179,0
505984,-8,145,179,0
505995,-5,148,195,0
506006,6,147,184,0
506017,8,138,177,0
506028,9,132,174,0
506039,2,134,171,0
506050,-8,152,188,0
506062,-12,153,188,0
506073,-20,143,178,0
506084,-20,135,185,0
506095,-17,145,188,0
506106,-17,144,178,0
506117,-10,167,176,0
506128,-19,175,163,0
506139,3,219,168,1
506151,9,258,186,0
506162,13,250,202,0
506173,25,226,204,0
506184,43,200,182,0
506195,50,176,174,0
506206,42,154,177,0
506217,41,126,168,0
506228,39,119,148,0
506239,33,126,141,0
506250,28,132,149,0
506261,26,139,142,0
506272,28,164,137,0
506283,34,171,143,0
506294,40,182,156,0
506305,46,190,174,0
506316,55,192,173,0
506327,61,189,173,0
506338,61,190,176,0
506349,55,185,162,0
506360,45,185,149,0
506371,33,181,146,0
506382,18,175,150,0
506393,5,182,155,0
506404,-4,187,158,0
506415,-12,197,155,0
506426,-19,200,147,0
506437,-17,197,158,0
506448,-14,199,160,0
506459,-10,201,154,0
506470,-2,195,155,0
506481,3,198,149,0
506492,11,200,142,0
506503,16,196,147,0
506514,15,197,146,0
506525,19,198,142,0
506536,17,199,144,0
506547,13,200,147,0
506558,10,197,145,0
506569,2,202,150,0
506580,-2,201,148,0
506591,-3,198,145,0
506602,-4,193,134,0
506613,-3,190,133,0
506624,2,184,134,0
506635,11,179,142,0
506646,16,183,148,0
506657,15,189,153,0
506668,15,185,153,0
506679,16,185,156,0
506690,18,185,158,0
506701,15,186,161,1
506712,14,187,165,0
506723,14,187,171,0
506734,8,191,175,0
506745,-1,199,173,0
506756,-2,206,161,0
506767,6,243,168,0
506778,7,252,190,0
506789,0,248,208,0
506800,-9,228,202,0
506811,-14,209,196,0
506822,-16,196,192,0
506833,-9,190,192,0
506844,3,182,188,0
506855,7,184,200,0
506866,17,174,197,0
506877,22,167,188,0
506888,26,166,179,0
506899,32,158,161,0
506910,42,148,139,0
506921,54,139,125,0
506932,67,114,112,0
506943,68,109,116,0
506954,64,119,130,0
506965,57,143,149,0
506976,42,173,164,0
506987,30,178,177,0
506998,23,184,194,0
507009,23,178,195,0
507021,16,191,206,0
507031,14,189,200,0
507042,16,179,200,0
507053,22,174,196,0
507064,26,172,194,0
507075,29,167,191,0
507086,28,161,187,0
507097,26,161,187,0
507108,24,161,181,0
507119,24,156,179,0
507130,25,157,181,0
507141,28,155,178,0
507152,29,154,172,0
507163,32,146,167,0
507174,33,143,169,0
507185,33,141,171,0
507196,33,140,175,0
507207,33,136,178,0
507218,35,134,178,0
507229,34,130,175,0
507240,34,126,170,0
507251,30,121,165,0
507262,26,119,166,0
507273,23,119,165,0
507284,16,122,170,0
507295,12,122,174,0
507306,11,129,180,0
507317,12,127,178,0
507328,13,127,178,0
507339,14,126,184,1
507350,15,127,189,0
507361,18,130,193,0
507372,24,136,192,0
507383,28,143,195,0
507394,28,149,197,0
507405,24,152,195,0
507416,16,154,199,0
507427,-9,144,191,0
507438,-23,141,191,0
507449,-32,139,191,0
507460,-40,139,186,0
507471,-41,151,190,0
507482,-16,199,213,0
507493,28,256,259,0
507504,61,247,299,0
507515,78,227,298,0
507526,69,191,256,0
507537,75,158,214,0
507548,99,164,205,0
507559,104,146,210,0
507570,80,109,238,0
507581,54,105,244,0
507592,26,107,166,0
507603,7,119,151,0
507614,3,132,136,0
507625,10,134,132,0
507636,28,145,137,0
507647,43,159,152,0
507658,62,158,167,0
507669,79,154,183,0
507680,93,150,189,0
507691,94,144,186,0
507702,95,146,182,0
507713,92,145,178,0
507724,74,149,179,0
507735,38,74,241,0
507746,86,156,157,0
507757,36,147,169,0
507768,27,159,174,0
507779,23,164,180,0
507790,25,166,180,0
507801,27,158,181,0
507812,34,148,176,0
507823,29,148,172,0
507834,28,149,173,0
507845,26,151,174,0
507856,26,151,183,0
507867,26,153,181,0
507878,22,154,177,0
507889,17,154,177,0
507900,12,149,170,0
507911,6,158,180,0
507922,1,157,181,0
507933,-2,159,179,0
507944,-6,158,182,0
507955,-5,157,181,0
507966,-5,149,179,0
507977,-2,144,178,0
507988,-5,139,181,0
507999,-8,135,180,0
508010,-10,131,183,0
508021,-12,125,188,0
508032,-13,123,192,0
508043,-18,126,192,0
508054,-21,128,194,0
508065,-23,124,197,0
508076,-23,121,196,0
508087,-38,122,188,0
508098,-42,122,187,0
508109,-41,127,190,0
508120,-35,129,189,0
508131,-24,134,188,1
508142,-5,134,198,0
508153,13,130,213,0
508164,45,149,205,0
508175,42,148,220,0
508186,38,152,230,0
508197,22,177,227,0
508208,-1,208,223,0
508219,-3,234,228,0
508230,1,255,233,0
508241,30,176,170,0
508252,56,169,148,0
508263,37,190,179,0
508274,40,127,123,0
508285,32,131,144,0
508296,10,151,197,0
508307,14,89,167,0
508318,6,96,197,0
508329,10,114,209,0
508340,6,129,188,0
508351,-19,136,190,0
508362,-27,155,212,0
508373,-16,143,202,0
508384,-17,153,216,0
508395,-4,144,220,0
508406,19,117,194,0
508418,12,123,191,0
508429,17,103,174,0
508440,3,119,187,0
508451,1,112,179,0
508462,-5,114,181,0
508473,-7,111,178,0
508484,-8,110,178,0
508495,-8,105,176,0
508506,-6,103,174,0
508517,-5,101,174,0
508528,-5,103,180,0
508539,-4,106,186,0
508550,-8,109,191,0
508561,-17,108,195,0
508572,-20,106,196,0
508583,-24,103,196,0
508594,-27,104,195,0
508605,-27,106,204,0
508616,-32,110,212,0
508627,-29,108,210,0
508638,-29,110,209,0
508649,-25,108,205,0
508660,-25,103,200,0
508671,-26,99,199,0
508682,-26,93,197,0
508693,-24,89,199,0
508704,-24,86,201,0
508715,-24,87,206,0
508726,-21,81,212,0
508737,-24,82,214,0
508748,-22,105,235,0
508759,-1,143,263,0
508770,18,159,281,0
508781,21,152,293,0
508793,27,142,272,1
508803,35,146,268,0
508814,42,149,271,0
508825,49,136,268,0
508836,49,115,246,0
508847,37,110,225,0
508858,28,109,208,0
508869,23,106,197,0
508880,20,111,188,0
508891,20,130,173,0
508902,25,135,174,0
508914,36,180,117,0
508924,60,164,173,0
508935,39,134,138,0
508946,55,158,159,0
508957,58,160,172,0
508968,65,169,182,1
508979,56,174,189,0
508990,54,166,190,0
509001,54,161,190,0
509012,50,160,189,0
509023,47,161,187,0
509034,38,161,181,0
509045,31,159,173,0
509056,21,158,170,0
509067,16,157,171,0
509078,13,157,174,0
509089,11,157,174,0
509100,9,156,176,0
509111,4,157,180,0
509122,2,153,176,0
509133,2,152,178,0
509144,1,153,180,0
509155,0,150,184,0
509166,-1,152,188,0
509177,-5,156,190,0
509188,-7,153,192,0
509199,-8,157,188,0
509210,-13,157,182,0
509221,-32,151,180,0
509232,-39,149,178,0
509243,-45,144,181,0
509254,-50,143,180,0
509266,-53,143,178,0
509277,-53,141,179,0
509288,-52,138,181,0
509299,-52,139,186,0
509310,-46,132,187,0
509321,-44,130,187,0
509332,-47,127,186,0
509343,-45,127,185,0
509354,-44,124,182,0
509365,-41,122,180,0
509376,-42,128,183,0
509387,-44,129,189,0
509398,-44,125,197,0
509409,-44,117,198,0
509420,-45,109,197,0
509432,-48,104,196,0
509443,-46,106,197,0
509454,-48,109,198,0
509465,-45,109,199,0
509476,-36,118,199,0
509487,-9,127,199,0
509498,10,121,245,0
509509,40,111,281,0
509520,13,146,197,0
509531,18,152,201,1
509542,34,156,224,0
509553,43,179,225,0
509564,30,229,237,0
509575,41,238,251,0
509586,58,235,246,0
509597,51,180,191,0
509608,27,243,237,0
509619,77,105,118,0
509630,26,146,152,0
509641,0,159,179,0
509652,0,108,156,0
509663,-29,139,214,0
509674,-28,128,198,0
509685,-48,132,199,0
509696,-52,154,222,0
509707,-29,158,230,0
509718,-9,136,212,0
509729,3,133,210,0
509740,16,121,199,0
509751,18,114,193,0
509762,20,107,185,0
509773,16,100,178,0
509784,11,101,178,0
509795,5,97,172,0
509806,0,98,174,0
509817,-8,103,176,0
509828,-10,104,178,0
509839,-8,104,181,0
509850,-3,107,184,0
509861,-5,108,190,0
509872,-7,110,192,0
509883,-13,107,193,0
509894,-17,106,194,0
509905,-25,104,191,0
509916,-30,102,191,0
509927,-33,102,192,0
509938,-34,103,190,0
509949,-33,102,189,0
509960,-28,99,187,0
509971,-25,97,187,0
509982,-23,96,190,0
509993,-23,99,191,0
510004,-27,100,191,0
510015,-29,97,193,0
510026,-30,97,199,0
510037,-27,97,203,0
510048,-28,105,212,0
510059,-25,106,220,0
510070,-23,106,223,0
510081,-22,108,225,0
510092,-20,107,224,0
510103,-20,106,217,0
510114,-25,105,221,0
510125,-35,97,216,0
510136,-46,96,213,0
510147,-57,91,209,0
510158,-62,134,237,0
510169,-15,217,298,0
510180,24,163,291,0
510191,39,145,269,1
510202,73,178,274,0
510213,84,183,292,0
510224,73,161,271,0
510235,53,142,252,0
510246,36,131,227,0
510257,16,113,202,0
510268,-5,121,143,0
510279,26,118,181,0
510290,10,104,152,0
510301,19,116,142,0
510312,19,123,146,0
510324,45,143,155,0
510335,52,145,160,0
510346,59,149,168,0
510357,69,154,175,0
510368,71,155,179,0
510379,69,159,183,0
510390,64,158,186,0
510401,56,156,186,0
510412,48,148,185,0
510423,46,146,185,0
510434,40,145,184,0
510445,37,147,183,0
510456,33,146,175,0
510467,31,151,176,0
510478,25,150,174,0
510489,16,151,177,0
510500,6,152,180,0
510511,2,148,178,0
510522,1,146,177,0
510533,2,142,176,0
510544,1,139,181,0
510555,1,139,186,0
510566,2,143,186,0
510577,1,147,187,0
510588,-1,144,188,0
510599,-1,146,189,0
510610,-8,148,189,0
510621,-10,142,191,0
510632,-18,142,190,0
510643,-29,139,189,0
510654,-37,134,186,0
510665,-40,135,185,0
510676,-42,132,185,0
510687,-41,137,183,0
510698,-40,134,182,0
510709,-36,132,179,0
510720,-26,127,179,0
510731,-18,127,183,0
510742,-15,130,190,0
510753,-12,131,192,0
510764,-6,133,196,0
510775,-7,130,194,0
510786,-8,129,193,0
510797,-11,128,191,0
510808,-17,129,187,0
510819,-28,127,186,0
510830,-30,127,185,0
510841,-30,124,187,0
510852,-19,123,191,0
510863,15,111,209,0
510874,32,86,246,0
510885,40,119,214,0
510896,5,143,193,1
510907,-20,160,205,0
510918,-12,185,211,0
510929,-8,187,229,0
510940,11,185,248,0
510952,23,196,251,0
510962,15,195,236,0
510973,9,215,230,0
510984,17,225,211,0
510995,14,180,176,0
511006,16,151,154,0
511017,9,134,144,0
511028,3,89,121,0
511039,-15,101,159,0
511050,-2,89,185,0
511061,-13,77,208,0
511072,-9,108,245,0
511083,-7,121,232,0
511094,-10,129,209,0
511105,-30,141,222,0
511116,-17,139,225,0
511127,-8,133,218,0
511138,5,125,218,0
511149,29,112,207,0
511160,32,105,198,0
511171,28,103,190,0
511182,20,102,178,0
511193,17,97,170,0
511204,9,98,170,0
511215,6,99,174,0
511226,4,103,174,0
511237,-3,106,174,0
511248,-8,108,177,0
511259,-10,108,186,0
511270,-15,110,191,0
511281,-18,110,195,0
511292,-21,109,195,0
511303,-20,106,193,0
511314,-16,106,191,0
511325,-16,106,191,0
511336,-12,102,193,0
511347,-9,98,196,0
511358,-4,96,199,0
511369,-11,97,195,0
511380,-13,101,197,0
511391,-13,103,200,0
511402,-19,101,193,0
511413,-21,107,199,0
511424,-26,109,200,0
511435,-28,108,203,0
511446,-32,102,201,0
511457,-39,104,201,0
511468,-43,109,202,0
511479,-44,109,202,0
511490,-46,110,204,0
511501,-51,109,206,0
511512,-54,108,209,0
511523,-64,109,216,0
511534,-63,109,223,0
511545,-48,124,246,0
511556,-6,148,276,0
511567,51,147,274,1
511578,71,164,268,0
511589,76,157,267,0
511600,90,159,277,0
511611,83,167,263,0
511622,69,146,239,0
511633,51,133,231,0
511644,29,127,201,0
511655,24,120,185,0
511666,24,120,171,0
511677,26,126,159,0
511688,31,131,147,0
511699,34,139,134,0
511710,51,150,139,0
511721,60,159,144,0
511732,63,162,151,0
511743,62,171,163,0
511754,66,177,168,0
511765,74,176,177,0
511776,72,179,188,0
511787,74,174,190,0
511798,69,175,191,0
511809,60,153,222,0
511820,57,183,182,0
511831,37,167,160,0
511842,27,169,164,0
511853,19,179,163,0
511864,16,175,165,0
511875,11,171,163,0
511886,7,170,164,0
511897,5,168,163,0
511908,4,165,171,0
511919,3,163,172,0
511930,6,167,174,0
511941,7,166,171,0
511952,3,169,176,0
511963,0,170,178,0
511974,0,170,167,0
511986,-10,172,168,0
511997,-18,177,169,0
512008,-24,172,171,0
512019,-28,165,171,0
512030,-30,161,174,0
512041,-36,157,174,0
512052,-33,152,175,0
512063,-28,147,174,0
512074,-26,144,181,0
512085,-29,149,185,0
512096,-37,155,187,0
512107,-41,156,186,0
512118,-45,153,186,0
512129,-54,147,174,0
512140,-55,141,173,0
512151,-59,131,172,0
512162,-61,126,167,0
512173,-62,123,161,0
512184,-63,124,157,0
512195,-65,125,165,0
512206,-62,125,176,0
512217,-61,126,189,0
512228,-59,122,200,0
512239,-57,116,206,0
512250,-54,113,211,0
512261,-56,107,216,0
512272,-56,100,213,1
512283,-54,91,212,0
512294,-1,134,213,0
512305,16,99,287,0
512316,43,106,274,0
512327,17,142,221,0
512338,3,152,228,0
512349,6,164,250,0
512360,-4,235,272,0
512371,27,239,245,0
512382,40,242,238,0
512393,81,157,177,0
512404,78,186,186,0
512416,66,194,181,0
512426,111,79,91,0
512437,39,164,154,0
512448,16,138,148,0
512459,-43,122,158,0
512470,-66,134,177,0
512481,-78,129,176,0
512492,-88,132,178,0
512503,-81,136,197,0
512514,-78,149,210,0
512525,-51,148,212,0
512536,-41,136,201,0
512547,-19,126,198,0
512558,-2,122,196,0
512569,-3,163,237,0
512580,12,134,214,0
512591,26,117,197,0
512602,30,107,188,0
512613,21,107,182,0
512624,10,101,179,0
512635,5,103,181,0
512646,-1,105,182,0
512657,-8,107,186,0
512668,-14,104,185,0
512679,-18,102,188,0
512690,-23,99,187,0
512701,-27,99,188,0
512712,-31,97,187,0
512723,-32,94,185,0
512734,-32,93,184,0
512745,-37,96,187,0
512756,-33,89,181,0
512767,-30,88,183,0
512778,-28,88,185,0
512789,-33,94,192,0
512800,-41,99,200,0
512811,-50,107,210,0
512822,-55,113,216,0
512833,-60,117,217,0
512844,-63,119,214,0
512855,-61,120,214,0
512866,-54,121,211,0
512877,-46,117,206,0
512888,-45,116,206,0
512899,-42,114,205,0
512910,-48,115,206,0
512921,-53,111,212,0
512932,-59,101,216,0
512943,-61,109,234,1
512954,-18,219,301,0
512965,-19,178,303,0
512976,4,153,284,0
512987,22,137,263,0
512998,53,170,285,0
513009,67,174,303,0
513020,65,131,257,0
513031,53,101,229,0
513042,39,79,199,0
513053,29,91,175,0
513064,24,94,166,0
513075,25,98,161,0
513086,28,105,158,0
513097,25,117,150,0
513108,23,125,149,0
513119,26,140,167,0
513130,25,148,186,0
513141,32,147,194,0
513152,40,137,194,0
513163,39,136,196,0
513174,33,134,199,0
513185,28,126,193,0
513196,28,123,192,0
513207,20,130,189,0
513218,9,136,183,0
513229,4,140,176,0
513240,2,139,176,0
513251,0,144,178,0
513262,2,146,177,0
513273,5,141,174,0
513284,-7,133,172,0
513295,-9,135,173,0
513306,-10,133,180,0
513317,-12,132,182,0
513328,-12,132,180,0
513339,-13,133,179,0
513350,-18,139,182,0
513361,-22,139,184,0
513372,-25,142,189,0
513383,-28,140,188,0
513394,-29,140,187,0
513405,-31,136,186,0
513416,-32,135,187,0
513427,-33,132,187,0
513438,-34,131,190,0
513449,-27,131,187,0
513460,-22,128,184,0
513471,-17,130,184,0
513482,-16,132,182,0
513493,-15,132,182,0
513504,-13,132,185,0
513515,-11,132,186,0
513526,-10,130,188,0
513537,-8,130,187,0
513548,-9,129,186,0
513559,-11,130,187,0
513570,-14,130,186,0
513581,-17,132,186,0
513592,-21,136,188,0
513603,-22,137,186,0
513614,-32,135,186,0
513625,-39,139,187,0
513636,-46,140,190,0
513647,-53,142,192,0
513658,-61,141,192,0
513669,-67,140,194,1
513680,-70,144,193,0
513691,-31,152,202,0
513702,-34,125,268,0
513713,-14,143,257,0
513724,-36,162,210,0
513735,-38,160,225,0
513746,-20,177,254,0
513757,2,175,259,0
513768,15,178,251,0
513779,30,193,250,0
513790,45,201,244,0
513801,72,158,206,0
513812,80,174,210,0
513823,98,147,188,0
513834,99,89,133,0
513845,78,118,159,0
513856,81,77,124,0
513867,62,74,117,0
513878,43,95,139,0
513889,20,122,175,0
513900,16,113,177,0
513911,9,127,194,0
513923,4,136,211,0
513934,-5,148,233,0
513945,-4,145,229,0
513956,-1,141,216,0
513967,-2,128,202,0
513978,-1,124,195,0
513989,1,118,195,0
514001,2,117,199,0
514012,4,115,195,0
514023,6,109,186,0
514034,6,112,183,0
514045,10,104,177,0
514056,12,103,172,0
514067,10,100,170,0
514078,10,99,175,0
514089,9,105,181,0
514100,9,104,183,0
514112,6,107,184,0
514123,4,109,184,0
514134,2,110,183,0
514145,1,109,179,0
514156,0,108,173,0
514167,-5,111,174,0
514178,-9,109,171,0
514189,-10,111,172,0
514200,-9,111,173,0
514211,-7,113,175,0
514222,-10,119,181,0
514233,-12,121,187,0
514244,-8,127,189,0
514255,-10,130,192,0
514266,-13,132,197,0
514277,-19,138,206,0
514288,-20,139,210,0
514299,-19,141,212,0
514310,-22,144,212,0
514321,-27,148,216,1
514332,-30,147,219,0
514343,-40,148,221,0
514354,-54,141,224,0
514365,-66,130,226,0
514376,-62,143,226,0
514387,-21,229,281,0
514398,22,207,315,0
514409,39,171,274,0
514420,55,145,249,0
514431,80,141,251,0
514442,90,127,233,0
514453,72,105,225,0
514464,66,105,218,0
514475,63,104,197,0
514486,40,106,189,0
514497,30,82,180,0
514508,63,135,156,0
514519,45,150,149,0
514530,52,144,158,0
514541,47,150,167,0
514552,48,152,174,0
514563,63,129,176,0
514574,76,126,178,0
514585,78,130,180,0
514596,70,134,179,0
514607,61,140,175,0
514618,55,140,176,0
514629,49,142,179,0
514640,41,145,179,0
514651,40,150,178,0
514662,35,150,177,0
514673,32,143,177,0
514685,34,140,178,0
514696,22,144,172,0
514707,18,142,171,0
514718,3,139,175,0
514729,0,141,171,0
514740,0,145,174,0
514751,-3,142,181,0
514762,-6,146,187,0
514773,-2,143,187,0
514784,-6,148,187,0
514795,-6,146,191,0
514806,-4,143,191,0
514817,-5,144,189,0
514828,-6,141,190,0
514839,-7,139,185,0
514850,-11,138,185,0
514861,-15,136,183,0
514872,-20,135,178,0
514883,-25,127,182,0
514894,-27,126,185,0
514905,-30,128,188,0
514916,-30,128,186,0
514927,-29,129,190,0
514938,-24,134,192,0
514949,-20,137,198,0
514960,-19,134,199,0
514971,-19,130,194,0
514982,-22,126,191,0
514993,-21,122,189,0
515004,-23,122,189,0
515015,-26,125,185,0
515026,-33,123,187,1
515037,-35,123,190,0
515048,-6,128,210,0
515059,4,116,251,0
515070,16,123,249,0
515081,7,144,219,0
515092,-7,144,218,0
515103,-10,151,219,0
515114,-14,159,216,0
515125,-17,160,231,0
515136,-12,165,244,0
515147,-16,180,243,0
515158,-28,230,264,0
515169,-11,204,245,0
515180,9,169,207,0
515191,26,175,199,0
515202,52,146,167,0
515213,59,144,165,0
515224,63,111,141,0
515235,66,76,115,0
515246,49,98,142,0
515257,44,77,134,0
515268,29,94,159,0
515279,19,103,183,0
515290,12,115,208,0
515301,11,120,229,0
515312,4,136,248,0
515323,-11,155,267,0
515334,-23,149,260,0
515345,-22,144,256,0
515356,-13,128,238,0
515367,-3,120,220,0
515378,3,107,193,0
515389,7,101,191,0
515400,10,105,186,0
515411,8,103,187,0
515422,4,101,187,0
515433,-2,101,187,0
515444,-9,100,184,0
515455,-14,99,183,0
515466,-18,102,185,0
515477,-21,104,187,0
515488,-21,101,186,0
515499,-20,102,186,0
515510,-19,98,186,0
515521,-17,95,182,0
515532,-14,90,182,0
515543,-13,95,181,0
515554,-10,98,184,0
515565,-7,103,189,0
515576,-3,109,192,0
515587,-6,115,196,0
515598,-10,119,201,0
515609,-13,121,202,0
515620,-19,118,205,0
515631,-29,118,206,0
515642,-41,118,206,0
515653,-48,115,208,0
515664,-58,117,210,0
515675,-63,102,236,0
515686,-52,111,223,0
515697,-39,118,210,0
515708,-34,134,231,0
515719,-24,122,225,0
515730,-17,119,213,0
515741,-19,115,215,0
515752,-30,113,221,0
515763,-37,106,225,0
515774,-42,104,231,0
515785,-49,111,238,0
515796,-35,140,260,0
515807,-7,163,266,0
515818,-1,144,276,0
515829,9,131,275,1
515840,6,122,258,0
515851,8,118,230,0
515862,31,156,229,0
515873,44,127,218,0
515884,48,122,208,0
515895,41,112,197,0
515906,39,114,191,0
515917,44,117,184,0
515928,45,111,182,0
515939,48,110,174,0
515950,51,112,167,0
515961,50,115,162,0
515972,47,122,165,0
515983,44,132,172,0
515994,39,144,176,0
516005,32,151,173,0
516016,24,156,173,0
516027,17,151,177,0
516038,24,146,186,0
516049,23,138,187,0
516060,20,137,188,0
516071,17,133,190,0
516082,10,132,189,0
516093,5,135,187,0
516104,4,133,183,0
516115,5,135,183,0
516126,4,133,187,0
516137,4,137,181,0
516148,8,135,177,0
516159,4,138,178,0
516170,4,139,181,0
516181,4,138,184,0
516192,3,135,187,0
516203,4,133,189,0
516214,2,131,189,0
516225,1,131,187,0
516236,-5,132,183,0
516247,-10,136,183,0
516258,-10,135,184,0
516269,-14,137,189,0
516280,-18,139,186,0
516291,-20,138,186,0
516302,-22,138,182,0
516313,-23,135,182,0
516324,-26,132,182,0
516335,-30,130,184,0
516346,-32,129,185,0
516357,-28,129,188,0
516368,-18,130,187,0
516379,-17,132,184,0
516390,-14,131,182,0
516401,-13,132,180,0
516412,-15,133,181,0
516423,-20,140,183,0
516435,-23,138,179,0
516446,-20,136,181,0
516457,-22,143,181,0
516468,-19,140,181,0
516479,-10,141,187,0
516490,-2,143,190,0
516501,7,146,187,0
516512,28,150,179,1
516523,44,171,197,0
516534,34,176,209,0
516545,19,190,217,0
516556,13,195,230,0
516567,15,209,246,0
516578,22,209,248,0
516589,27,203,235,0
516600,30,194,225,0
516611,37,184,215,0
516622,42,168,205,0
516633,38,154,195,0
516644,32,138,187,0
516655,26,127,175,0
516666,19,118,163,0
516677,12,113,153,0
516688,-3,121,140,0
516699,-4,127,146,0
516710,-1,138,156,0
516721,6,146,171,0
516732,16,154,179,0
516743,23,166,185,0
516754,27,169,189,0
516765,29,175,200,0
516776,30,174,212,0
516787,30,171,219,0
516798,27,168,217,0
516809,24,165,219,0
516820,23,160,217,0
516831,20,152,209,0
516842,17,147,202,0
516853,15,143,191,0
516864,15,141,186,0
516875,14,142,179,0
516886,12,142,178,0
516897,11,143,175,0
516908,11,140,172,0
516919,10,144,173,0
516930,9,143,173,0
516941,6,146,175,0
516953,7,147,178,0
516964,7,149,180,0
516975,3,155,192,0
516986,0,140,202,0
516997,6,144,188,0
517008,11,147,178,0
517019,9,148,177,0
517030,12,150,178,0
517041,16,151,178,0
517052,22,158,179,0
517063,32,158,180,0
517074,45,159,183,0
517085,58,165,162,0
517096,56,154,150,0
517107,51,155,161,0
517118,48,160,177,0
517129,44,153,184,0
517141,40,151,185,0
517152,23,142,191,0
517163,10,130,181,0
517174,7,130,164,0
517185,6,141,146,0
517196,3,141,133,0
517207,-13,132,121,0
517218,-6,155,105,0
517229,-1,194,121,1
517240,0,206,138,0
517251,17,215,139,0
517262,38,208,144,0
517273,45,191,166,0
517284,49,164,189,0
517295,47,174,196,0
517306,45,180,193,0
517317,38,185,192,0
517328,39,188,202,0
517339,36,193,208,0
517350,33,185,195,0
517361,24,180,176,0
517372,19,182,165,0
517383,17,184,160,0
517394,21,185,177,0
517405,30,192,182,0
517416,35,190,167,0
517427,39,179,160,0
517438,43,179,150,0
517449,39,184,144,0
517460,38,181,150,0
517471,40,185,149,0
517482,39,188,155,0
517493,35,190,158,0
517504,31,193,152,0
517515,27,192,151,0
517526,22,189,155,0
517537,17,179,157,0
517548,16,177,158,0
517559,17,172,159,0
517570,20,170,150,0
517581,23,169,139,0
517592,23,171,135,0
517603,30,174,133,0
517614,38,178,134,0
517625,38,185,149,0
517636,22,184,158,0
517647,14,188,184,0
517658,6,203,203,0
517669,6,194,201,0
517680,8,180,191,0
517691,5,171,175,0
517702,1,168,165,0
517713,-1,168,164,0
517724,-3,163,174,0
517735,-2,159,175,0
517746,-5,164,173,0
517757,-9,160,178,0
517768,-4,156,180,0
517779,-4,159,173,0
517790,-9,165,164,0
517801,-8,164,158,0
517812,-10,173,156,0
517823,-11,174,160,0
517834,-11,178,165,0
517845,-12,174,170,0
517856,-11,173,169,0
517867,-15,172,163,0
517878,-11,176,162,0
517889,-3,186,165,0
517900,5,190,170,1
517911,18,202,169,0
517922,30,206,185,0
517933,29,194,199,0
517944,12,178,203,0
517955,2,168,203,0
517966,6,172,191,0
517977,23,175,179,0
517988,33,169,176,0
517999,35,169,174,0
518010,36,177,181,0
518021,32,178,185,0
518032,30,173,185,0
518043,28,166,182,0
518054,30,157,183,0
518065,36,148,178,0
518076,42,142,177,0
518087,52,139,177,0
518098,55,134,180,0
518109,51,135,180,0
518120,45,145,193,0
518131,41,151,216,0
518142,27,149,221,0
518154,20,144,210,0
518165,13,140,202,0
518176,7,144,203,0
518187,4,138,202,0
518198,0,139,202,0
518209,2,138,198,0
518220,5,138,190,0
518231,4,138,186,0
518242,7,133,178,0
518253,7,132,170,0
518264,7,132,166,0
518275,9,130,165,0
518286,11,133,165,0
518297,13,134,170,0
518308,14,137,174,0
518319,15,137,175,0
518331,16,137,176,0
518342,14,139,182,0
518353,15,132,193,0
518364,20,133,190,0
518375,21,126,182,0
518386,21,122,171,0
518397,18,120,166,0
518408,12,121,171,0
518419,8,123,181,0
518430,5,123,184,0
518441,3,120,183,0
518452,0,126,184,0
518463,-3,125,181,0
518474,-12,129,184,0
518486,-21,134,190,0
518497,-26,138,191,0
518508,-27,135,191,0
518519,-26,136,191,0
518530,-20,137,192,0
518541,-13,140,199,0
518552,-13,143,212,0
518563,-12,146,227,0
518574,-15,148,239,0
518585,-4,173,253,1
518596,8,213,274,0
518607,6,215,289,0
518618,6,206,278,0
518629,29,202,264,0
518640,23,194,241,0
518651,39,136,201,0
518662,44,117,197,0
518673,52,76,191,0
518684,55,69,185,0
518695,46,61,165,0
518706,50,57,155,0
518717,58,65,160,0
518728,57,90,163,0
518739,60,118,162,0
518750,54,141,160,0
518761,55,148,160,0
518772,57,155,169,0
518783,60,153,176,0
518794,62,148,176,0
518805,59,139,178,0
518816,59,133,182,0
518827,59,130,187,0
518838,58,130,185,0
518849,50,130,184,0
518860,37,136,184,0
518871,26,140,181,0
518882,17,144,182,0
518893,15,146,183,0
518904,14,145,181,0
518915,10,141,177,0
518926,2,137,178,0
518937,0,134,181,0
518948,-2,132,180,0
518959,1,134,181,0
518970,5,133,181,0
518981,8,135,183,0
518992,14,137,186,0
519003,23,143,184,0
519014,26,145,181,0
519025,27,144,180,0
519036,25,142,182,0
519047,23,143,187,0
519058,17,139,186,0
519069,9,138,189,0
519080,3,134,192,0
519091,-6,133,193,0
519102,-13,136,197,0
519113,-17,137,198,0
519124,-20,138,194,0
519135,-22,139,194,0
519146,-19,136,192,0
519157,-17,141,192,0
519168,-16,140,191,0
519179,-10,137,194,0
519190,-3,137,193,0
519201,0,138,195,0
519212,1,135,194,0
519223,2,136,194,0
519234,2,134,198,0
519245,0,138,201,0
519256,-15,134,199,0
519267,-23,133,195,0
519278,-27,129,196,0
519289,-15,135,197,1
519300,-1,140,219,0
519311,6,100,263,0
519322,-5,136,233,0
519333,-37,145,217,0
519344,-38,158,236,0
519355,-25,156,225,0
519366,-5,128,210,0
519377,1,160,262,0
519388,13,177,279,0
519399,22,186,262,0
519410,45,196,265,0
519421,74,164,230,0
519432,82,153,222,0
519443,93,87,173,0
519454,81,104,195,0
519465,69,90,173,0
519476,53,90,164,0
519487,40,97,170,0
519498,24,101,180,0
519509,15,102,190,0
519520,12,106,203,0
519531,17,117,218,0
519542,21,122,217,0
519553,23,122,229,0
519564,18,122,221,0
519575,22,116,211,0
519586,19,107,198,0
519597,15,103,193,0
519608,31,91,184,0
519619,29,88,178,0
519630,31,87,179,0
519641,28,89,179,0
519652,29,91,183,0
519663,36,90,184,0
519674,30,92,185,0
519685,29,89,186,0
519696,21,92,188,0
519707,21,88,187,0
519718,14,93,193,0
519729,11,93,194,0
519740,8,89,193,0
519751,2,89,196,0
519762,-2,89,195,0
519773,-7,86,193,0
519784,-4,86,192,0
519795,-9,87,191,0
519806,-3,83,191,0
519817,-6,84,191,0
519828,-10,88,192,0
519839,-11,92,192,0
519850,-30,104,196,0
519861,-22,107,203,0
519872,-28,106,206,0
519883,-33,108,208,0
519894,-35,105,210,0
519905,-31,101,216,0
519916,-25,91,222,0
519927,-19,99,226,1
519938,-19,104,219,0
519949,-26,96,214,0
519960,-33,94,220,0
519971,-48,95,226,0
519982,-44,118,252,0
519993,-23,166,279,0
520004,-24,181,300,0
520015,0,142,299,0
520026,15,160,278,0
520037,22,143,259,0
520048,47,165,271,0
520059,55,173,286,0
520070,48,132,262,0
520081,46,102,203,0
520092,34,86,185,0
520103,27,83,170,0
520114,27,80,162,0
520125,32,85,160,0
520136,37,96,160,0
520147,43,111,161,0
520158,45,132,162,0
520169,49,149,160,0
520180,50,153,172,0
520191,52,157,181,0
520202,50,158,184,0
520213,44,153,185,0
520224,42,148,186,0
520235,39,141,188,0
520246,35,128,187,0
520257,28,131,190,0
520268,23,138,186,0
520279,22,139,184,0
520290,18,143,177,0
520301,17,146,177,0
520312,11,147,178,0
520323,7,150,179,0
520334,2,148,176,0
520345,-1,144,181,0
520356,0,140,182,0
520367,-4,140,184,0
520378,-7,140,186,0
520389,-8,138,187,0
520400,-11,138,187,0
520411,-12,136,189,0
520422,-11,136,191,0
520433,-9,136,188,0
520444,-9,136,189,0
520455,-6,136,187,0
520466,-7,134,188,0
520477,-7,136,185,0
520488,-11,132,187,0
520499,-18,133,187,0
520510,-21,137,189,0
520521,-25,135,191,0
520532,-25,132,190,0
520543,-22,129,189,0
520554,-21,130,189,0
520565,-21,128,186,0
520576,-17,125,184,0
520587,-15,129,188,0
520598,-15,135,192,0
520609,-17,135,193,0
520620,-18,135,195,0
520631,-17,132,196,0
520642,-15,129,196,0
520653,-11,129,196,0
520664,-10,128,196,0
520675,-12,129,195,0
520686,-15,129,197,0
520697,-16,127,195,0
520708,-15,123,194,0
520719,-17,118,192,0
520730,-10,115,191,0
520741,12,122,236,1
520752,26,127,248,0
520763,8,138,226,0
520774,-3,144,232,0
520785,4,160,236,0
520796,9,172,231,0
520807,7,182,255,0
520818,16,176,255,0
520829,21,169,233,0
520840,23,177,232,0
520851,27,181,231,0
520862,30,179,219,0
520873,39,138,186,0
520884,42,122,171,0
520895,56,84,139,0
520906,35,71,134,0
520917,-19,119,182,0
520928,-16,106,176,0
520939,-26,125,204,0
520950,-19,125,211,0
520961,-19,127,216,0
520972,-18,133,221,0
520983,-13,137,228,0
520994,-7,136,231,0
521005,1,134,231,0
521016,9,128,218,0
521027,14,119,211,0
521038,24,110,202,0
521049,27,104,192,0
521060,32,100,181,0
521071,35,100,179,0
521082,33,103,184,0
521093,25,104,184,0
521104,20,102,182,0
521115,16,101,179,0
521126,12,103,184,0
521137,10,103,187,0
521148,7,105,192,0
521159,8,105,193,0
521170,4,103,190,0
521181,1,104,191,0
521192,1,100,189,0
521203,1,100,188,0
521214,1,97,186,0
521225,2,95,185,0
521236,3,95,185,0
521247,0,100,189,0
521258,-3,104,192,0
521269,-8,106,194,0
521280,-12,110,198,0
521291,-20,111,198,0
521302,-22,112,202,0
521313,-25,112,205,0
521324,-22,109,204,0
521335,-26,107,204,0
521346,-16,107,206,0
521357,-15,106,205,0
521368,-12,106,206,0
521379,-19,108,206,0
521390,-26,106,215,0
521401,-39,113,224,0
521412,-11,151,252,0
521423,11,211,275,0
521434,-2,193,304,0
521445,9,180,293,0
521456,9,193,296,0
521467,39,200,302,0
521478,45,183,303,0
521489,44,148,256,0
521500,40,120,229,0
521511,29,100,201,0
521522,15,104,184,0
521533,16,114,185,1
521544,22,110,177,0
521555,25,108,164,0
521566,32,117,144,0
521577,37,122,136,0
521588,38,136,145,0
521599,41,141,157,0
521610,47,145,170,0
521621,54,144,178,0
521632,53,141,179,0
521643,54,144,187,0
521654,51,138,187,0
521665,46,124,179,1
521676,45,141,188,0
521687,35,144,190,0
521698,29,145,188,0
521709,19,147,189,0
521720,18,149,187,0
521731,11,141,181,0
521742,9,146,175,0
521753,3,147,172,0
521764,-2,145,174,0
521776,-4,142,177,0
521787,-5,139,179,0
521798,-3,138,180,0
521809,-1,137,181,0
521820,5,135,183,0
521831,9,133,185,0
521842,12,136,189,0
521853,14,139,190,0
521864,8,139,193,0
521875,4,141,191,0
521886,4,138,191,0
521897,-3,137,189,0
521908,-8,136,189,0
521919,-15,134,186,0
521930,-18,133,187,0
521941,-22,134,186,0
521952,-24,132,187,0
521963,-24,132,188,0
521974,-25,132,188,0
521985,-22,132,187,0
521996,-19,132,188,0
522007,-15,132,192,0
522018,-9,132,194,0
522029,-9,134,193,0
522040,-10,133,192,0
522051,-12,132,193,0
522062,-11,131,192,0
522073,-11,131,190,0
522084,-15,133,185,0
522095,-18,132,181,0
522106,-20,130,181,0
522118,-16,130,185,1
522128,3,138,188,0
522139,11,139,221,0
522150,23,144,235,0
522161,12,144,214,0
522172,11,148,199,0
522183,18,163,196,0
522194,24,172,221,0
522205,36,159,234,0
522216,26,161,239,0
522227,33,167,242,0
522238,34,175,247,0
522249,34,173,238,0
522260,31,152,221,0
522271,33,138,214,0
522282,32,130,199,0
522293,23,121,182,1
522304,10,109,176,0
522315,3,100,174,0
522326,-7,99,173,0
522337,-13,101,174,0
522348,-10,105,175,0
522359,-5,109,180,0
522370,15,116,189,0
522381,19,121,196,0
522392,28,130,209,0
522403,29,139,219,0
522414,35,143,223,0
522425,31,141,223,0
522436,34,137,213,0
522447,34,130,206,0
522458,35,125,196,0
522469,41,118,190,0
522480,41,115,187,0
522491,41,116,189,0
522502,40,118,189,0
522513,38,117,189,0
522524,32,118,192,0
522535,25,114,190,0
522546,20,111,189,0
522557,18,114,191,0
522568,15,112,191,0
522579,12,108,190,0
522590,10,111,193,0
522601,7,109,192,0
522612,6,109,195,0
522623,3,108,199,0
522634,6,107,201,0
522645,5,108,202,0
522656,4,104,198,0
522667,4,102,195,0
522678,2,103,195,0
522689,6,103,192,0
522700,4,97,190,0
522711,5,98,191,0
522722,4,97,190,0
522733,1,100,192,0
522744,0,99,195,0
522755,1,102,197,0
522766,0,99,195,0
522777,2,99,196,0
522788,1,96,197,1
522799,2,97,201,0
522810,1,100,200,0
522821,3,113,200,0
522832,8,136,207,0
522843,10,155,215,0
522854,4,166,225,0
522865,22,256,316,0
522876,10,231,334,0
522887,16,186,280,0
522898,24,157,220,0
522909,7,128,195,0
522920,3,113,177,0
522931,-1,105,168,0
522942,-6,97,166,0
522953,-5,92,161,1
522964,-1,105,166,0
522975,5,116,174,0
522986,15,124,182,0
522997,27,128,185,0
523008,35,138,188,0
523019,44,145,191,0
523030,53,145,192,0
523041,54,140,191,0
523052,49,136,188,0
523063,46,135,185,0
523074,37,134,185,0
523085,33,133,186,0
523096,31,133,186,0
523107,29,133,186,0
523118,28,133,188,0
523129,26,137,189,0
523140,25,139,188,0
523151,24,143,190,0
523162,24,138,185,0
523173,26,141,188,0
523184,26,138,188,0
523195,22,144,191,0
523206,18,140,191,0
523217,14,141,193,0
523228,14,137,191,0
523239,13,139,191,0
523250,14,140,191,0
523261,17,141,191,0
523272,20,138,190,0
523283,21,136,188,0
523294,22,137,190,0
523306,22,138,190,0
523317,20,142,192,0
523328,16,141,193,0
523339,15,141,192,0
523350,13,141,191,0
523361,14,141,193,0
523372,14,140,192,0
523383,12,139,191,0
523394,11,137,190,0
523405,9,135,191,0
523416,9,134,190,0
523427,6,132,190,0
523438,6,135,191,0
523449,7,135,192,0
523460,11,135,194,0
523471,9,136,193,0
523482,10,140,196,0
523493,8,139,194,0
523504,10,142,196,0
523515,9,139,193,0
523526,9,139,192,0
523537,10,138,192,0
523548,14,138,191,0
523559,19,135,191,0
523570,23,133,193,0
523581,24,134,191,0
523592,21,136,192,0
523603,17,135,192,0
523614,15,136,192,0
523625,12,139,192,0
523636,9,140,193,0
523647,8,139,194,0
523658,9,136,193,0
523669,10,137,194,0
523680,11,133,192,0
523691,8,134,193,0
523702,7,135,193,0
523713,7,136,194,0
523724,6,137,193,0
523735,6,136,193,0
523746,10,136,194,0
523757,12,137,193,0
523768,15,138,194,0
523779,16,136,194,0
523790,16,135,194,0
523801,16,133,194,0
523812,14,132,192,0
523823,12,133,193,0
523834,9,134,193,0
523845,7,135,193,0
523856,9,136,194,0
523867,9,135,196,0
523878,11,132,194,0
523889,10,133,193,0
523900,9,133,193,0
523911,7,135,194,0
523922,6,133,193,0
523933,5,135,194,0
523944,4,134,194,0
523955,4,135,195,0
523966,6,136,194,0
523977,7,136,195,0
523988,10,134,195,0
523999,10,134,194,0
524010,9,131,194,0
524021,8,131,193,0
524032,9,132,194,0
524043,9,132,193,0
524054,9,133,194,0
524065,11,133,194,0
524076,11,135,195,0
524087,10,133,197,0
524098,9,132,194,0
524109,7,133,194,0
524120,6,132,194,0
524131,6,132,194,0
524142,5,132,194,0
524153,8,131,194,0
524164,9,130,194,0
524175,9,134,197,0
524186,10,134,201,0
524197,10,133,197,0
524208,7,131,196,0
524219,6,129,193,0
524230,6,131,193,0
524241,5,130,193,0
524252,8,129,193,0
524263,8,130,193,0
524274,7,130,194,0
524285,8,129,194,0
524296,7,130,195,0
524307,5,129,196,0
524318,2,129,194,0
524329,2,132,196,0
524340,3,133,199,0
524351,7,132,197,0
524362,7,131,196,0
524373,9,131,195,0
524384,9,131,195,0
