timestamp,accX,accY,accZ,step
946905,31,-16,226,0
946916,30,-14,228,0
946926,30,-15,229,0
946936,33,-18,225,0
946948,31,-15,225,0
946958,35,-11,232,0
946969,30,-11,228,0
946979,30,-16,227,0
946991,28,-15,226,0
947001,29,-11,230,0
947012,29,-10,234,0
947022,28,-12,231,0
947032,30,-15,228,0
947043,29,-11,230,0
947054,28,-12,228,0
947065,28,-13,230,0
947075,27,-9,234,0
947085,28,-12,231,0
947096,28,-15,231,0
947107,31,-13,232,0
947118,31,-13,229,0
947128,34,-12,230,0
947139,37,-13,230,0
947149,38,-11,230,0
947160,40,-12,228,0
947171,41,-12,227,0
947181,40,-12,228,0
947193,39,-13,227,0
947203,38,-13,228,0
947214,37,-14,229,0
947225,37,-14,228,0
947236,38,-13,228,0
947248,37,-13,226,0
947258,37,-12,227,0
947269,39,-14,229,0
947280,38,-13,227,0
947292,37,-14,229,0
947303,37,-14,228,0
947313,34,-13,228,0
947324,33,-12,228,0
947335,32,-11,230,0
947347,29,-13,229,0
947357,28,-14,229,0
947368,28,-13,230,0
947379,27,-14,229,0
947391,26,-14,229,0
947401,27,-14,229,0
947412,25,-12,229,0
947423,25,-13,229,0
947434,23,-12,228,0
947445,23,-12,230,0
947456,24,-12,228,0
947467,25,-11,229,0
947478,25,-11,230,0
947489,26,-11,230,0
947500,26,-11,231,0
947511,25,-11,230,0
947522,25,-12,227,0
947533,27,-11,228,0
947544,29,-10,228,0
947555,31,-12,232,0
947566,33,-12,232,0
947578,34,-11,229,0
947588,36,-12,230,0
947599,38,-12,228,0
947610,38,-11,228,0
947621,37,-13,227,0
947632,39,-13,226,0
947643,39,-11,227,0
947655,41,-11,229,0
947665,41,-11,229,0
947676,41,-13,229,0
947687,41,-13,227,0
947698,41,-13,228,0
947709,42,-13,226,0
947720,43,-10,228,0
947731,42,-10,228,0
947742,41,-12,228,0
947753,42,-12,229,0
947764,40,-13,227,0
947775,40,-11,227,0
947786,40,-12,228,0
947797,40,-11,230,0
947808,42,-11,230,0
947819,44,-11,232,0
947830,45,-11,231,0
947841,45,-11,228,0
947853,44,-10,228,0
947863,43,-10,228,0
947874,42,-10,229,0
947885,42,-11,227,0
947896,40,-12,228,0
947907,39,-11,229,0
947918,39,-11,227,0
947929,37,-10,227,0
947940,37,-9,227,0
947951,36,-8,226,0
947962,35,-9,226,0
947973,35,-10,229,0
947984,34,-8,226,0
947995,34,-9,226,0
948006,29,-8,228,0
948017,27,-7,230,0
948028,25,-6,232,0
948039,25,-6,234,0
948050,23,-7,235,0
948061,23,-8,234,0
948072,22,-9,231,0
948083,22,-10,229,0
948094,23,-9,227,0
948105,22,-10,227,0
948116,23,-11,226,0
948127,25,-11,227,0
948138,24,-10,229,0
948149,25,-10,230,0
948160,24,-9,233,0
948171,23,-8,232,0
948182,22,-7,230,0
948193,22,-8,231,0
948204,24,-8,228,0
948215,23,-8,230,0
948226,25,-8,229,0
948237,26,-8,228,0
948248,26,-8,229,0
948259,27,-8,229,0
948270,28,-6,232,0
948281,30,-8,230,0
948293,31,-9,231,0
948303,30,-7,228,0
948314,31,-7,226,0
948325,31,-5,225,0
948336,29,-4,225,0
948348,30,-3,227,0
948358,30,-6,227,0
948369,31,-6,229,0
948380,32,-4,230,0
948392,32,-5,229,0
948402,30,-6,231,0
948413,27,-4,230,0
948424,26,-2,229,0
948435,26,-5,228,0
948446,25,-5,229,0
948457,23,-6,229,0
948468,21,-7,232,0
948479,23,-3,232,0
948491,23,-1,229,0
948501,22,-6,231,0
948512,23,-5,229,0
948523,26,-3,228,0
948534,29,-2,229,0
948545,32,-9,229,0
948556,32,-12,228,0
948567,34,-11,229,0
948578,34,-7,228,0
948589,33,-2,225,0
948600,32,-4,227,0
948611,29,-2,227,0
948622,27,-4,228,0
948633,25,-2,227,0
948644,21,-3,224,0
948655,20,-9,230,0
948666,22,-7,229,0
948678,22,-9,230,0
948688,22,-9,227,0
948699,22,-7,227,0
948710,24,-7,227,0
948721,24,-6,225,0
948732,25,-10,226,0
948743,25,-5,227,0
948754,25,0,229,0
948765,26,-1,230,0
948776,27,1,233,0
948787,29,7,232,0
948798,31,4,234,0
948809,32,8,233,0
948820,32,9,231,0
948831,34,8,230,0
948842,34,6,231,0
948853,35,4,228,0
948864,36,4,228,0
948875,40,6,225,0
948886,41,6,224,0
948897,44,7,224,0
948908,42,8,225,0
948919,40,8,226,0
948930,38,12,229,0
948941,35,11,233,0
948952,32,11,232,0
948963,31,11,231,0
948974,30,11,230,0
948985,28,9,229,0
948996,25,8,231,0
949007,24,8,230,0
949018,23,8,228,0
949029,20,8,227,0
949040,17,8,226,0
949051,14,9,225,0
949062,12,10,227,0
949073,10,11,229,0
949084,11,10,230,0
949095,9,9,231,0
949106,8,5,230,0
949117,10,5,224,0
949128,10,7,225,0
949139,10,8,227,0
949150,11,9,227,0
949161,10,5,228,0
949172,8,5,227,0
949183,5,4,227,0
949194,2,4,227,0
949205,-1,4,226,0
949216,-2,5,228,0
949227,-1,9,228,0
949238,-2,10,227,0
949249,0,11,229,0
949260,0,11,230,0
949271,2,11,232,0
949282,6,15,231,0
949293,7,16,231,0
949304,8,19,228,0
949315,3,23,226,0
949326,3,24,231,0
949337,2,29,231,0
949348,3,29,229,0
949359,2,31,227,0
949370,-1,32,228,0
949381,-7,34,232,0
949393,-8,42,233,0
949404,1,54,231,1
949414,3,55,250,0
949425,-5,35,277,0
949437,-10,31,284,0
949448,-20,30,272,0
949458,-19,28,267,0
949469,-4,47,274,0
949480,7,41,287,0
949492,28,8,306,0
949502,41,9,303,0
949513,64,20,294,0
949524,85,28,283,0
949535,100,27,268,0
949546,108,22,249,0
949557,117,18,226,0
949568,123,9,204,0
949579,124,-2,183,0
949591,124,-17,168,0
949601,124,-27,157,0
949612,120,-29,152,0
949623,116,-22,156,0
949634,106,-15,169,0
949645,97,-14,186,0
949656,72,-7,197,0
949667,56,-6,207,0
949678,42,-5,231,0
949689,33,0,253,0
949700,26,7,260,0
949711,20,10,263,0
949722,19,7,260,0
949733,22,3,254,0
949744,27,0,245,0
949756,35,-8,233,0
949766,42,-11,223,0
949777,45,-16,214,0
949788,47,-15,213,0
949799,48,-5,210,0
949810,47,3,212,0
949821,33,8,225,0
949832,27,9,224,0
949843,24,5,220,0
949854,23,2,211,0
949865,22,1,204,0
949876,20,-1,203,0
949887,17,0,202,0
949898,13,-3,200,0
949909,9,-3,198,0
949920,7,-4,196,0
949931,4,-3,197,0
949942,2,-4,196,0
949953,0,-4,197,0
949964,-5,-5,202,0
949975,-8,-2,207,0
949986,-20,0,217,0
949997,-21,-2,224,0
950008,-19,-1,229,0
950019,-21,2,229,0
950030,-24,7,228,0
950041,-31,5,229,0
950052,-36,1,241,0
950063,-31,4,263,0
950074,-38,12,266,0
950086,-40,-10,276,1
950096,-31,-28,285,0
950107,-7,-33,292,0
950118,39,-31,317,0
950129,76,-15,350,0
950140,101,9,370,0
950151,151,6,417,0
950162,144,25,410,0
950173,100,3,348,0
950184,57,-10,269,0
950195,22,-27,187,0
950206,-1,-59,142,0
950217,-19,-69,127,0
950229,1,-54,130,0
950240,24,-56,141,0
950251,40,-30,151,0
950262,57,-18,163,0
950273,60,-5,179,0
950284,66,-1,191,0
950295,67,1,196,0
950306,64,5,222,0
950318,68,3,220,0
950329,77,1,209,0
950341,81,-5,203,0
950351,83,-10,199,0
950362,89,-7,202,0
950373,83,-7,202,0
950384,70,-12,201,0
950395,63,-5,200,0
950406,57,-4,205,0
950417,47,0,215,0
950428,38,0,220,0
950439,30,3,221,0
950450,23,4,217,0
950462,17,1,219,0
950472,12,0,218,0
950483,4,-3,214,0
950494,-1,-5,209,0
950505,-4,-1,209,0
950516,-7,1,211,0
950528,-3,-1,212,0
950538,1,1,211,0
950549,0,5,216,0
950560,3,4,221,0
950571,5,8,226,0
950582,5,8,228,0
950593,6,9,228,0
950604,4,11,228,0
950615,1,12,229,0
950626,0,14,240,0
950637,3,6,232,0
950648,10,1,228,0
950659,12,0,223,0
950670,15,-7,215,0
950681,20,-15,207,0
950693,23,-16,205,0
950703,19,-8,210,0
950714,10,-1,214,0
950725,2,4,220,0
950736,-7,13,227,0
950748,-22,18,235,0
950759,-31,25,238,1
950769,-17,30,227,0
950780,-11,4,256,0
950792,-9,-58,261,0
950802,-23,-36,268,0
950813,-32,-22,295,0
950824,-21,-20,322,0
950835,7,-19,335,0
950846,37,-9,344,0
950857,72,10,348,0
950868,107,20,334,0
950879,135,30,310,0
950891,156,27,274,0
950901,165,19,236,0
950912,169,6,199,0
950923,157,0,169,0
950934,140,-6,145,0
950945,116,-10,137,0
950956,61,-24,156,0
950967,28,-25,184,0
950978,-1,-25,211,0
950989,-22,-14,228,0
951000,-40,8,253,0
951011,-38,6,273,0
951022,-24,5,274,0
951033,-4,3,269,0
951044,5,0,254,0
951055,14,-2,239,0
951066,25,-2,233,0
951078,32,-1,225,0
951088,40,-1,220,0
951099,49,-2,214,0
951110,51,-4,211,0
951121,48,-5,212,0
951132,46,-5,214,0
951143,41,-2,213,0
951154,37,-4,207,0
951165,33,-1,208,0
951176,29,-1,209,0
951187,26,-2,207,0
951198,23,-3,207,0
951209,24,-3,207,0
951220,23,-7,202,0
951231,28,-11,196,0
951242,30,-15,192,0
951253,31,-14,194,0
951264,34,-16,198,0
951275,35,-16,199,0
951286,33,-18,199,0
951298,32,-17,206,0
951309,30,-12,211,0
951320,27,-3,217,0
951331,21,1,224,0
951342,13,0,229,0
951353,7,-5,237,0
951364,4,-14,246,0
951375,6,-21,249,0
951386,12,-28,247,0
951397,14,-31,239,0
951408,11,-32,243,0
951419,9,-38,255,0
951430,6,-46,270,0
951442,3,-51,280,1
951453,24,-73,303,0
951463,72,-19,336,0
951474,38,71,341,0
951485,18,16,314,0
951496,26,-37,276,0
951507,22,-38,255,0
951518,23,-37,238,0
951529,47,-24,283,0
951540,41,-22,288,0
951551,36,-35,268,0
951562,37,-45,241,0
951573,37,-47,209,0
951584,33,-47,183,0
951595,37,-35,164,0
951606,39,-16,164,0
951617,31,-1,173,0
951628,31,1,182,0
951639,36,6,187,0
951650,38,15,192,0
951661,48,25,203,0
951673,56,27,212,0
951683,63,18,223,0
951694,66,17,221,0
951705,57,9,219,0
951716,51,4,216,0
951728,57,3,220,0
951738,65,1,215,0
951749,67,-4,205,0
951760,54,-15,206,0
951771,41,-11,211,0
951782,30,-6,216,0
951793,23,0,218,0
951804,29,-1,226,0
951815,26,1,229,0
951826,21,1,232,0
951837,25,0,235,0
951848,30,0,233,0
951859,29,-4,222,0
951870,29,-6,216,0
951882,27,-4,210,0
951893,23,0,209,0
951903,18,2,213,0
951914,13,4,218,0
951925,6,5,229,0
951936,1,3,230,0
951947,-1,1,231,0
951958,-3,2,234,0
951969,-6,4,237,0
951980,-6,5,240,0
951992,-4,3,243,0
952003,-3,1,238,0
952013,-4,1,231,0
952024,-7,-2,223,0
952035,-7,-7,215,0
952046,-3,-11,213,0
952057,0,-11,211,0
952068,0,-11,210,0
952079,1,-10,213,0
952091,-1,-1,219,0
952101,-5,-1,225,0
952112,-10,-3,231,0
952123,-11,-4,233,0
952134,-13,1,231,0
952146,-17,3,230,1
952156,-21,2,230,0
952167,-22,2,230,0
952178,-28,0,229,0
952189,-39,0,226,0
952200,-52,-2,223,0
952211,-51,-1,213,0
952222,-12,23,206,0
952233,-27,14,273,0
952244,-11,-36,296,0
952255,-53,-18,278,0
952266,-46,30,283,0
952278,-13,44,296,0
952288,11,7,307,0
952299,31,-1,310,0
952311,51,15,305,0
952321,80,40,292,0
952332,113,48,281,0
952343,141,35,256,0
952354,160,22,223,0
952365,174,16,195,0
952376,164,11,170,0
952387,145,-2,151,0
952398,126,-12,148,0
952409,100,-12,155,0
952420,38,-9,201,0
952431,18,-15,230,0
952442,-1,-19,251,0
952453,-18,-17,269,0
952464,-34,-11,285,0
952475,-40,-5,282,0
952486,-33,6,271,0
952497,-25,7,261,0
952508,-15,8,250,0
952519,-9,14,247,0
952531,4,18,234,0
952542,12,19,221,0
952553,21,13,210,0
952564,31,11,205,0
952575,37,6,195,0
952586,36,5,198,0
952597,37,1,209,0
952608,36,0,211,0
952619,37,0,215,0
952630,36,1,218,0
952641,36,1,221,0
952653,32,-1,221,0
952663,31,-2,219,0
952674,24,4,218,0
952685,13,7,214,0
952697,5,11,213,0
952707,-1,12,213,0
952718,-6,15,217,0
952729,-9,29,216,0
952740,-19,43,211,0
952751,-23,49,208,0
952762,-25,54,203,0
952773,-25,53,204,0
952784,-19,49,208,0
952795,-4,38,209,0
952806,4,49,200,0
952817,10,49,205,0
952828,19,46,221,0
952839,29,37,235,0
952850,35,30,233,0
952861,33,27,223,0
952872,39,16,228,0
952883,49,3,240,0
952895,77,42,268,1
952905,79,70,270,0
952917,86,72,275,0
952928,90,79,266,0
952938,81,69,256,0
952949,80,51,245,0
952960,73,76,245,0
952971,61,96,250,0
952982,56,93,252,0
952993,60,71,247,0
953004,61,57,234,0
953015,59,62,223,0
953028,54,75,217,0
953038,57,80,205,0
953049,66,87,184,0
953060,76,92,171,0
953071,82,103,170,0
953082,89,108,174,0
953093,102,104,174,0
953104,111,99,173,0
953115,118,93,170,0
953126,127,93,173,0
953137,134,92,183,0
953149,142,94,194,0
953159,133,91,203,0
953170,117,88,216,0
953181,94,92,229,0
953193,70,92,241,0
953203,56,92,238,0
953214,48,82,217,0
953225,52,82,214,0
953236,58,79,209,0
953247,63,77,208,0
953258,73,73,205,0
953269,75,78,204,0
953280,74,81,203,0
953291,75,79,206,0
953303,81,85,206,0
953313,85,90,205,0
953324,85,88,206,0
953335,89,82,202,0
953346,92,81,202,0
953357,91,84,202,0
953368,84,88,206,0
953379,82,86,211,0
953391,78,89,211,0
953401,75,86,209,0
953412,74,82,210,0
953423,68,83,214,0
953434,64,87,215,0
953445,62,89,218,0
953456,63,87,217,0
953467,62,86,218,0
953478,64,84,215,0
953489,64,87,212,0
953500,64,88,209,0
953511,66,87,205,0
953522,66,89,204,0
953533,73,90,204,0
953544,78,93,205,0
953555,77,93,202,0
953566,78,91,204,0
953579,77,91,207,0
953589,76,88,208,0
953600,76,89,208,0
953611,72,92,209,0
953622,69,91,210,0
953633,65,90,211,0
953644,61,86,213,0
953655,54,82,216,0
953666,50,76,215,0
953678,46,74,215,0
953688,49,65,210,0
953699,73,65,192,0
953711,91,35,203,0
953722,89,-11,197,1
953732,72,-42,190,0
953743,56,-26,212,0
953754,48,-1,242,0
953765,53,16,259,0
953776,62,20,259,0
953787,67,8,248,0
953799,67,5,242,0
953809,64,19,242,0
953820,56,39,252,0
953831,46,41,269,0
953842,37,28,289,0
953853,32,7,301,0
953864,31,-5,282,0
953875,31,-10,267,0
953887,41,-25,254,0
953897,48,-31,251,0
953908,57,-34,239,0
953919,62,-31,229,0
953930,65,-26,224,0
953941,60,-19,217,0
953953,53,-9,214,0
953963,43,-2,206,0
953974,35,2,200,0
953985,36,3,192,0
953996,34,5,192,0
954007,29,5,195,0
954018,24,3,196,0
954029,20,0,200,0
954040,15,-5,204,0
954051,9,-3,209,0
954062,6,-3,212,0
954073,4,1,216,0
954084,0,5,221,0
954095,-4,10,227,0
954106,-8,15,230,0
954117,-10,19,234,0
954128,-9,22,234,0
954139,-5,25,234,0
954150,-1,25,232,0
954161,3,25,231,0
954172,7,23,230,0
954183,10,22,226,0
954194,5,17,221,0
954205,1,15,222,0
954216,0,14,227,0
954228,-3,15,228,0
954238,-1,9,230,0
954249,0,6,239,0
954260,-9,21,234,0
954271,-24,15,222,0
954282,-29,10,221,0
954293,-34,10,226,0
954304,-39,12,225,0
954315,-38,15,222,0
954326,-40,13,216,0
954337,-40,11,227,0
954348,-34,-1,239,0
954359,-17,18,227,0
954370,-22,29,223,0
954381,-27,32,233,0
954393,-24,28,243,0
954404,-20,21,247,1
954414,-20,14,250,0
954425,2,2,266,0
954436,67,-2,373,0
954447,72,58,363,0
954458,80,11,344,0
954469,130,4,347,0
954480,174,21,376,0
954491,185,38,384,0
954503,146,29,299,0
954513,96,-41,259,0
954524,24,-27,159,0
954535,-8,-73,130,0
954546,-26,-67,125,0
954557,-25,-60,130,0
954568,-21,-46,142,0
954579,-17,-24,163,0
954591,-10,-8,173,0
954601,0,6,193,0
954612,24,16,215,0
954623,54,24,230,0
954635,87,20,232,0
954645,109,16,228,0
954656,121,9,217,0
954667,120,-1,210,0
954678,106,-13,208,0
954689,83,-9,210,0
954700,75,-11,211,0
954711,67,-13,211,0
954722,64,-7,212,0
954734,63,3,218,0
954744,63,3,219,0
954755,61,5,217,0
954766,64,9,208,0
954778,64,6,205,0
954788,59,7,205,0
954799,56,11,213,0
954811,49,12,216,0
954821,40,16,220,0
954832,36,16,218,0
954843,31,16,211,0
954854,25,11,216,0
954865,19,13,224,0
954876,13,13,231,0
954887,11,15,239,0
954898,13,17,236,0
954909,15,18,235,0
954920,19,15,230,0
954931,24,12,227,0
954942,30,12,222,0
954953,34,11,221,0
954964,37,9,220,0
954975,40,5,219,0
954986,40,0,220,0
954997,42,0,221,0
955008,42,-2,222,0
955019,36,0,224,0
955030,34,2,225,0
955041,31,3,225,0
955053,27,7,225,0
955063,26,9,223,0
955074,23,8,221,0
955085,19,3,218,0
955096,13,0,220,0
955107,9,1,223,0
955118,2,1,227,0
955129,-4,-1,236,0
955140,-11,0,238,0
955151,-15,-2,241,0
955162,-6,1,235,0
955173,28,36,227,0
955184,38,-28,296,0
955196,20,-23,284,1
955206,-7,-21,276,0
955217,-8,3,276,0
955228,19,18,285,0
955239,26,6,299,0
955250,34,5,291,0
955261,37,0,286,0
955272,49,2,273,0
955283,62,1,255,0
955294,74,5,226,0
955305,84,7,200,0
955316,85,13,181,0
955328,76,6,163,0
955338,82,5,170,0
955349,73,16,185,0
955360,55,18,192,0
955371,39,17,207,0
955382,22,12,230,0
955393,11,9,250,0
955404,10,11,267,0
955416,14,7,269,0
955426,27,5,265,0
955437,38,3,261,0
955448,48,1,249,0
955459,59,-3,238,0
955470,62,-4,230,0
955481,64,-5,222,0
955493,56,-8,218,0
955503,56,-3,225,0
955514,52,1,234,0
955525,47,0,220,0
955536,37,-3,202,0
955547,28,1,198,0
955558,19,2,201,0
955569,11,8,201,0
955580,2,9,202,0
955592,-2,8,207,0
955603,-8,17,207,0
955613,-17,14,206,0
955624,-18,7,208,0
955635,-17,9,208,0
955646,-11,8,208,0
955657,-5,3,203,0
955668,2,6,197,0
955679,7,11,199,0
955691,12,11,212,0
955701,13,7,217,0
955712,15,2,222,0
955723,12,3,228,0
955734,5,1,228,0
955745,-1,3,225,0
955756,-11,2,224,0
955767,-16,2,227,0
955778,-17,12,234,0
955789,-20,18,245,0
955800,-21,17,260,0
955811,-22,18,258,0
955822,20,6,290,0
955833,94,43,424,0
955844,46,129,414,0
955855,124,-26,392,0
955866,127,3,393,0
955878,102,4,348,0
955889,81,-20,271,0
955900,66,-22,217,0
955911,46,-48,184,0
955922,41,20,143,0
955933,42,-107,125,0
955944,54,-45,138,0
955955,62,-76,126,0
955966,67,-56,140,0
955978,68,-32,148,0
955988,71,-21,157,0
955999,87,-10,203,0
956011,98,-12,219,0
956021,104,-14,224,0
956032,106,-21,227,0
956043,105,-28,218,0
956054,101,-31,208,0
956065,93,-29,205,0
956076,82,-28,203,0
956087,72,-19,209,0
956098,59,-17,211,0
956109,48,-13,219,0
956120,45,-6,231,0
956131,39,0,235,0
956142,34,-4,231,0
956153,25,-5,223,0
956164,27,-2,223,0
956175,28,0,222,0
956186,27,0,220,0
956197,28,-3,220,0
956208,27,-5,213,0
956219,25,-5,214,0
956230,20,-2,215,0
956241,19,-2,220,0
956253,18,0,226,0
956263,12,0,228,0
956274,11,2,231,0
956285,8,6,237,0
956296,5,10,239,0
956307,1,12,241,0
956318,0,14,241,0
956329,1,11,230,0
956341,2,6,223,0
956353,3,4,221,0
956363,5,3,218,0
956374,6,1,216,0
956385,8,3,218,0
956397,7,2,221,1
956407,10,3,223,0
956418,9,7,223,0
956429,9,12,225,0
956440,11,16,223,0
956451,14,17,219,0
956462,18,17,221,0
956473,14,14,222,0
956484,5,16,218,0
956495,0,19,217,0
956506,-9,24,212,0
956517,-16,26,207,0
956528,-14,31,201,0
956539,0,-23,203,0
956550,0,-63,247,0
956561,21,-38,245,0
956572,8,-30,235,0
956583,1,-53,242,0
956594,-3,-33,259,0
956605,-19,-39,284,0
956616,-18,-41,308,0
956628,-2,-10,320,0
956638,24,9,334,0
956649,94,29,327,0
956660,124,27,310,0
956671,143,18,280,0
956682,152,6,247,0
956693,151,-10,211,0
956704,135,-27,181,0
956715,118,-50,161,0
956726,99,-62,151,0
956737,76,-62,142,0
956748,62,-61,144,0
956759,44,-55,159,0
956770,26,-52,174,0
956781,14,-54,188,0
956793,0,-43,206,0
956803,-18,-34,236,0
956814,-19,-28,284,0
956825,-9,-18,283,0
956836,0,-15,270,0
956847,12,-12,262,0
956858,19,-14,244,0
956869,25,-16,229,0
956880,25,-18,218,0
956892,24,-18,214,0
956903,30,-17,216,0
956913,35,-12,219,0
956924,37,-10,219,0
956935,39,-12,220,0
956946,40,-14,217,0
956957,40,-10,215,0
956968,38,-8,216,0
956979,26,-8,209,0
956991,17,-5,206,0
957001,10,-3,205,0
957012,2,-1,202,0
957023,-1,-1,198,0
957034,-7,0,198,0
957045,-10,1,198,0
957056,-9,2,201,0
957067,-10,1,202,0
957078,-6,2,205,0
957089,-5,2,205,0
957100,-2,5,210,0
957111,0,9,217,0
957122,0,14,223,0
957133,-2,16,228,0
957144,-9,20,230,0
957155,-10,19,232,0
957166,-13,20,237,0
957178,-13,19,244,0
957188,-15,20,247,0
957200,-18,19,248,0
957211,-17,16,248,0
957221,-18,18,248,0
957232,-18,19,251,0
957243,-23,22,252,0
957254,-29,22,250,0
957266,-29,22,253,1
957276,-30,24,253,0
957287,-25,16,255,0
957298,11,-17,285,0
957309,75,19,398,0
957320,90,6,394,0
957331,116,-1,336,0
957342,129,-11,331,0
957353,130,-24,327,0
957364,115,-16,279,0
957375,73,-29,228,0
957386,40,-40,179,0
957397,15,-59,153,0
957408,3,-63,145,0
957419,3,-60,146,0
957430,9,17,79,0
957441,19,-135,174,0
957453,44,-10,148,0
957463,48,-43,176,0
957474,80,-8,200,0
957485,90,0,208,0
957496,91,6,222,0
957507,89,1,227,0
957518,85,-2,230,0
957529,86,-12,227,0
957540,83,-16,218,0
957551,83,-22,213,0
957562,86,-21,213,0
957573,90,-18,214,0
957584,87,-22,216,0
957595,75,-23,213,0
957606,67,-24,210,0
957617,60,-20,216,0
957628,53,-16,223,0
957639,46,-10,231,0
957650,44,-4,236,0
957661,45,0,232,0
957672,43,0,229,0
957683,41,0,225,0
957694,40,1,224,0
957705,41,-1,221,0
957716,43,-2,223,0
957728,43,-4,224,0
957738,47,-8,222,0
957749,47,-5,227,0
957760,45,-1,231,0
957771,43,-1,235,0
957782,42,1,237,0
957793,37,0,236,0
957804,28,0,236,0
957815,26,0,234,0
957826,22,-1,231,0
957837,20,-3,226,0
957848,18,-2,224,0
957859,19,-5,226,0
957870,20,-4,228,0
957881,24,-2,231,0
957893,27,-1,229,0
957903,29,1,233,0
957914,32,5,236,0
957925,34,6,239,0
957936,33,10,238,0
957947,31,6,240,0
957958,29,8,235,0
957969,23,10,231,0
957980,20,13,234,0
957992,18,16,233,0
958003,15,17,234,0
958013,14,14,235,0
958024,15,15,232,0
958035,13,17,230,0
958046,12,18,229,0
958057,12,22,228,0
958068,13,24,225,0
958079,14,24,225,0
958091,12,27,223,0
958101,7,26,219,0
958112,4,25,216,0
958123,7,16,215,0
958134,23,-33,245,0
958145,33,-22,243,0
958156,34,-21,232,0
958167,34,-41,221,0
958179,24,-57,228,1
958189,19,-46,234,0
958200,23,-15,234,0
958211,24,5,238,0
958222,23,15,244,0
958233,25,24,256,0
958244,32,20,260,0
958255,42,17,262,0
958266,46,17,258,0
958278,38,13,250,0
958288,32,-3,235,0
958299,58,-17,214,0
958311,67,-19,204,0
958321,74,-14,198,0
958332,78,-11,196,0
958343,72,-9,198,0
958354,66,-16,200,0
958365,63,-20,207,0
958376,59,-22,210,0
958387,51,-26,214,0
958398,46,-27,209,0
958409,43,-19,211,0
958420,42,-14,209,0
958431,44,-14,208,0
958442,47,-13,215,0
958453,53,-11,226,0
958464,64,3,236,0
958475,65,3,240,0
958486,65,3,245,0
958497,61,2,251,0
958508,53,1,248,0
958519,42,0,244,0
958530,29,-8,243,0
958541,20,-9,244,0
958553,12,-2,237,0
958563,3,-5,236,0
958574,0,-13,240,0
958585,0,-17,238,0
958596,0,-21,237,0
958607,-3,-24,241,0
958618,-7,-24,244,0
958629,-8,-24,250,0
958640,-4,-21,252,0
958651,0,-21,251,0
958662,2,-17,252,0
958673,5,-16,248,0
958684,8,-15,242,0
958695,10,-14,235,0
958706,13,-17,230,0
958717,13,-17,222,0
958728,14,-16,217,0
958739,13,-16,214,0
958750,14,-18,212,0
958761,16,-18,213,0
958772,19,-16,215,0
958783,21,-15,217,0
958794,22,-18,221,0
958805,24,-18,223,0
958816,27,-16,226,0
958828,28,-16,227,0
958838,30,-19,230,0
958849,32,-21,232,0
958860,32,-20,230,0
958872,31,-17,229,0
958882,29,-19,230,0
958893,29,-20,230,0
958904,31,-19,231,0
958916,30,-18,234,0
958926,30,-19,236,0
958937,29,-18,237,0
958948,29,-18,237,0
958959,30,-21,232,0
958970,30,-21,231,0
958981,31,-22,229,0
958993,32,-24,228,0
959003,31,-23,226,0
959014,30,-24,226,0
959025,30,-23,223,0
959036,29,-23,226,0
959047,29,-23,224,0
959058,29,-22,223,0
959069,30,-21,224,0
959080,32,-20,225,0
959092,33,-19,224,0
959103,34,-19,225,0
959113,35,-21,226,0
959124,40,-21,229,0
959135,42,-19,225,0
959146,43,-20,225,0
959157,45,-22,226,0
959168,47,-23,225,0
959179,48,-24,223,0
959191,47,-25,224,0
959201,47,-25,224,0
959212,47,-25,225,0
959223,47,-25,226,0
959234,46,-23,227,0
959245,47,-22,227,0
959256,46,-20,225,0
959267,47,-20,226,0
959278,46,-20,227,0
959289,46,-22,225,0
959300,44,-21,223,0
959311,45,-22,224,0
959322,44,-20,222,0
959333,45,-20,222,0
959344,46,-20,224,0
959355,48,-20,227,0
959366,48,-21,227,0
959378,47,-23,228,0
959388,49,-25,230,0
959399,49,-22,230,0
959411,51,-22,229,0
959421,53,-22,228,0
959432,55,-22,227,0
959443,57,-21,227,0
959454,62,-23,227,0
959465,64,-22,226,0
959476,63,-21,229,0
959487,63,-20,228,0
959498,61,-14,229,0
959509,60,-7,227,0
959520,58,-4,227,0
959531,56,-10,230,0
959542,56,-14,233,0
959553,52,-14,235,0
959564,44,-12,239,0
959575,39,-9,236,0
959586,36,-9,235,0
959597,33,-14,236,0
959608,27,-18,226,0
959619,23,-15,197,0
959630,21,-17,192,0
959641,6,-20,195,0
959653,-4,-20,204,0
959663,-4,-24,213,0
959674,3,-31,217,0
959685,14,-33,214,0
959696,26,-34,216,0
959707,39,-34,217,0
959718,54,-31,223,0
959729,64,-40,230,0
959740,73,-39,227,0
959751,80,-37,218,0
959762,85,-39,217,0
959773,85,-38,215,0
959784,82,-39,209,0
959795,81,-33,211,0
959807,78,-25,222,1
959817,78,-9,245,0
959828,71,5,276,0
959839,65,12,301,0
959850,56,22,320,0
959861,47,22,319,0
959872,40,11,302,0
959883,41,-13,269,0
959894,49,-38,234,0
959905,60,-48,205,0
959917,71,-48,194,0
959928,78,-47,193,0
959938,79,-35,196,0
959949,73,-25,214,0
959960,74,-20,219,0
959971,69,-13,226,0
959982,66,-22,231,0
959993,67,-27,231,0
960004,73,-21,221,0
960015,76,-21,214,0
960026,76,-19,219,0
960037,75,-19,222,0
960048,72,-23,221,0
960059,70,-28,217,0
960070,66,-22,210,0
960081,66,-25,202,0
960093,64,-24,196,0
960103,62,-26,196,0
960114,59,-35,204,0
960125,59,-34,207,0
960136,55,-20,216,0
960148,57,-7,223,0
960158,56,6,229,0
960169,51,20,233,0
960180,47,36,237,0
960192,48,33,233,0
960203,49,26,232,0
960213,52,15,231,0
960224,57,11,225,0
960235,63,13,223,0
960246,69,17,223,0
960257,72,20,224,0
960268,73,22,226,0
960279,60,27,232,0
960291,54,23,235,0
960301,49,19,236,0
960312,42,22,237,0
960323,38,25,239,0
960334,33,27,238,0
960345,29,23,236,0
960356,23,25,234,0
960367,16,23,237,0
960378,15,18,235,0
960389,11,18,239,0
960400,8,16,235,0
960411,8,11,235,0
960422,8,5,232,0
960433,4,3,229,0
960444,6,-3,228,0
960455,10,-7,229,0
960466,11,-7,230,0
960478,9,-6,232,0
960488,5,-8,230,0
960499,6,-6,231,0
960511,3,-6,233,0
960521,2,-4,236,0
960532,0,-3,235,0
960543,-1,-5,231,0
960554,-1,-4,228,0
960565,-2,-2,224,0
960576,-6,-1,224,0
960587,-8,1,226,0
960598,-10,2,228,0
960609,-15,2,229,0
960620,-20,2,231,0
960631,-24,7,231,0
960642,-28,8,230,0
960653,-29,8,232,0
960664,-33,7,230,0
960675,-35,6,230,0
960686,-35,6,229,0
960697,-32,1,227,0
960708,-30,1,225,0
960719,-24,1,225,0
960730,-17,2,223,0
960741,-12,4,226,0
960753,-7,7,227,0
960763,-2,8,228,0
960776,-1,9,227,0
960786,-1,3,226,0
960797,-3,3,224,0
960808,-6,2,224,0
960819,-8,4,226,0
960830,-5,2,228,0
960841,-7,3,229,0
960853,-8,3,230,0
960863,-8,0,233,0
960874,-7,-3,234,0
960885,-5,-2,237,0
960896,-3,2,237,0
960907,-5,3,237,0
960918,-3,7,231,0
960929,16,17,215,0
960940,29,15,233,0
960951,14,-40,260,0
960963,21,-31,247,1
960973,5,-10,234,0
960984,-3,-13,244,0
960995,2,-5,265,0
961006,6,-11,283,0
961017,14,-13,289,0
961028,23,-4,287,0
961039,31,0,281,0
961050,45,4,285,0
961061,59,11,278,0
961072,67,20,271,0
961083,79,27,246,0
961094,83,20,226,0
961105,86,9,210,0
961116,89,1,196,0
961128,90,-5,184,0
961138,95,-10,177,0
961149,97,-11,167,0
961160,96,-14,162,0
961172,91,-11,161,0
961182,86,-7,168,0
961193,80,-2,180,0
961204,70,1,191,0
961215,62,3,207,0
961226,61,7,224,0
961237,63,13,240,0
961248,54,20,253,0
961259,40,24,259,0
961270,26,28,270,0
961281,15,27,277,0
961293,6,24,276,0
961303,1,20,271,0
961314,-1,9,261,0
961325,-2,4,251,0
961336,-1,0,237,0
961347,4,-3,234,0
961358,12,-2,230,0
961369,18,-3,223,0
961380,25,-1,218,0
961392,31,-1,212,0
961403,32,1,208,0
961413,24,3,215,0
961424,17,2,216,0
961435,12,1,211,0
961446,8,0,206,0
961457,3,0,204,0
961468,1,0,204,0
961479,0,-1,203,0
961491,-1,-1,205,0
961501,-5,0,205,0
961512,-7,-1,203,0
961523,-2,0,211,0
961534,-12,-2,207,0
961545,-17,0,211,0
961556,-19,0,214,0
961567,-21,-2,218,0
961578,-22,-2,224,0
961589,-23,-1,226,0
961600,-21,0,229,0
961611,-22,0,233,0
961622,-20,0,240,0
961633,-18,-1,247,0
961644,-12,-5,247,0
961655,-9,-9,237,0
961666,-13,-10,234,0
961678,-17,-12,228,0
961688,-17,-17,230,0
961700,9,-25,253,1
961711,68,-27,331,0
961721,98,25,370,0
961732,116,33,397,0
961743,128,-1,382,0
961754,116,3,365,0
961765,73,-14,304,0
961776,34,-31,230,0
961787,7,-41,191,0
961798,-36,-18,132,0
961809,-22,-155,209,0
961820,11,-47,127,0
961831,21,-38,152,0
961843,50,-58,155,1
961854,64,-20,170,0
961864,82,-17,182,0
961875,92,0,192,0
961886,98,0,196,0
961897,98,7,206,0
961908,107,2,209,0
961919,104,-1,206,0
961930,101,-4,200,0
961941,99,-5,204,0
961953,98,-5,213,0
961963,93,2,218,0
961974,86,-1,219,0
961985,78,0,215,0
961996,71,0,213,0
962007,63,-4,209,0
962018,53,-3,207,0
962029,45,-1,210,0
962040,43,0,219,0
962051,38,-1,224,0
962062,30,1,230,0
962073,23,0,229,0
962084,8,-3,222,0
962095,3,-4,220,0
962106,0,-6,219,0
962117,-4,-7,215,0
962128,-2,-2,219,0
962139,-8,0,219,0
962150,-9,1,222,0
962161,-11,4,226,0
962172,-10,6,224,0
962183,-10,9,224,0
962194,-8,12,225,0
962205,-11,13,225,0
962216,-15,16,227,0
962228,-12,15,227,0
962238,-8,14,227,0
962249,0,16,233,0
962260,6,9,226,0
962271,14,1,215,0
962282,20,-7,209,0
962293,22,-14,208,0
962304,23,-19,208,0
962315,24,-18,209,0
962326,28,-11,213,0
962337,29,-3,217,0
962348,27,3,220,0
962359,20,8,220,0
962370,8,14,216,0
962381,-1,14,216,0
962393,-9,13,219,0
962403,5,21,211,0
962414,2,-21,265,0
962426,-7,-18,269,1
962436,-22,-6,273,0
962447,-29,4,302,0
962458,-27,-1,320,0
962469,-15,-5,327,0
962480,0,-6,338,0
962492,10,-2,344,0
962503,35,4,339,0
962513,64,20,323,0
962524,85,28,305,0
962535,99,29,278,0
962546,111,24,248,0
962557,120,15,210,0
962568,127,4,179,0
962579,126,-17,135,0
962591,121,-26,122,0
962601,110,-29,121,0
962612,97,-31,130,0
962623,82,-30,150,0
962634,71,-30,170,0
962645,65,-25,185,0
962656,55,-12,201,0
962667,46,-4,227,0
962678,42,1,248,0
962689,48,2,266,0
962700,46,5,275,0
962711,40,3,273,0
962722,38,3,266,0
962733,35,4,262,0
962744,27,1,244,0
962755,22,0,233,0
962766,17,-8,217,0
962778,12,-5,213,0
962788,10,0,215,0
962799,8,2,218,0
962811,7,3,221,0
962821,5,6,221,0
962832,2,5,223,0
962843,0,1,219,0
962854,-2,-1,213,0
962865,-4,-2,209,0
962876,-7,-5,206,0
962887,-11,-5,203,0
962898,-13,-6,201,0
962909,-13,-9,195,0
962920,-11,-11,193,0
962931,-9,-13,194,0
962942,-12,-16,194,0
962953,-10,-15,205,0
962964,-8,-15,216,0
962975,-2,-12,207,0
962986,-1,12,199,0
962997,-18,22,215,0
963008,-30,10,237,0
963019,-29,0,242,0
963030,-30,3,236,0
963041,-32,21,246,0
963053,-46,47,256,0
963063,-62,23,259,0
963074,-69,3,261,0
963085,-69,12,258,0
963096,-71,8,257,0
963108,-44,-10,283,1
963118,14,-22,383,0
963129,30,21,371,0
963140,35,11,370,0
963151,36,-4,332,0
963162,33,1,286,0
963173,61,-1,306,0
963184,103,-23,326,0
963195,76,-10,294,0
963206,61,-16,247,0
963217,55,-38,202,0
963228,52,-39,175,0
963239,51,-45,147,0
963250,47,-35,150,0
963261,43,-30,154,0
963272,35,-24,168,0
963283,36,-20,182,0
963294,43,-12,197,0
963305,52,-9,209,0
963316,62,-6,218,0
963328,69,-12,223,0
963338,77,-12,225,0
963349,81,-12,223,0
963360,83,-4,218,0
963371,84,-6,212,0
963382,71,-7,205,0
963393,63,-8,204,0
963404,59,-2,214,0
963416,55,0,217,0
963426,50,0,219,0
963437,46,0,218,0
963448,37,-1,220,0
963459,26,0,219,0
963470,19,1,222,0
963481,12,0,219,0
963493,6,-1,214,0
963503,3,-2,214,0
963514,2,-4,212,0
963525,0,-4,215,0
963536,-3,-2,220,0
963547,-12,-3,221,0
963558,-16,-5,231,0
963569,-14,-2,235,0
963580,-9,1,234,0
963592,-3,1,227,0
963603,-2,2,225,0
963613,0,0,223,0
963624,4,-1,219,0
963635,7,-6,215,0
963646,11,-9,217,0
963657,15,-8,216,0
963668,16,-4,219,0
963679,19,-5,220,0
963691,20,-3,221,0
963701,23,-3,221,0
963712,25,0,221,0
963724,27,3,219,0
963734,24,2,221,0
963745,20,3,221,0
963756,13,5,222,0
963767,5,10,223,0
963778,-4,11,227,0
963789,-12,7,234,0
963800,-19,5,238,0
963811,-25,4,243,0
963822,-35,3,247,0
963833,-42,4,249,0
963844,-48,7,243,0
963855,-33,6,230,0
963866,-7,6,241,0
963878,-17,-34,277,1
963888,-11,-29,261,0
963899,-25,-4,246,0
963911,-18,-5,272,0
963921,-10,-4,285,0
963932,2,1,276,0
963943,3,11,289,0
963954,29,23,298,0
963965,61,36,292,0
963976,95,34,277,0
963987,126,36,263,0
963998,146,27,242,0
964010,154,13,206,1
964020,149,9,177,0
964031,135,2,153,0
964042,122,-7,147,0
964053,109,-6,154,0
964064,69,6,193,0
964075,44,4,217,0
964086,27,2,242,0
964097,18,0,264,0
964108,7,3,279,0
964119,7,6,281,0
964130,4,4,279,0
964141,4,6,270,0
964153,8,8,257,0
964163,14,8,241,0
964174,20,3,228,0
964185,23,1,212,0
964196,24,3,211,0
964207,25,3,218,0
964218,28,0,216,0
964229,28,1,211,0
964240,27,2,211,0
964251,26,4,213,0
964262,26,1,206,0
964273,25,0,207,0
964284,21,1,209,0
964295,15,1,207,0
964306,10,4,206,0
964317,6,6,209,0
964328,-1,3,211,0
964340,-6,-2,213,0
964350,-4,5,211,0
964361,-14,19,216,0
964372,-26,17,222,0
964383,-16,5,228,0
964394,-1,13,210,0
964405,-12,47,193,0
964417,-19,32,208,0
964428,-6,12,223,0
964438,-9,16,221,0
964449,-16,11,230,0
964460,-17,8,242,0
964471,-12,6,239,0
964482,-13,15,244,0
964493,-15,3,258,0
964504,-3,4,260,0
964515,2,16,258,0
964526,-1,16,260,0
964537,33,21,297,0
964549,35,60,366,0
964559,58,31,366,0
964570,55,28,321,0
964581,37,14,288,0
964593,33,10,295,1
964603,20,10,298,0
964614,15,-13,252,0
964625,13,-45,216,0
964637,20,-60,194,0
964648,28,-62,172,0
964659,36,-62,162,0
964670,39,-51,164,0
964681,45,-37,167,0
964693,44,-17,176,0
964703,44,10,190,0
964714,41,24,196,0
964725,44,33,205,0
964736,50,33,218,0
964747,51,27,222,0
964758,55,15,221,0
964769,60,10,216,0
964780,66,7,213,0
964792,65,7,219,0
964803,66,3,215,0
964813,60,2,210,0
964824,53,-2,206,0
964835,42,-3,204,0
964846,37,-2,205,0
964857,33,2,219,0
964868,32,4,224,0
964879,30,3,226,0
964891,27,4,225,0
964901,21,2,224,0
964912,21,3,218,0
964923,22,3,215,0
964934,24,4,210,0
964945,25,5,208,0
964956,26,4,208,0
964967,29,7,208,0
964978,29,9,215,0
964989,30,13,222,0
965000,30,15,227,0
965011,24,23,234,0
965022,20,27,237,0
965033,16,25,236,0
965044,16,22,232,0
965055,14,19,227,0
965066,13,16,227,0
965078,17,16,225,0
965088,21,13,227,0
965099,25,13,227,0
965111,32,8,230,0
965121,40,2,231,0
965132,42,-9,233,0
965143,41,-4,229,0
965154,38,1,231,0
965165,31,5,232,0
965176,28,11,235,0
965187,22,17,237,0
965198,1,20,230,0
965209,-11,23,222,0
965221,-27,26,215,1
965231,-31,26,205,0
965242,-4,36,202,0
965253,-1,18,257,0
965264,0,-10,284,0
965275,-5,8,279,0
965286,-15,24,278,0
965297,-17,24,295,0
965308,-13,18,306,0
965319,-5,12,293,0
965330,2,24,282,0
965341,22,34,285,0
965353,64,29,275,0
965365,119,13,242,0
965375,139,6,227,0
965386,144,-7,199,0
965397,141,-17,178,0
965408,133,-16,168,0
965419,119,-10,167,0
965430,101,-4,171,0
965441,88,-2,183,0
965453,73,0,187,0
965463,57,1,199,0
965474,42,1,219,0
965485,22,3,240,0
965496,16,13,265,0
965507,21,21,295,0
965518,36,19,291,0
965529,45,18,278,0
965540,51,13,262,0
965551,52,6,239,0
965562,46,1,220,0
965573,36,3,215,0
965584,29,7,212,0
965595,30,10,215,0
965606,36,10,220,0
965617,41,8,217,0
965628,49,10,214,0
965639,53,10,207,0
965650,54,7,200,0
965661,51,6,200,0
965672,32,7,203,0
965683,19,8,204,0
965694,8,9,208,0
965705,1,6,210,0
965716,-5,5,218,0
965728,-11,3,214,0
965738,-13,2,216,0
965749,-15,4,222,0
965760,-15,4,225,0
965771,-16,12,231,0
965782,-14,12,227,0
965793,-4,18,221,0
965804,1,18,217,0
965816,1,10,203,0
965826,0,9,208,0
965837,0,0,225,0
965848,2,-2,226,0
965859,1,-1,222,0
965870,-5,1,222,0
965881,-15,3,228,0
965893,-21,2,236,0
965904,-28,4,249,1
965914,-39,7,255,0
965925,-41,6,256,0
965936,-42,11,260,0
965947,1,4,292,0
965958,57,49,389,0
965969,38,98,375,0
965981,38,23,373,0
965991,67,20,328,0
966003,92,-4,345,0
966013,77,6,306,0
966024,59,-3,243,0
966035,41,-37,204,0
966046,34,-38,189,0
966057,31,-47,162,0
966068,35,-44,154,0
966079,37,-39,151,0
966091,39,-23,152,0
966101,39,-18,158,0
966112,40,-12,171,0
966123,46,-11,176,0
966134,60,-4,191,0
966145,77,-4,207,0
966156,90,-1,219,0
966167,96,-3,229,0
966178,89,-4,225,0
966189,75,-13,214,0
966200,59,-14,207,0
966211,42,-12,205,0
966222,28,-5,208,0
966233,25,-2,210,0
966244,28,1,215,0
966255,29,0,217,0
966266,23,3,222,0
966278,19,2,222,0
966288,19,1,221,0
966299,15,-3,218,0
966311,14,-3,215,0
966321,12,-2,214,0
966332,9,-7,210,0
966343,6,-10,210,0
966354,6,-10,214,0
966367,5,-5,223,0
966378,5,-6,225,0
966388,4,-1,228,0
966399,1,3,229,0
966411,-2,8,234,0
966421,-3,12,235,0
966432,-1,14,235,0
966443,0,13,233,0
966454,1,10,226,0
966465,5,4,224,0
966476,9,0,219,0
966487,18,-14,216,0
966498,23,-21,217,0
966509,29,-21,219,0
966520,36,-17,222,0
966531,38,-12,225,0
966542,39,-5,230,0
966553,34,0,232,0
966564,26,2,230,0
966575,17,5,227,0
966586,7,5,222,0
966597,2,3,218,0
966609,-1,6,220,1
966619,-10,12,225,0
966630,-15,13,231,0
966641,-17,12,235,0
966653,12,8,249,0
966663,1,-31,276,0
966674,-1,-22,267,0
966685,-19,0,262,0
966696,-42,4,268,0
966707,-38,20,276,0
966718,-24,16,283,0
966729,-8,-8,282,0
966740,7,-12,278,0
966751,19,7,279,0
966762,37,8,282,0
966773,70,8,281,0
966784,104,14,268,0
966795,125,15,252,0
966806,137,7,228,0
966817,129,-17,169,0
966828,118,-27,144,0
966839,103,-31,139,0
966850,85,-31,147,0
966861,68,-23,172,0
966872,55,-20,192,0
966883,48,-13,211,0
966894,37,-1,237,0
966905,25,6,257,0
966917,7,16,283,0
966928,1,18,296,0
966938,-1,25,300,0
966949,1,22,291,0
966960,4,13,272,0
966971,7,5,253,0
966982,6,-7,229,0
966994,6,-4,223,0
967004,10,-1,217,0
967015,17,-1,213,0
967026,21,2,210,0
967037,24,5,213,0
967048,28,9,213,0
967059,28,11,207,0
967070,26,12,209,0
967081,25,10,208,0
967093,22,7,206,0
967103,19,4,207,0
967114,18,2,206,0
967125,17,3,206,0
967136,14,2,203,0
967147,2,0,203,0
967158,-2,-1,202,0
967169,-8,0,205,0
967180,-16,0,208,0
967192,-22,0,209,0
967203,-27,1,214,0
967213,-29,2,220,0
967224,-33,6,225,0
967235,-30,3,229,0
967246,-27,4,232,0
967257,-21,4,234,0
967268,-13,14,250,0
967279,-17,32,246,0
967291,-22,18,256,0
967301,-17,-5,259,0
967312,2,-15,246,0
967324,6,-5,240,0
967334,8,-4,247,0
967346,47,-20,293,1
967356,81,17,374,0
967367,69,47,361,0
967378,81,6,355,0
967389,85,-4,329,0
967400,68,-5,288,0
967411,67,-25,288,0
967422,73,-13,308,0
967434,44,10,292,0
967445,13,-7,257,0
967456,3,-44,178,0
967467,5,-54,161,0
967478,13,-45,152,0
967489,26,-49,165,0
967500,41,-35,172,0
967511,46,-19,179,0
967522,58,-8,182,0
967533,65,6,191,0
967544,69,11,200,0
967555,71,15,213,0
967566,67,15,224,0
967578,63,9,225,0
967588,58,4,220,0
967599,55,2,219,0
967611,50,0,217,0
967621,48,-1,205,0
967632,47,0,207,0
967643,40,-6,213,0
967654,38,2,217,0
967666,44,3,225,0
967676,42,4,224,0
967687,38,3,225,0
967698,39,1,224,0
967709,37,4,225,0
967720,30,1,230,0
967731,27,-1,225,0
967742,22,-3,222,0
967753,19,-8,218,0
967764,18,-11,211,0
967775,15,-11,212,0
967786,10,-14,213,0
967797,10,-12,216,0
967808,6,-4,221,0
967819,2,-1,229,0
967830,0,2,234,0
967841,-2,4,238,0
967853,-2,2,233,0
967863,-2,2,229,0
967874,-4,3,226,0
967885,-4,6,224,0
967896,-1,6,223,0
967907,1,3,219,0
967918,5,2,218,0
967929,9,0,218,0
967940,13,-1,220,0
967951,17,-5,220,0
967962,21,-7,223,0
967973,23,-8,225,0
967984,24,-4,226,0
967995,25,-1,226,0
968006,27,-2,228,0
968017,26,-2,228,0
968028,23,0,227,0
968039,17,0,225,0
968051,7,2,221,0
968062,-1,7,217,0
968073,-11,12,217,0
968085,-14,11,218,1
968095,2,4,212,0
968106,9,-45,261,0
968117,0,-22,254,0
968128,-23,-9,254,0
968140,-31,-1,269,0
968151,-23,-12,284,0
968162,-17,-21,283,0
968173,-13,-10,288,0
968184,-5,8,299,0
968195,12,23,303,0
968206,39,34,302,0
968217,70,40,289,0
968228,90,41,280,0
968239,111,43,261,0
968250,133,13,204,0
968261,127,-1,178,0
968272,113,-22,150,0
968283,99,-34,136,0
968294,77,-34,132,0
968305,61,-33,138,0
968316,46,-28,155,0
968328,33,-23,174,0
968338,26,-19,195,0
968350,20,-1,221,0
968361,11,7,247,0
968372,3,15,269,0
968383,3,22,288,0
968394,8,21,294,0
968405,18,12,283,0
968417,20,2,271,0
968428,23,-4,257,0
968438,29,-5,242,0
968449,32,-5,227,0
968460,35,-8,213,0
968471,35,-1,206,0
968482,35,3,207,0
968493,36,8,214,0
968504,36,12,219,0
968515,34,11,223,0
968526,26,11,227,0
968537,22,13,228,0
968548,17,17,225,0
968559,12,18,220,0
968570,6,21,213,0
968581,3,25,213,0
968593,2,26,211,0
968603,3,25,212,0
968614,1,21,213,0
968625,4,18,222,0
968636,10,29,225,0
968647,8,36,218,0
968658,6,37,216,0
968669,8,40,214,0
968680,13,43,210,0
968692,16,44,202,0
968703,13,42,198,0
968713,13,43,201,0
968724,12,37,211,0
968736,14,31,229,0
968746,13,29,230,0
968757,11,23,228,0
968768,16,15,230,0
968779,16,21,231,0
968791,21,21,229,0
968801,24,18,232,0
968812,31,20,238,0
968823,38,17,249,0
968834,45,17,257,0
968845,52,21,260,0
968856,58,28,264,0
968868,84,42,281,1
968878,101,77,330,0
968889,75,88,328,0
968900,118,59,315,0
968912,113,47,301,0
968922,95,31,293,0
968933,73,33,268,0
968944,46,50,224,0
968955,25,47,199,0
968966,13,13,192,0
968978,17,-9,182,0
968988,34,-15,190,0
968999,52,-11,196,0
969011,62,5,201,0
969021,63,17,199,0
969032,66,25,193,0
969043,66,29,186,0
969054,71,37,176,0
969065,89,49,190,0
969076,97,57,210,0
969087,103,62,224,0
969098,107,63,227,0
969109,112,56,225,0
969120,114,43,221,0
969131,110,28,213,0
969142,100,27,207,0
969153,81,22,201,0
969164,71,25,205,0
969175,64,38,210,0
969186,60,41,218,0
969197,56,43,225,0
969208,54,42,230,0
969219,53,43,226,0
969230,52,44,224,0
969241,51,39,224,0
969253,50,38,225,0
969263,51,41,219,0
969274,53,38,215,0
969285,56,37,212,0
969296,62,38,210,0
969307,66,39,213,0
969318,70,40,216,0
969329,77,42,219,0
969340,82,39,222,0
969351,84,35,224,0
969362,86,33,226,0
969373,86,32,223,0
969384,81,33,221,0
969395,71,29,219,0
969406,66,30,219,0
969417,63,28,220,0
969428,58,28,220,0
969439,53,27,222,0
969450,52,29,224,0
969461,53,29,225,0
969472,55,29,225,0
969483,60,31,224,0
969494,61,33,224,0
969505,63,33,225,0
969516,64,33,223,0
969528,65,35,222,0
969538,65,35,223,0
969549,66,36,223,0
969560,66,41,222,0
969571,65,40,224,0
969582,65,40,226,0
969593,62,39,226,0
969604,61,42,224,0
969615,58,44,222,0
969626,58,46,221,0
969637,55,47,223,0
969648,53,51,225,0
969659,50,50,226,0
969670,50,51,226,0
969681,47,50,225,0
969693,46,51,225,0
969703,44,53,225,0
969714,43,54,225,0
969725,38,56,223,0
969736,38,53,223,0
969747,40,54,225,0
969758,41,57,224,0
969769,41,62,223,0
969780,42,63,224,0
969792,44,67,224,0
969803,42,70,224,0
969813,39,68,222,0
969824,40,63,223,0
969835,45,58,217,0
969847,56,54,213,1
969857,67,49,217,0
969868,76,44,217,0
969879,81,43,215,0
969891,64,40,210,0
969901,63,49,213,0
969912,65,52,218,0
969923,67,50,219,0
969934,68,45,211,0
969945,67,41,201,0
969956,69,35,196,0
969967,72,33,194,0
969978,74,31,194,0
969989,88,29,194,0
970000,104,36,198,0
970011,119,45,206,0
970022,129,48,213,0
970033,138,40,221,0
970044,140,36,238,0
970055,124,8,253,0
970066,101,0,258,0
970078,75,-10,257,0
970088,54,-18,260,0
970099,33,-19,266,0
970111,15,-13,275,0
970121,8,-9,277,0
970132,8,-6,281,0
970143,13,-4,288,0
970154,30,1,291,0
970165,48,2,285,0
970176,63,0,273,0
970187,79,-5,261,0
970198,85,-7,248,0
970209,85,-17,228,0
970220,78,-29,201,0
970231,70,-28,193,0
970242,63,-23,192,0
970253,57,-16,193,0
970264,56,-13,191,0
970275,48,-7,192,0
970286,46,-2,191,0
970297,45,3,199,0
970308,47,6,199,0
970319,46,7,202,0
970330,43,8,209,0
970341,39,9,214,0
970353,35,5,214,0
970364,23,7,213,0
970374,14,11,213,0
970385,7,15,224,0
970396,0,16,216,0
970407,-4,18,217,0
970418,-10,21,217,0
970429,-10,22,216,0
970440,-11,22,213,0
970451,-13,27,213,0
970462,-15,30,216,0
970473,-15,34,221,0
970484,-14,36,223,0
970495,-14,36,227,0
970506,-14,36,231,0
970517,-14,34,234,0
970528,-13,32,236,0
970539,-17,29,236,0
970550,-12,18,234,0
970561,-7,18,235,0
970572,-5,18,237,0
970583,-1,11,239,0
970594,4,20,243,0
970605,2,24,243,0
970616,-2,24,246,0
970628,-2,30,252,0
970638,-4,33,253,0
970649,-1,31,253,0
970660,1,32,264,0
970671,18,28,280,0
970684,86,23,365,1
970695,61,53,373,0
970705,73,12,314,0
970716,66,29,286,0
970728,51,15,285,0
970738,61,-15,291,0
970749,51,-20,279,0
970760,55,-18,257,0
970771,50,-38,223,0
970782,39,14,172,0
970793,64,-99,190,0
970804,60,-3,152,0
970815,62,-56,130,0
970826,54,-21,134,0
970837,51,-23,144,0
970848,49,-6,170,0
970859,59,-5,205,0
970870,67,-10,210,0
970881,81,-14,209,0
970893,91,-13,215,0
970903,94,-18,214,0
970914,96,-20,208,0
970925,91,-21,201,0
970936,80,-23,198,0
970947,70,-23,193,0
970958,64,-20,196,0
970969,61,-16,200,0
970980,52,-12,205,0
970992,46,-9,212,0
971003,45,-1,215,0
971013,43,0,214,0
971024,32,-2,216,0
971035,28,-1,215,0
971047,27,-1,215,0
971058,30,-1,212,0
971069,29,-3,209,0
971080,31,-6,208,0
971092,31,-6,208,0
971103,31,-3,213,0
971113,27,-3,221,0
971124,24,-1,227,0
971135,18,0,228,0
971146,16,1,229,0
971157,15,1,231,0
971168,9,1,230,0
971180,5,-2,222,0
971191,6,-1,218,0
971201,10,-3,221,0
971212,15,-7,220,0
971223,21,-10,217,0
971234,24,-12,213,0
971245,28,-11,213,0
971256,32,-11,213,0
971267,32,-9,212,0
971278,32,-2,216,0
971289,30,3,221,0
971300,26,8,224,0
971311,16,8,228,0
971322,2,3,228,0
971334,-25,7,233,0
971344,-24,14,230,0
971356,-8,24,246,1
971366,-17,-26,291,0
971378,-21,-27,286,0
971388,-37,-4,283,0
971399,-49,-12,291,0
971411,-39,9,294,0
971421,-26,29,298,0
971432,-6,13,309,0
971443,10,5,311,0
971454,29,17,304,0
971465,59,26,294,0
971476,90,33,279,0
971487,108,33,255,0
971498,122,20,227,0
971510,143,-5,171,0
971521,136,-14,152,0
971532,124,-17,143,0
971543,118,-23,152,0
971554,98,-14,172,0
971565,78,-9,187,0
971576,64,1,203,0
971587,42,6,228,0
971598,26,13,257,0
971609,15,15,279,0
971620,5,18,287,0
971631,0,21,288,0
971642,1,17,280,0
971653,3,8,247,0
971664,5,4,232,0
971675,4,-1,215,0
971686,1,-3,207,0
971697,2,0,208,0
971708,10,-1,205,0
971719,16,-2,203,0
971730,24,-1,203,0
971741,31,2,208,0
971753,36,4,210,0
971763,40,4,210,0
971774,44,4,212,0
971785,42,1,205,0
971797,39,-2,204,0
971807,36,-7,208,0
971818,28,-14,202,0
971829,22,-11,194,0
971840,15,-8,190,0
971851,7,-9,187,0
971862,1,-9,189,0
971873,-3,-8,190,0
971884,-7,-7,196,0
971895,-10,-3,204,0
971906,-13,0,213,0
971917,-15,1,219,0
971928,-17,8,229,0
971939,-20,14,240,0
971950,-24,20,250,0
971961,-27,18,255,0
971973,-29,10,259,0
971983,-21,-4,258,0
971994,-17,-5,251,0
972005,-15,-5,252,0
972016,-14,-3,258,0
972028,-13,-1,260,0
972038,-15,3,260,0
972049,-10,4,269,0
972060,32,-11,318,0
972071,63,33,382,0
972082,56,48,363,0
972093,78,-1,348,0
972104,78,-4,324,0
972115,67,-9,314,0
972128,74,-3,318,1
972138,45,-1,244,0
972149,26,-29,206,0
972160,9,-39,183,0
972171,11,-38,158,0
972182,14,-49,147,0
972193,30,-49,143,0
972204,41,-43,151,0
972215,45,-28,155,0
972226,45,-17,167,0
972237,48,-12,185,0
972248,58,-9,206,0
972259,69,-5,224,0
972270,75,-4,231,0
972281,78,-6,230,0
972293,84,-12,226,0
972303,84,-24,207,0
972314,78,-15,212,0
972325,72,-12,201,0
972336,66,-17,196,0
972347,64,-13,199,0
972358,64,-8,199,0
972369,61,-3,210,0
972380,58,1,217,0
972392,50,1,219,0
972403,46,2,220,0
972413,40,5,221,0
972425,30,2,221,0
972436,24,1,218,0
972447,16,3,219,0
972458,11,3,218,0
972469,9,5,217,0
972480,7,5,217,0
972492,4,6,219,0
972503,2,6,226,0
972513,3,7,232,0
972524,3,9,235,0
972535,2,9,236,0
972546,4,8,235,0
972557,3,7,233,0
972568,5,7,230,0
972579,4,4,226,0
972591,3,3,224,0
972601,3,2,224,0
972612,7,-1,218,0
972623,9,-1,214,0
972634,12,-1,214,0
972645,13,-1,216,0
972656,15,1,216,0
972667,17,1,218,0
972678,16,0,216,0
972689,15,-6,216,0
972700,13,-9,215,0
972712,6,-12,213,0
972723,0,-16,214,0
972734,-8,-16,218,0
972745,-19,-17,223,0
972756,-32,-21,222,0
972767,-47,-13,224,0
972778,-23,5,213,0
972789,-20,-1,252,0
972800,-32,-52,280,0
972812,-11,-16,269,1
972823,-18,-4,259,0
972833,-6,-4,266,0
972844,-2,-1,285,0
972855,13,-22,299,0
972866,35,-30,309,0
972878,55,-8,322,0
972888,90,17,333,0
972899,118,31,319,0
972911,134,41,295,0
972921,151,31,266,0
972932,150,11,194,0
972943,138,6,173,0
972954,123,1,161,0
972965,107,0,166,0
972976,88,-4,183,0
972987,67,-2,196,0
972998,43,-3,204,0
973009,24,6,225,0
973020,2,18,237,0
973031,-19,28,252,0
973042,-18,28,272,0
973053,-11,17,268,0
973064,0,15,262,0
973075,13,6,256,0
973086,23,2,245,0
973097,25,6,217,0
973108,30,9,208,0
973119,33,10,203,0
973130,35,3,200,0
973141,41,0,194,0
973153,46,-2,196,0
973163,48,-2,195,0
973174,48,-4,199,0
973185,43,-6,200,0
973197,37,-7,201,0
973208,31,-9,204,0
973219,25,-10,207,0
973230,20,-9,210,0
973241,15,-10,212,0
973253,3,-12,206,0
973263,1,-13,209,0
973274,-1,-15,203,0
973285,-4,-15,200,0
973296,-5,-12,200,0
973307,-8,-9,201,0
973318,-8,-4,207,0
973329,-11,0,215,0
973340,-13,1,221,0
973351,-16,2,229,0
973362,-15,5,236,0
973373,-16,10,243,0
973384,-19,10,253,0
973395,-22,7,255,0
973406,-25,2,257,0
973417,-24,-8,247,0
973428,-25,-5,242,0
973439,-28,-4,241,0
973450,-26,-3,246,0
973461,-24,-1,252,0
973472,-27,0,252,0
973483,-28,3,248,0
973494,-10,-2,253,0
973505,58,-27,316,0
973516,90,-6,397,0
973528,106,19,385,0
973539,125,-3,349,1
973549,123,-6,322,0
973560,128,1,300,0
973571,103,-2,252,0
973582,57,-29,189,0
973593,52,-39,178,0
973604,47,-40,162,0
973615,46,-41,159,0
973626,49,-32,167,0
973637,50,-34,170,0
973648,53,79,149,0
973659,59,-92,179,0
973670,58,11,187,0
973681,73,-22,200,0
973693,90,-18,209,1
973703,118,-15,215,0
973714,139,-24,219,0
973725,152,-15,216,0
973736,134,-16,209,0
973747,119,-8,202,0
973758,102,0,196,0
973769,90,11,198,0
973780,78,11,202,0
973792,66,21,211,0
973803,59,19,222,0
973813,49,12,232,0
973824,36,12,230,0
973835,23,12,228,0
973846,19,6,225,0
973857,12,7,218,0
973868,9,7,214,0
973879,12,6,218,0
973891,22,3,221,0
973901,27,3,228,0
973912,33,7,239,0
973923,30,10,239,0
973934,26,8,237,0
973945,22,10,234,0
973956,17,15,231,0
973967,17,13,225,0
973978,12,16,222,0
973989,4,18,219,0
974000,-3,15,225,0
974011,-9,13,224,0
974022,-15,12,225,0
974034,-19,10,227,0
974044,-19,8,226,0
974055,-22,6,225,0
974066,-23,5,225,0
974078,-23,-1,220,0
974088,-22,0,222,0
974099,-22,3,232,0
974111,-24,1,239,0
974121,-25,-6,239,0
974132,-28,-11,238,0
974143,-35,-12,234,0
974154,-41,-10,232,0
974165,-51,-7,231,0
974176,-55,-9,229,0
974187,-56,-7,228,0
974198,-46,-2,226,0
974209,-20,5,225,0
974220,-34,-48,253,0
974232,-18,-20,249,1
974242,-21,-5,260,0
974253,-2,18,285,0
974264,15,17,308,0
974275,43,2,320,0
974286,72,8,326,0
974297,95,15,314,0
974308,125,21,294,0
974319,146,33,260,0
974330,156,30,226,0
974341,158,25,190,0
974353,155,17,164,0
974363,144,13,153,0
974374,129,9,153,0
974385,106,8,170,0
974396,57,10,192,0
974407,33,11,209,0
974418,13,9,219,0
974429,-2,11,237,0
974440,-6,15,262,0
974451,-2,12,266,0
974462,0,10,261,0
974473,0,12,257,0
974484,4,11,255,0
974495,9,5,248,0
974506,17,1,239,0
974517,24,1,229,0
974528,25,0,217,0
974539,28,-5,213,0
974550,27,-3,211,0
974561,20,-2,206,0
974572,11,-7,206,0
974583,4,-12,208,0
974594,1,-14,212,0
974605,0,-10,211,0
974616,-8,-11,211,0
974628,-10,-13,212,0
974638,-12,-16,210,0
974649,-12,-15,206,0
974660,-13,-17,207,0
974671,-11,-17,201,0
974682,-12,-20,194,0
974693,-10,-17,193,0
974704,-11,-10,200,0
974715,-16,-7,206,0
974726,-23,-9,208,0
974737,-33,3,214,0
974748,-38,4,216,0
974759,-39,4,219,0
974770,-38,4,231,0
974782,-38,2,246,0
974793,-34,-2,253,0
974803,-29,-5,255,0
974814,-24,-10,251,0
974825,-23,-12,242,0
974836,-22,-18,234,0
974847,-19,-8,240,0
974858,-23,0,238,0
974869,-23,-9,250,0
974880,-16,-19,257,0
974892,-12,-16,256,0
974903,9,-16,263,0
974913,53,-26,307,0
974924,76,2,375,0
974935,79,24,345,0
974947,86,-25,310,1
974957,77,-38,281,0
974968,61,-24,280,0
974979,67,-13,308,0
974991,45,31,306,0
975001,47,-13,320,0
975012,39,-33,246,0
975023,20,1,225,0
975034,16,-22,192,0
975045,10,-29,169,0
975056,22,-36,152,0
975067,41,-39,156,0
975079,51,-26,171,1
975090,59,-16,180,0
975100,64,-8,189,0
975111,73,-6,199,0
975122,77,-4,207,0
975133,80,-8,211,0
975144,79,-9,212,0
975155,79,-5,216,0
975166,82,-1,216,0
975178,89,-1,219,0
975188,98,0,218,0
975199,93,0,213,0
975211,83,-2,215,0
975221,73,-3,217,0
975232,63,-1,215,0
975243,62,0,212,0
975254,56,1,215,0
975265,49,5,216,0
975276,41,5,219,0
975287,28,8,221,0
975298,19,11,224,0
975309,8,7,223,0
975320,3,3,224,0
975331,-1,1,221,0
975342,-8,0,221,0
975353,-13,-1,218,0
975364,-18,-1,218,0
975375,-19,1,224,0
975386,-22,4,229,0
975397,-18,4,233,0
975408,-10,1,231,0
975419,-8,3,227,0
975430,-4,4,228,0
975441,-4,3,225,0
975453,-4,3,224,0
975463,-1,3,222,0
975474,1,1,219,0
975485,2,-1,217,0
975496,6,-5,215,0
975508,9,-10,211,0
975518,12,-10,212,0
975529,13,-13,213,0
975540,17,-13,216,0
975551,19,-10,218,0
975562,15,1,219,0
975573,10,7,223,0
975584,3,17,224,0
975595,-1,15,222,0
975606,-8,12,222,0
975617,-16,11,222,0
975629,-19,12,221,1
975639,-12,14,216,0
975650,8,17,226,0
975661,4,-26,264,0
975672,2,-31,273,0
975683,-20,-6,267,0
975694,-37,-9,279,0
975705,-27,14,288,0
975717,0,7,298,0
975728,11,-7,297,0
975739,27,-6,289,0
975750,60,5,299,0
975761,83,21,299,0
975773,99,25,283,1
975783,108,27,259,0
975794,122,20,233,0
975805,123,13,204,0
975816,120,1,177,0
975828,115,-6,154,0
975838,104,-15,137,0
975849,91,-20,135,0
975860,78,-23,148,0
975871,67,-22,166,0
975882,59,-8,205,0
975893,52,3,225,0
975904,42,14,245,0
975916,34,15,262,0
975926,30,17,276,0
975937,26,19,280,0
975948,18,17,280,0
975959,13,14,276,0
975970,9,10,267,0
975981,3,6,258,0
975993,7,4,246,0
976003,6,0,234,0
976014,5,0,226,0
976025,11,5,224,0
976036,16,5,222,0
976047,18,17,222,0
976058,20,21,224,0
976069,13,9,217,0
976080,10,11,219,0
976092,9,7,214,0
976103,5,5,207,0
976113,1,4,204,0
976124,-4,3,205,0
976135,-7,1,201,0
976146,-9,0,196,0
976157,-10,-1,197,0
976168,-8,-3,195,0
976179,-10,-1,193,0
976191,-11,0,203,0
976201,-9,0,208,0
976212,-6,3,218,0
976223,-7,7,224,0
976234,-14,11,225,0
976245,-22,8,231,0
976256,-25,4,237,0
976267,-20,5,242,0
976278,-22,20,253,0
976289,-27,15,260,0
976300,-29,6,255,0
976312,-28,12,257,0
976322,-28,14,253,0
976333,-32,9,251,0
976344,-19,1,261,0
976355,34,-13,344,0
976366,37,40,355,0
976378,56,-17,348,0
976388,50,-21,315,0
976399,32,-16,291,0
976410,56,-18,298,0
976422,63,4,300,1
976432,28,21,265,0
976443,-4,-9,227,0
976454,-9,-27,194,0
976465,-7,-34,169,0
976476,-1,-40,152,0
976487,12,-42,145,0
976499,20,-46,154,0
976509,29,-37,168,0
976520,37,-28,181,0
976532,60,-8,200,0
976542,70,3,211,0
976554,78,10,220,0
976565,84,9,224,0
976576,83,6,226,0
976587,79,0,223,0
976599,76,0,220,0
976609,68,1,219,0
976620,66,-1,214,0
976631,69,-3,210,0
976642,68,-8,205,0
976653,65,-9,204,0
976664,62,-9,206,0
976675,55,-9,208,0
976686,44,0,220,0
976697,36,1,224,0
976708,30,0,225,0
976719,23,2,227,0
976730,19,3,227,0
976741,18,3,227,0
976753,16,0,222,0
976763,14,-1,221,0
976774,11,-1,220,0
976785,12,0,216,0
976796,10,1,215,0
976807,7,2,220,0
976818,6,2,224,0
976829,4,2,225,0
976840,3,4,226,0
976851,2,6,227,0
976862,1,7,229,0
976873,-1,8,228,0
976884,0,8,226,0
976895,2,8,224,0
976906,6,3,221,0
976917,9,3,218,0
976928,12,2,219,0
976939,17,0,220,0
976950,18,-3,218,0
976961,20,-7,217,0
976972,21,-8,218,0
976983,22,-7,217,0
976994,21,-2,220,0
977005,19,1,221,0
977016,17,9,221,0
977028,9,11,222,0
977038,1,12,222,0
977049,-1,14,221,0
977060,-4,18,220,0
977071,6,29,213,0
977082,23,33,232,0
977094,18,-9,267,1
977104,10,-20,272,0
977115,-4,-4,263,0
977126,-9,10,270,0
977137,-6,26,287,0
977149,1,7,302,0
977159,23,-4,298,0
977170,30,-3,297,0
977181,67,7,303,0
977193,84,14,290,0
977203,89,14,270,0
977214,100,14,253,0
977225,106,14,227,0
977236,108,3,197,0
977247,109,-5,172,0
977258,109,-14,149,0
977269,100,-18,134,0
977280,89,-15,135,0
977292,80,-19,141,0
977303,70,-19,161,0
977313,67,-18,180,0
977324,60,-10,198,0
977335,47,0,227,0
977346,24,18,279,0
977357,25,26,299,0
977368,22,24,299,0
977379,14,28,291,0
977391,9,24,275,0
977401,8,20,262,0
977412,4,15,252,0
977423,1,9,243,0
977434,0,8,236,0
977445,3,6,232,0
977456,9,7,230,0
977467,19,8,228,0
977478,30,9,224,0
977489,37,8,217,0
977500,40,7,211,0
977511,39,1,207,0
977522,35,-1,208,0
977533,28,-3,209,0
977544,16,-3,207,0
977556,7,-6,204,0
977566,1,-7,204,0
977578,-3,-9,202,0
977588,-8,-7,202,0
977599,-11,-7,202,0
977610,-13,-5,206,0
977622,-12,-4,205,0
977632,-11,0,206,0
977643,-13,1,213,0
977654,-7,-7,218,0
977665,5,-1,216,0
977676,-6,20,230,0
977687,-8,5,249,0
977699,-1,1,241,0
977709,-1,11,236,0
977720,-9,13,235,0
977731,-15,25,245,0
977742,-27,32,245,0
977753,-34,22,257,0
977764,-33,8,257,0
977775,-35,7,258,0
977786,-43,15,256,0
977797,-41,7,256,0
977808,-4,-4,297,0
977819,48,19,374,0
977830,40,56,340,0
977842,81,-24,311,1
977853,78,-10,269,0
977863,71,-15,274,0
977874,79,-23,309,0
977885,61,-1,296,0
977896,37,18,249,0
977907,39,-12,221,0
977918,36,-37,197,0
977929,29,-25,181,0
977940,48,-38,166,0
977951,57,-38,159,0
977962,61,-32,163,0
977973,68,-26,170,0
977985,73,-20,180,1
977995,77,-8,192,0
978006,85,-3,210,0
978017,89,-3,217,0
978028,89,0,226,0
978039,84,1,228,0
978050,75,4,225,0
978061,67,1,219,0
978072,65,1,209,0
978083,65,0,205,0
978094,67,0,203,0
978106,68,-1,204,0
978116,69,-7,207,0
978128,67,-8,211,0
978138,64,-10,216,0
978149,61,-3,222,0
978160,63,-3,225,0
978171,62,-5,226,0
978182,60,-4,226,0
978193,62,-8,224,0
978204,58,-8,221,0
978215,50,-9,221,0
978226,46,-8,221,0
978237,42,-4,221,0
978248,40,-4,221,0
978259,36,-6,221,0
978270,33,-6,221,0
978281,33,-5,223,0
978293,29,-2,225,0
978303,24,0,229,0
978314,17,0,232,0
978325,14,0,235,0
978336,12,0,236,0
978347,9,-2,233,0
978358,10,-5,230,0
978369,10,-5,226,0
978380,11,-9,225,0
978392,13,-11,227,0
978403,15,-13,229,0
978413,15,-17,230,0
978424,16,-22,227,0
978435,14,-23,225,0
978446,13,-19,223,0
978457,13,-14,224,0
978468,16,-5,222,0
978479,9,3,214,0
978491,7,0,219,0
978501,7,-15,215,0
978512,2,-19,215,0
978523,-4,-21,212,0
978534,-6,-24,216,0
978545,-8,-20,220,0
978556,-8,-14,219,0
978567,-4,-6,222,0
978578,6,0,224,0
978590,29,0,227,1
978600,51,-5,234,0
978611,62,-21,241,0
978622,54,-31,234,0
978633,29,-27,230,0
978644,7,-16,238,0
978655,-3,-4,252,0
978666,8,15,280,0
978678,25,32,287,0
978688,48,49,293,0
978699,71,58,292,0
978710,92,61,287,0
978721,103,59,280,0
978732,109,41,263,0
978744,106,22,242,0
978754,102,5,222,0
978765,100,-8,200,0
978776,94,-15,187,0
978787,86,-21,173,0
978799,77,-23,168,0
978809,68,-17,161,0
978820,60,-10,162,0
978831,51,10,190,0
978842,52,24,205,0
978853,43,25,220,0
978864,45,33,246,0
978875,46,36,256,0
978887,44,39,260,0
978897,43,36,261,0
978908,43,29,262,0
978919,45,17,257,0
978930,43,11,251,0
978941,46,4,246,0
978953,54,1,240,0
978963,57,2,235,0
978974,58,6,231,0
978986,51,12,232,0
978996,42,13,230,0
979007,35,17,226,0
979018,29,18,222,0
979029,26,18,225,0
979040,22,17,225,0
979051,20,15,226,0
979062,14,19,224,0
979073,8,24,220,0
979084,3,31,223,0
979095,1,34,226,0
979106,1,39,231,0
979117,4,42,235,0
979128,7,47,237,0
979139,12,50,241,0
979150,18,54,242,0
979161,26,60,245,0
979172,30,59,245,0
979183,34,56,245,0
979194,35,53,244,0
979205,35,49,240,0
979216,37,45,239,0
979228,38,45,237,0
979238,39,37,237,0
979249,42,48,228,0
979260,37,51,226,0
979271,40,45,225,0
979282,39,46,222,0
979293,41,43,220,0
979304,39,40,216,0
979315,34,37,215,0
979326,28,29,217,0
979337,24,33,219,0
979348,20,37,219,0
979359,17,38,218,0
979370,15,39,217,0
979381,18,36,218,0
979393,22,38,216,0
979403,24,38,218,0
979414,24,43,219,0
979425,26,46,217,0
979436,27,43,215,0
979447,29,44,218,0
979458,37,37,224,0
979469,44,35,228,0
979480,46,38,227,0
979492,46,32,215,0
979503,48,30,217,0
979513,48,20,231,0
979524,51,13,259,0
979535,73,19,274,0
979546,70,58,290,0
979558,54,77,319,1
979568,52,68,318,0
979579,59,64,303,0
979591,54,61,300,0
979601,59,53,290,0
979612,62,32,268,0
979623,63,7,253,0
979634,62,-8,232,0
979645,57,-11,219,0
979656,59,-23,205,0
979667,65,-27,198,0
979678,70,-28,194,0
979689,71,-17,178,0
979700,76,-27,173,0
979711,72,-26,177,0
979722,66,-31,190,0
979733,54,-44,195,0
979744,42,-51,200,0
979755,30,-55,197,0
979766,16,-60,194,0
979778,6,-69,201,0
979788,0,-68,204,0
979799,0,-62,206,0
979810,6,-54,208,0
979821,26,-23,200,0
979832,36,-9,211,0
979843,51,3,228,0
979854,69,15,239,0
979865,77,12,251,0
979876,85,2,269,0
979887,88,-9,265,0
979899,89,-19,251,0
979909,89,-23,231,0
979920,86,-21,214,0
979931,85,-16,209,0
979942,80,-13,206,0
979953,79,-13,204,0
979964,82,-10,204,0
979975,84,-11,203,0
979986,85,-1,208,0
979997,86,1,220,0
980008,86,7,226,0
980019,82,11,231,0
980030,74,12,233,0
980041,68,13,232,0
980053,64,13,232,0
980063,62,12,233,0
980074,62,14,234,0
980085,61,14,237,0
980096,60,13,235,0
980107,56,14,233,0
980118,53,15,231,0
980129,50,16,232,0
980140,42,15,230,0
980151,32,13,226,0
980162,26,10,229,0
980173,22,6,231,0
980184,30,4,236,0
980195,41,2,229,0
980206,61,6,227,0
980217,70,1,237,0
980228,75,-15,241,0
980239,78,-28,235,0
980250,65,-42,231,0
980261,51,-39,227,0
980272,38,-29,223,0
980283,35,-27,222,0
980294,35,-20,227,0
980305,38,-6,230,0
980316,48,4,233,0
980328,52,7,226,0
980338,53,5,221,0
980349,48,3,219,0
980360,42,0,214,0
980371,38,-1,214,0
980382,38,-5,214,0
980393,39,-5,217,0
980404,38,-7,223,0
980416,39,-8,228,0
980426,39,-10,235,0
980437,40,-11,240,0
980448,41,-11,242,0
980459,42,-16,240,0
980470,39,-20,237,0
980481,40,-21,233,0
980493,41,-20,232,0
980503,43,-19,233,0
980514,44,-18,233,0
980526,43,-17,233,0
980536,41,-17,233,0
980547,40,-14,232,0
980558,38,-11,229,0
980569,36,-9,224,0
980580,34,-9,220,0
980592,34,-10,220,0
980603,32,-10,221,0
980613,33,-10,225,0
980624,32,-8,229,0
980635,33,-7,233,0
980646,35,-3,233,0
980657,35,-3,233,0
980668,37,-8,232,0
980680,38,-10,231,0
980692,41,-12,229,0
980703,41,-11,229,0
980713,41,-8,230,0
980724,42,-10,230,0
980735,45,-11,229,0
980746,43,-12,227,0
980757,42,-9,226,0
980768,39,-9,224,0
980779,37,-8,225,0
980791,36,-6,226,0
980801,33,-3,230,0
980812,32,-4,230,0
980823,31,-4,230,0
980834,30,-3,230,0
980845,30,-5,230,0
980856,30,-5,230,0
980867,32,-6,229,0
980878,32,-8,230,0
980889,32,-9,230,0
980900,33,-11,229,0
980912,30,-11,228,0
980923,31,-9,227,0
980935,33,-7,229,0
980945,31,-10,229,0
980956,31,-9,229,0
980967,31,-10,230,0
980978,30,-11,230,0
980989,30,-9,231,0
981001,29,-9,231,0
981012,29,-9,230,0
981023,29,-10,228,0
981034,30,-9,229,0
981045,30,-9,228,0
981056,30,-8,229,0
981067,31,-8,229,0
981079,31,-9,231,0
981089,29,-8,230,0
981100,27,-9,229,0
981111,27,-9,229,0
981122,26,-9,228,0
981133,26,-9,229,0
981144,23,-8,229,0
981155,24,-9,230,0
981166,24,-9,230,0
981178,25,-8,232,0
981188,24,-9,231,0
981199,24,-10,229,0
981210,24,-8,229,0
981221,25,-9,230,0
981232,26,-9,228,0
981243,26,-9,229,0
981254,27,-9,230,0
981265,26,-11,229,0
981276,25,-10,229,0
981287,24,-9,229,0
981299,24,-8,229,0
981309,26,-9,228,0
981320,27,-9,228,0
981331,27,-10,230,0
981343,28,-9,230,0
981353,29,-9,230,0
981364,29,-8,227,0
981375,29,-8,229,0
981386,30,-8,226,0
981397,30,-7,227,0
981408,30,-5,228,0
981419,30,-6,231,0
981430,30,-5,232,0
981441,31,-5,232,0
981453,31,-7,232,0
981463,30,-5,229,0
981474,29,-4,229,0
981485,29,-4,229,0
981496,29,-6,230,0
981507,29,-5,229,0
981518,27,-5,229,0
981529,26,-5,230,0
981540,24,-3,229,0
981551,22,-4,228,0
981562,22,-5,226,0
981573,23,-3,229,0
981584,23,-4,228,0
981595,23,-3,228,0
981607,22,-4,228,0
981617,23,-2,228,0
981628,23,0,227,0
981639,20,0,228,0
981650,20,-1,229,0
981661,19,0,231,0
981672,21,-1,233,0
981683,22,-1,234,0
981694,24,-1,235,0
981705,27,-1,235,0
981716,30,-2,235,0
981728,32,-2,233,0
981738,34,-3,231,0
981750,37,-3,231,0
981760,39,-5,227,0
981771,39,-5,229,0
981782,38,-5,228,0
981793,37,-5,229,0
981804,35,-4,227,0
981815,35,-6,228,0
981826,34,-6,229,0
981837,35,-6,230,0
981848,33,-5,230,0
981859,32,-6,229,0
981870,32,-7,228,0
981881,31,-7,229,0
981893,32,-7,229,0
981903,30,-7,229,0
981914,30,-7,229,0
981925,30,-9,228,0
981936,30,-8,227,0
981947,29,-8,227,0
981959,30,-8,228,0
981969,30,-8,228,0
981980,30,-7,231,0
981992,32,-8,231,0
982003,30,-7,231,0
982014,32,-11,228,0
982025,32,-6,231,0
982036,35,-7,231,0
982047,35,-7,231,0
982058,35,-7,229,0
982069,34,-6,227,0
982080,35,-7,227,0
982092,35,-6,226,0
982103,35,-4,229,0
982113,35,-4,229,0
982124,36,-4,231,0
982135,35,-4,232,0
982146,35,-4,230,0
982157,36,-4,230,0
982168,36,-6,230,0
982179,36,-5,229,0
982191,36,-5,228,0
982201,37,-5,229,0
982212,38,-4,229,0
982223,38,-5,228,0
982234,38,-4,228,0
982245,38,-4,227,0
982256,38,-6,229,0
982267,37,-5,230,0
982278,36,-4,230,0
982289,34,-3,229,0
982300,35,-4,229,0
982311,33,-5,229,0
982322,33,-4,229,0
982333,31,-4,229,0
982344,33,-5,230,0
982355,32,-3,229,0
982366,33,-5,231,0
982378,33,-5,229,0
982388,33,-5,229,0
982399,33,-6,228,0
982410,32,-5,230,0
982421,32,-4,228,0
982432,31,-4,230,0
982443,32,-4,229,0
982454,33,-5,229,0
982465,34,-4,229,0
982476,34,-5,230,0
982487,34,-5,228,0
982499,36,-5,229,0
982509,35,-5,227,0
982520,33,-4,230,0
982531,34,-4,230,0
982542,33,-4,231,0
982553,33,-2,231,0
982564,32,-3,232,0
982575,33,-6,228,0
982586,33,-5,229,0
982597,33,-5,228,0
982608,33,-2,230,0
982619,32,-4,231,0
982630,32,-4,229,0
982641,33,-4,230,0
982653,33,-4,230,0
982663,34,-4,229,0
982674,34,-5,229,0
982685,33,-4,228,0
982696,33,-5,229,0
982707,34,-4,228,0
982718,32,-3,230,0
982729,32,-2,230,0
982740,35,-3,228,0
982751,36,-4,229,0
982762,36,-4,229,0
982773,36,-5,230,0
982784,36,-5,230,0
982795,36,-4,229,0
982806,35,-3,229,0
982817,35,-4,229,0
982828,36,-6,228,0
982839,35,-4,228,0
982851,34,-4,229,0
982862,35,-5,230,0
982873,34,-4,228,0
982884,35,-5,228,0
982895,33,-4,229,0
982906,33,-5,230,0
982917,33,-5,229,0
982928,33,-5,230,0
982939,32,-5,230,0
982950,32,-5,229,0
982961,34,-5,230,0
982972,34,-7,228,0
982983,32,-6,228,0
982994,32,-5,229,0
983005,33,-6,229,0
983016,32,-6,228,0
983028,34,-5,229,0
983038,33,-4,230,0
983049,33,-5,230,0
983060,33,-4,229,0
983071,34,-5,230,0
983083,33,-4,231,0
983094,33,-6,226,0
983105,32,-7,225,0
983116,32,-9,230,0
983128,32,-5,229,0
983138,32,-2,230,0
983149,32,-1,232,0
983160,34,-3,229,0
983171,33,-2,231,0
983182,32,-2,229,0
983193,33,-4,228,0
983204,33,-4,227,0
983215,33,-4,226,0
983226,33,-5,225,0
983237,32,-2,230,0
983248,33,-4,227,0
983260,32,-2,231,0
983271,33,0,233,0
983282,32,-2,233,0
983293,33,-2,232,0
983305,32,0,234,0
983315,30,1,235,0
983326,33,-1,228,0
983337,35,-11,232,0
983348,32,-6,227,0
983359,30,-5,225,0
983370,32,-4,227,0
983381,32,-3,230,0
983393,33,-1,233,0
983403,34,-1,233,0
983414,34,-1,232,0
983425,32,-2,231,0
983436,31,-3,229,0
983447,31,-5,224,0
983458,29,-3,226,0
983469,30,-2,229,0
983480,32,-2,230,0
983492,38,-2,233,0
983503,39,0,237,0
983513,39,1,239,0
983524,35,-5,225,0
983535,32,-9,220,0
983546,29,-7,220,0
983557,28,-5,224,0
983568,29,-2,228,0
983579,32,0,233,0
983591,33,0,236,0
983601,34,0,234,0
983612,31,-2,231,0
983623,31,-2,231,0
983634,32,-4,230,0
983645,34,-2,231,0
983656,34,-4,228,0
983667,33,-5,227,0
983680,34,-7,229,0
983691,32,-5,227,0
983701,31,-3,231,0
