timestamp,accX,accY,accZ,step
1677921,37,-4,225,0
1677931,36,-4,226,0
1677942,37,-4,227,0
1677953,37,-2,228,0
1677963,35,-3,224,0
1677973,34,-1,228,0
1677984,35,-3,236,0
1677995,38,-4,229,0
1678006,37,-4,231,0
1678017,36,-2,232,0
1678028,35,-3,231,0
1678039,35,-3,230,0
1678049,36,-3,231,0
1678060,38,-5,229,0
1678071,38,-2,228,0
1678082,37,-1,229,0
1678093,38,-1,229,0
1678104,41,-1,231,0
1678115,41,-1,233,0
1678126,42,-1,232,0
1678137,43,1,231,0
1678149,45,1,232,0
1678159,46,1,233,0
1678170,45,3,231,0
1678181,47,3,231,0
1678193,48,5,234,0
1678203,49,4,235,0
1678214,50,6,232,0
1678225,50,4,231,0
1678236,49,3,228,0
1678247,48,3,228,0
1678258,46,4,227,0
1678270,44,2,227,0
1678280,44,2,226,0
1678292,40,3,226,0
1678303,40,1,227,0
1678313,39,1,227,0
1678324,38,3,226,0
1678335,38,2,228,0
1678346,38,1,231,0
1678357,38,3,231,0
1678368,36,3,233,0
1678379,36,2,231,0
1678391,35,0,231,0
1678401,33,-1,230,0
1678412,34,-2,229,0
1678423,34,0,227,0
1678434,33,-3,226,0
1678445,34,-1,227,0
1678456,33,0,226,0
1678467,36,0,227,0
1678478,36,0,228,0
1678489,37,0,227,0
1678500,36,2,228,0
1678511,36,-1,228,0
1678522,36,0,229,0
1678533,35,1,230,0
1678544,34,-5,231,0
1678555,34,-7,231,0
1678566,35,-4,230,0
1678578,36,-1,231,0
1678588,37,-2,230,0
1678599,39,-4,230,0
1678610,42,-4,232,0
1678621,46,-8,229,0
1678632,44,-4,228,0
1678643,45,-3,224,0
1678654,44,-1,226,0
1678665,45,-2,226,0
1678676,43,-4,229,0
1678687,44,-2,229,0
1678698,43,-1,228,0
1678709,39,-3,227,0
1678720,38,-1,228,0
1678731,37,-1,228,0
1678742,37,-1,230,0
1678753,35,0,230,0
1678764,34,0,233,0
1678775,35,0,233,0
1678786,36,0,233,0
1678797,36,-1,234,0
1678808,38,-1,234,0
1678820,36,-2,234,0
1678830,35,-1,235,0
1678841,35,-3,234,0
1678853,34,-3,233,0
1678863,38,-4,229,0
1678874,43,-4,226,0
1678885,43,-3,225,0
1678896,40,-4,226,0
1678908,40,-3,225,0
1678918,39,-4,225,0
1678929,37,-1,229,0
1678940,36,0,227,0
1678951,35,1,228,0
1678962,33,2,227,0
1678973,32,5,228,0
1678984,31,4,227,0
1678995,30,5,228,0
1679006,30,4,228,0
1679017,30,3,228,0
1679028,28,2,229,0
1679040,27,1,229,0
1679051,26,0,229,0
1679062,23,0,228,0
1679073,20,1,230,0
1679084,19,2,231,0
1679095,17,2,231,0
1679106,16,1,234,0
1679117,15,2,233,0
1679128,15,1,234,0
1679139,16,1,232,0
1679150,21,-2,233,0
1679161,23,0,233,0
1679172,24,0,229,0
1679183,25,-2,228,0
1679194,24,-3,228,0
1679205,21,-5,228,0
1679217,20,-2,228,0
1679228,19,-3,228,0
1679238,19,-2,229,0
1679249,20,-2,228,0
1679260,18,-1,228,0
1679271,20,-2,230,0
1679282,20,0,231,0
1679293,21,-2,231,0
1679304,19,-1,232,0
1679315,19,-3,233,0
1679326,19,-1,231,0
1679337,20,-1,230,0
1679348,17,-2,230,0
1679359,17,-3,229,0
1679370,19,-3,230,0
1679381,20,-1,230,0
1679393,22,-2,229,0
1679403,24,-1,229,0
1679414,25,-1,231,0
1679425,28,-3,231,0
1679436,26,-4,230,0
1679447,25,-6,228,0
1679458,24,-8,227,0
1679470,24,-8,227,0
1679480,22,-9,227,0
1679492,21,-9,229,0
1679502,20,-7,228,0
1679513,18,-7,230,0
1679524,17,-5,229,0
1679535,15,-4,229,0
1679546,13,-3,228,0
1679557,13,-4,231,0
1679568,15,-7,232,0
1679579,14,-5,230,0
1679591,13,-6,231,0
1679601,16,-6,229,0
1679612,17,-6,230,0
1679623,17,-7,229,0
1679634,18,-8,229,0
1679645,20,-6,228,0
1679656,21,-6,228,0
1679667,20,-6,228,0
1679678,19,-6,228,0
1679689,19,-6,227,0
1679700,20,-8,230,0
1679711,22,-4,229,0
1679722,23,-3,229,0
1679733,23,-3,228,0
1679744,20,-6,229,0
1679755,19,-5,231,0
1679766,21,-4,229,0
1679777,22,-5,230,0
1679788,20,-2,230,0
1679799,20,-5,230,0
1679810,22,-3,229,0
1679821,20,-2,231,0
1679832,22,-6,231,0
1679843,22,-7,232,0
1679854,23,-4,229,0
1679865,22,0,231,0
1679876,22,-2,231,0
1679887,22,-5,231,0
1679898,21,-7,231,0
1679909,20,-11,229,0
1679920,19,-6,226,0
1679931,20,-5,227,0
1679942,21,-7,229,0
1679953,21,-7,226,0
1679964,22,-9,228,0
1679975,24,-6,228,0
1679986,25,-2,229,0
1679997,25,-1,229,0
1680008,24,1,227,0
1680019,26,2,230,0
1680030,28,3,231,0
1680041,26,8,232,0
1680052,22,9,232,0
1680063,21,6,233,0
1680074,18,5,232,0
1680085,16,3,229,0
1680096,14,1,228,0
1680107,12,1,228,0
1680118,11,0,228,0
1680129,11,0,228,0
1680140,12,3,228,0
1680151,16,6,233,0
1680162,22,6,233,0
1680173,26,7,235,0
1680184,29,7,235,0
1680195,29,3,228,0
1680206,29,2,224,0
1680217,30,2,225,0
1680228,29,2,223,0
1680239,27,0,224,0
1680250,25,1,225,0
1680262,22,3,225,0
1680272,20,1,228,0
1680283,18,0,229,0
1680294,16,1,230,0
1680305,15,1,231,0
1680316,13,-1,230,0
1680327,14,0,228,0
1680338,13,-2,227,0
1680350,12,1,227,0
1680361,11,1,226,0
1680372,7,2,228,0
1680383,4,2,229,0
1680394,2,4,226,0
1680405,0,4,226,0
1680416,0,3,227,0
1680427,-2,4,226,0
1680438,-2,4,225,0
1680449,-4,2,224,0
1680460,-3,1,226,0
1680471,-2,1,226,0
1680482,-1,1,226,0
1680493,0,1,226,0
1680504,0,2,224,0
1680515,0,3,224,0
1680526,0,2,224,0
1680537,1,4,223,0
1680548,1,5,224,0
1680559,5,3,225,0
1680570,7,3,225,0
1680581,6,1,226,0
1680593,7,0,225,0
1680603,8,-1,224,0
1680614,6,-1,224,0
1680625,5,-3,225,0
1680636,6,-3,224,0
1680647,14,2,223,0
1680658,24,8,230,0
1680670,14,-8,249,0
1680682,12,0,239,1
1680693,-1,0,237,0
1680703,-10,2,233,0
1680714,-7,13,236,0
1680725,-2,17,243,0
1680736,3,15,258,0
1680747,5,18,276,0
1680758,14,22,289,0
1680770,23,27,296,0
1680780,33,37,291,0
1680792,49,39,284,0
1680803,55,40,272,0
1680813,60,29,259,0
1680824,65,20,240,0
1680835,74,16,208,0
1680846,72,14,194,0
1680857,76,9,185,0
1680868,80,12,182,0
1680879,77,22,191,0
1680891,71,28,202,0
1680901,62,31,221,0
1680912,56,32,236,0
1680923,52,37,244,0
1680934,48,45,250,0
1680945,42,49,257,0
1680956,37,45,258,0
1680967,33,39,259,0
1680978,33,29,258,0
1680989,34,19,256,0
1681000,37,11,234,0
1681011,40,11,225,0
1681022,42,6,215,0
1681033,39,9,212,0
1681044,41,8,211,0
1681055,41,8,216,0
1681066,35,7,209,0
1681077,29,8,210,0
1681088,25,6,210,0
1681099,23,5,210,0
1681110,19,6,207,0
1681121,16,7,202,0
1681132,11,5,196,0
1681143,8,7,198,0
1681154,4,9,198,0
1681165,0,11,204,0
1681176,-3,10,207,0
1681187,-3,12,209,0
1681198,-5,12,211,0
1681209,-4,11,215,0
1681220,-7,13,216,0
1681231,-10,14,216,0
1681242,-12,15,220,0
1681253,-16,16,226,0
1681264,-18,14,230,0
1681275,-20,11,233,0
1681286,-20,7,234,0
1681297,-21,7,231,0
1681308,-20,7,227,0
1681319,-21,9,230,0
1681330,-21,7,247,0
1681341,-21,5,253,0
1681353,-23,2,250,0
1681363,-23,7,260,0
1681375,-23,7,258,1
1681386,-23,7,262,0
1681397,10,-6,302,0
1681408,57,2,387,0
1681419,59,48,375,0
1681430,60,5,357,0
1681441,55,-14,318,0
1681452,49,-19,296,0
1681463,69,-11,319,0
1681474,39,-7,241,0
1681485,32,-28,211,0
1681496,34,-27,191,0
1681507,40,-22,182,0
1681518,45,-31,164,0
1681529,54,-33,152,0
1681540,63,-26,155,0
1681551,67,-21,160,0
1681562,68,-8,161,0
1681573,68,-5,177,0
1681584,76,-3,194,0
1681595,80,1,208,0
1681606,76,-1,214,0
1681617,79,-6,213,0
1681628,84,-8,213,0
1681639,86,-7,214,0
1681650,75,-7,222,0
1681661,72,-4,219,0
1681672,66,-2,214,0
1681683,59,-5,209,0
1681694,53,-1,211,0
1681705,46,3,215,0
1681716,42,4,214,0
1681727,37,3,214,0
1681738,38,2,216,0
1681749,32,4,212,0
1681760,24,1,212,0
1681771,16,1,211,0
1681782,9,0,210,0
1681793,7,0,208,0
1681804,4,0,211,0
1681815,0,0,218,0
1681826,-1,3,226,0
1681837,-6,6,232,0
1681848,-9,9,235,0
1681859,-11,9,234,0
1681870,-11,6,234,0
1681881,-10,3,229,0
1681893,-7,1,224,0
1681903,-8,2,222,0
1681914,-6,2,221,0
1681925,-5,4,223,0
1681936,0,3,223,0
1681947,1,1,219,0
1681958,5,2,219,0
1681970,6,-2,208,0
1681980,7,0,210,0
1681992,6,-2,206,0
1682002,9,0,207,0
1682013,8,3,209,0
1682024,6,7,212,0
1682035,2,9,218,0
1682046,-3,6,219,0
1682057,-16,7,223,0
1682068,-28,4,224,0
1682079,-36,6,223,0
1682091,-9,21,209,0
1682102,-8,9,260,1
1682112,-12,-39,289,0
1682123,-4,-16,275,0
1682134,-21,-11,285,0
1682145,-9,24,327,0
1682156,4,9,341,0
1682167,17,-3,354,0
1682178,41,12,355,0
1682189,74,34,348,0
1682200,103,45,328,0
1682211,119,43,298,0
1682222,128,33,258,0
1682233,133,16,218,0
1682244,133,1,175,0
1682255,123,-4,143,0
1682266,107,-7,127,0
1682278,94,-8,126,0
1682288,78,-3,134,0
1682299,62,3,148,0
1682310,35,16,195,0
1682322,20,17,217,0
1682332,4,24,243,0
1682343,4,25,269,0
1682354,11,15,271,0
1682365,14,13,266,0
1682376,19,4,260,0
1682387,21,3,250,0
1682398,20,2,235,0
1682410,18,8,228,0
1682420,22,4,221,0
1682431,26,3,209,0
1682442,28,4,203,0
1682453,32,3,204,0
1682464,33,11,212,0
1682475,33,2,207,0
1682486,29,1,210,0
1682497,23,-2,212,0
1682508,15,-2,220,0
1682519,6,-1,216,0
1682530,2,-1,221,0
1682541,-5,-3,216,0
1682553,-14,-5,210,0
1682563,-19,-11,206,0
1682574,-16,-14,203,0
1682585,-17,-11,199,0
1682596,-14,-7,199,0
1682607,-11,-3,197,0
1682618,-8,-7,192,0
1682629,-6,-5,189,0
1682640,-9,4,209,0
1682651,-11,15,224,0
1682662,-18,25,239,0
1682673,-29,29,248,0
1682684,-38,20,249,0
1682695,-42,20,257,0
1682707,-42,14,261,0
1682717,-43,12,263,0
1682728,-43,15,261,0
1682739,-42,15,258,0
1682750,-45,17,266,0
1682761,-41,5,264,0
1682772,-2,-22,301,0
1682783,43,-11,384,0
1682794,43,38,359,0
1682805,51,-24,303,0
1682816,56,-35,300,0
1682828,109,-30,364,1
1682838,113,11,345,0
1682849,86,21,286,0
1682860,89,-14,224,0
1682871,59,-8,197,0
1682882,46,-28,165,0
1682893,54,-30,145,0
1682904,56,-32,141,0
1682916,59,-26,142,0
1682926,59,-17,149,0
1682937,58,-8,157,0
1682948,59,-8,168,0
1682959,65,-7,187,0
1682970,86,-7,219,0
1682982,98,-10,222,0
1682993,107,-13,218,0
1683003,112,-13,217,0
1683014,110,-15,210,0
1683025,103,-12,207,0
1683036,87,-11,207,0
1683047,68,-7,206,0
1683058,56,-7,207,0
1683070,50,-1,209,0
1683080,50,1,214,0
1683092,53,5,220,0
1683103,48,15,220,0
1683113,43,15,226,0
1683124,32,13,224,0
1683135,23,6,223,0
1683146,12,6,222,0
1683157,7,3,219,0
1683168,4,1,213,0
1683179,2,1,217,0
1683191,1,1,219,0
1683201,1,1,221,0
1683212,3,2,226,0
1683223,6,5,234,0
1683234,8,5,235,0
1683245,11,3,237,0
1683256,9,3,229,0
1683267,9,0,228,0
1683278,10,-2,226,0
1683289,9,-5,220,0
1683300,12,-9,220,0
1683312,11,-5,218,0
1683322,12,-5,221,0
1683333,10,-2,223,0
1683344,8,-1,223,0
1683355,6,0,221,0
1683366,6,1,219,0
1683378,4,4,221,0
1683388,2,8,219,0
1683399,1,16,220,0
1683410,-1,15,222,0
1683421,-5,17,222,0
1683432,-11,18,224,0
1683443,-17,15,224,0
1683454,-24,13,222,0
1683465,-27,7,226,0
1683476,-38,0,226,0
1683487,-40,-4,223,0
1683498,-41,-2,225,0
1683509,-42,-4,229,0
1683520,-31,0,224,0
1683531,14,17,209,0
1683542,3,-10,268,0
1683553,3,-62,297,0
1683564,15,-8,266,0
1683576,-3,16,260,1
1683586,-7,6,298,0
1683597,12,6,318,0
1683608,42,19,302,0
1683619,50,17,316,0
1683630,77,24,320,0
1683641,123,30,297,0
1683653,131,30,269,0
1683663,129,25,228,0
1683674,118,18,183,0
1683685,104,10,155,0
1683696,94,7,143,0
1683707,87,12,144,0
1683718,76,26,158,0
1683729,64,28,174,0
1683740,49,26,189,0
1683751,38,31,214,0
1683762,28,34,248,0
1683773,20,35,272,0
1683784,23,30,275,0
1683795,30,21,264,0
1683806,36,10,238,0
1683817,35,11,235,0
1683828,35,12,231,0
1683839,36,12,227,0
1683850,39,10,221,0
1683861,38,12,218,0
1683872,33,11,215,0
1683883,32,19,229,0
1683894,29,17,218,0
1683905,23,17,209,0
1683917,17,19,205,0
1683928,12,18,202,0
1683938,8,14,201,0
1683949,7,7,203,0
1683960,2,2,208,0
1683971,0,2,209,0
1683983,-10,4,215,0
1683993,-13,12,224,0
1684004,-14,22,228,0
1684015,-2,17,225,0
1684026,11,18,215,0
1684037,5,45,196,0
1684048,3,40,192,0
1684059,9,25,200,0
1684070,0,26,203,0
1684081,-10,18,215,0
1684093,-15,20,227,0
1684103,-20,23,241,0
1684114,-15,17,247,0
1684125,-18,26,255,0
1684136,-18,23,264,0
1684147,-21,32,260,0
1684158,-29,36,258,0
1684170,-42,29,247,0
1684180,-51,12,226,0
1684192,2,17,266,0
1684203,30,52,336,0
1684214,3,71,316,1
1684224,47,23,318,0
1684235,54,26,282,0
1684246,49,43,270,0
1684257,83,19,328,0
1684268,81,29,352,0
1684279,84,16,300,0
1684291,71,-29,256,0
1684301,50,-55,175,0
1684312,42,-57,147,0
1684324,41,-53,144,1
1684334,36,-38,151,0
1684345,35,-18,163,0
1684356,35,1,170,0
1684367,43,14,185,0
1684378,56,29,198,0
1684389,65,35,216,0
1684401,69,30,225,0
1684412,71,21,217,0
1684423,70,15,213,0
1684434,67,13,210,0
1684445,63,12,216,0
1684456,47,3,215,0
1684467,33,2,212,0
1684478,28,1,214,0
1684489,27,2,218,0
1684500,26,4,217,0
1684511,27,2,219,0
1684522,25,2,217,0
1684533,19,0,218,0
1684544,14,0,219,0
1684555,15,1,218,0
1684566,16,2,216,0
1684578,16,4,215,0
1684588,15,3,215,0
1684599,18,8,214,0
1684610,18,9,218,0
1684621,16,13,221,0
1684633,14,17,227,0
1684643,11,20,231,0
1684654,10,24,234,0
1684665,10,26,232,0
1684676,9,22,229,0
1684687,7,23,226,0
1684698,7,22,219,0
1684709,7,21,219,0
1684720,9,19,219,0
1684733,9,20,222,0
1684743,13,15,221,0
1684754,18,13,226,0
1684765,25,10,229,0
1684776,34,5,229,0
1684787,35,8,230,0
1684798,34,12,230,0
1684809,27,15,229,0
1684820,23,18,231,0
1684831,19,23,230,0
1684842,13,30,234,0
1684853,7,35,233,0
1684864,0,36,233,0
1684875,-10,37,234,0
1684886,-16,41,232,0
1684898,0,45,226,1
1684908,15,57,258,0
1684919,11,14,294,0
1684930,7,4,298,0
1684942,-18,18,284,0
1684953,-9,40,281,0
1684964,3,45,282,0
1684975,26,21,283,0
1684986,44,23,272,0
1684998,59,17,261,0
1685009,79,9,249,0
1685020,99,6,235,0
1685031,115,6,219,0
1685042,124,-4,201,0
1685053,131,-11,191,0
1685064,127,-9,184,0
1685077,111,-2,181,0
1685087,101,0,185,0
1685098,84,8,188,0
1685109,67,15,202,0
1685120,57,18,223,0
1685131,41,25,246,0
1685142,20,32,274,0
1685153,16,26,290,0
1685164,13,25,289,0
1685175,14,26,276,0
1685186,17,25,264,0
1685197,23,19,246,0
1685208,22,13,229,0
1685219,20,10,216,0
1685230,22,6,212,0
1685241,29,7,215,0
1685253,35,9,216,0
1685263,45,10,214,0
1685274,57,10,212,0
1685285,61,10,209,0
1685296,64,7,205,0
1685307,67,4,202,0
1685318,68,2,204,0
1685329,62,2,205,0
1685341,50,3,208,0
1685351,34,5,210,0
1685362,17,3,210,0
1685373,3,1,211,0
1685384,-3,4,210,0
1685395,-15,11,217,0
1685406,-23,18,236,0
1685417,-14,0,229,0
1685428,1,15,201,0
1685439,-9,50,179,0
1685450,-11,45,201,0
1685461,-8,24,212,0
1685472,-11,31,216,0
1685484,-20,31,228,0
1685494,-25,26,240,0
1685505,-26,21,243,0
1685516,-26,19,246,0
1685528,-26,13,248,0
1685538,-26,8,253,0
1685549,-24,10,258,0
1685561,-41,21,247,1
1685571,-49,15,241,0
1685582,-40,3,253,0
1685593,23,0,323,0
1685605,40,72,360,0
1685616,25,48,340,0
1685628,46,-1,315,0
1685638,45,5,270,0
1685649,48,11,272,0
1685660,72,21,330,0
1685671,63,41,342,0
1685682,77,14,316,0
1685693,66,-17,262,0
1685704,27,-53,176,0
1685715,33,-64,153,0
1685726,37,-54,148,0
1685737,43,-42,153,0
1685748,46,-28,156,0
1685759,48,-13,159,0
1685770,50,-6,170,0
1685781,56,-3,178,0
1685793,63,3,197,0
1685803,72,7,224,0
1685814,77,8,229,0
1685825,76,5,226,0
1685836,70,1,219,0
1685847,65,-4,213,0
1685858,60,-2,212,0
1685869,50,-5,215,0
1685880,33,-9,219,0
1685892,30,-3,224,0
1685903,26,-2,223,0
1685913,26,0,222,0
1685924,20,1,219,0
1685935,19,2,218,0
1685946,20,3,217,0
1685957,20,2,216,0
1685968,14,1,213,0
1685979,12,1,213,0
1685991,9,0,210,0
1686001,6,0,209,0
1686012,4,1,210,0
1686023,2,0,212,0
1686034,1,1,218,0
1686045,-2,4,228,0
1686056,-5,7,232,0
1686067,-10,11,233,0
1686078,-13,13,234,0
1686089,-15,15,231,0
1686100,-14,13,228,0
1686111,-13,12,224,0
1686122,-14,10,222,0
1686133,-8,4,217,0
1686144,-6,1,213,0
1686155,-4,-3,210,0
1686166,-1,-6,210,0
1686178,0,-9,211,0
1686188,3,-12,214,0
1686199,6,-14,218,0
1686210,13,-4,221,0
1686221,17,3,224,0
1686232,18,8,226,0
1686244,20,10,225,0
1686256,15,13,224,1
1686266,10,15,220,0
1686278,2,17,219,0
1686288,-6,17,222,0
1686299,-12,19,223,0
1686310,13,29,218,0
1686321,11,16,268,0
1686332,1,-9,292,0
1686343,-14,16,290,0
1686354,-64,27,302,0
1686365,-56,49,303,0
1686376,-52,36,305,0
1686387,-38,9,311,0
1686398,-22,14,320,0
1686409,7,23,325,0
1686420,49,22,312,0
1686431,87,27,294,0
1686442,110,26,264,0
1686453,121,21,228,0
1686464,123,1,189,0
1686475,121,-11,155,0
1686486,116,-21,131,0
1686497,108,-18,128,0
1686508,99,-14,129,0
1686519,87,-12,140,0
1686530,67,-10,194,0
1686541,57,-1,223,0
1686553,39,9,252,0
1686563,23,25,280,0
1686574,15,32,300,0
1686585,14,33,312,0
1686596,7,31,305,0
1686607,3,31,290,0
1686618,3,27,277,0
1686629,5,23,259,0
1686641,9,16,242,0
1686651,9,10,226,0
1686662,10,7,222,0
1686673,13,8,209,0
1686684,16,12,203,0
1686695,30,11,202,0
1686706,36,13,202,0
1686717,33,14,202,0
1686728,28,13,201,0
1686739,24,8,201,0
1686750,21,3,207,0
1686761,13,1,210,0
1686772,6,5,210,0
1686783,2,8,203,0
1686794,-1,6,201,0
1686805,-4,4,202,0
1686816,-4,3,199,0
1686828,-4,1,192,0
1686838,1,2,182,0
1686849,2,2,176,0
1686860,-1,9,211,0
1686871,-2,10,222,0
1686882,-7,16,217,0
1686893,-12,23,221,0
1686904,-16,26,230,0
1686916,-19,30,238,0
1686926,-30,44,255,0
1686937,-33,29,262,0
1686948,-35,15,263,0
1686959,-36,6,262,0
1686971,-32,6,255,1
1686981,-37,18,258,0
1686993,-47,13,249,0
1687003,-37,2,255,0
1687014,17,-11,330,0
1687025,51,42,369,0
1687036,66,-8,357,0
1687047,55,-3,325,0
1687058,51,-10,319,0
1687069,73,-6,335,0
1687080,77,24,317,0
1687092,64,8,275,0
1687103,63,-17,219,0
1687113,50,-34,185,0
1687124,37,-47,166,0
1687135,38,-49,151,0
1687146,53,-44,139,0
1687157,59,-33,145,0
1687168,64,-26,152,0
1687179,63,-16,164,0
1687191,62,-2,200,0
1687201,68,-5,212,0
1687212,73,-4,216,0
1687223,74,-7,216,0
1687234,74,-10,217,0
1687245,71,-8,214,0
1687256,68,-14,210,0
1687267,69,-12,208,0
1687278,59,-13,213,0
1687289,43,-10,221,0
1687300,33,-2,224,0
1687311,27,-3,226,0
1687322,24,-5,225,0
1687333,27,-3,225,0
1687344,29,0,225,0
1687355,34,-1,221,0
1687366,33,-2,219,0
1687378,28,-1,214,0
1687388,25,-3,209,0
1687399,20,-2,204,0
1687410,17,-1,206,0
1687421,14,0,210,0
1687432,11,2,218,0
1687443,8,2,224,0
1687454,5,1,230,0
1687465,2,2,234,0
1687476,1,0,233,0
1687488,-1,0,233,0
1687498,-5,0,230,0
1687509,-5,0,228,0
1687520,-1,-6,219,0
1687531,-1,-4,217,0
1687542,0,-2,217,0
1687553,3,-1,217,0
1687564,3,0,220,0
1687575,5,0,219,0
1687586,6,0,218,0
1687597,6,1,218,0
1687609,6,1,218,0
1687619,5,3,220,0
1687630,3,4,219,0
1687641,1,4,220,0
1687653,0,5,221,0
1687663,0,2,223,0
1687674,-1,-2,224,0
1687686,1,-5,233,1
1687696,2,-5,235,0
1687707,3,-1,241,0
1687718,10,1,239,0
1687729,30,9,237,0
1687741,24,-20,264,0
1687751,18,-41,258,0
1687762,9,-10,244,0
1687773,-5,-5,250,0
1687784,-8,4,267,0
1687795,-12,14,282,0
1687806,-2,8,288,0
1687817,13,9,296,0
1687828,20,12,304,0
1687839,39,19,305,0
1687850,78,38,291,0
1687861,93,33,276,0
1687872,104,29,256,0
1687883,103,15,223,0
1687894,108,-4,187,0
1687905,102,-20,152,0
1687917,88,-22,128,0
1687928,79,-25,122,0
1687938,68,-18,133,0
1687949,58,-4,151,0
1687960,44,6,172,0
1687971,35,22,196,0
1687982,24,29,216,0
1687993,10,38,242,0
1688004,8,36,266,0
1688015,12,35,293,0
1688026,12,29,287,0
1688037,15,24,284,0
1688048,17,19,273,0
1688059,23,14,255,0
1688070,25,7,240,0
1688081,26,3,228,0
1688093,25,6,221,0
1688103,25,6,218,0
1688114,25,6,217,0
1688125,25,8,213,0
1688136,25,11,212,0
1688147,21,12,210,0
1688158,20,10,209,0
1688169,17,7,209,0
1688180,7,6,211,0
1688192,0,9,207,0
1688203,-7,11,209,0
1688213,-10,12,211,0
1688224,-9,12,211,0
1688235,-9,8,209,0
1688246,-9,5,207,0
1688257,-9,2,210,0
1688268,1,13,213,0
1688279,2,16,215,0
1688291,5,23,227,0
1688301,11,21,235,0
1688312,27,15,220,0
1688323,23,45,205,0
1688334,7,53,209,0
1688345,1,26,234,0
1688356,-4,30,230,0
1688367,-15,31,234,0
1688378,-20,25,243,0
1688389,-19,17,252,0
1688401,-18,18,254,1
1688411,-20,24,255,0
1688422,-25,25,254,0
1688433,-27,25,254,0
1688444,-3,16,270,0
1688455,55,49,343,0
1688466,40,104,347,0
1688478,41,59,323,0
1688489,69,17,309,0
1688499,76,5,278,0
1688510,85,-4,277,0
1688521,77,19,285,0
1688532,59,13,249,0
1688543,43,-10,219,0
1688554,21,-29,202,0
1688565,7,-25,183,0
1688576,7,-25,169,0
1688587,19,-34,167,0
1688598,27,-35,172,0
1688609,32,-19,180,0
1688620,43,-9,191,0
1688631,58,-5,202,0
1688642,64,4,209,0
1688653,68,9,211,0
1688664,72,9,214,0
1688675,72,13,217,0
1688686,60,12,227,0
1688697,56,7,226,0
1688708,52,8,220,0
1688719,45,7,214,0
1688730,43,3,214,0
1688741,47,1,205,0
1688753,52,7,202,0
1688763,57,5,204,0
1688774,55,0,208,0
1688785,52,-1,212,0
1688796,47,-1,216,0
1688807,40,0,228,0
1688818,35,4,235,0
1688829,34,7,234,0
1688841,36,4,223,0
1688851,35,3,218,0
1688862,33,1,213,0
1688873,28,3,211,0
1688884,27,1,212,0
1688895,28,2,215,0
1688906,30,-1,219,0
1688917,27,6,220,0
1688928,26,7,222,0
1688939,25,7,225,0
1688950,20,10,224,0
1688961,18,11,228,0
1688972,15,13,228,0
1688983,9,10,230,0
1688994,8,9,230,0
1689005,5,15,230,0
1689016,14,15,223,0
1689028,17,14,221,0
1689038,21,8,219,0
1689049,24,5,219,0
1689060,26,2,218,0
1689071,29,2,218,0
1689082,32,1,223,0
1689093,32,0,230,0
1689104,35,-3,234,0
1689116,30,-12,237,1
1689126,27,-11,234,0
1689137,21,-1,228,0
1689149,15,6,224,0
1689159,8,14,222,0
1689170,0,10,225,0
1689181,-9,7,222,0
1689193,3,22,210,0
1689203,25,53,216,0
1689214,50,41,241,0
1689225,61,7,264,0
1689236,45,-9,271,0
1689248,19,2,276,0
1689258,10,26,285,0
1689269,16,29,283,0
1689280,30,31,276,0
1689292,42,40,271,0
1689303,58,37,268,0
1689313,77,22,257,0
1689324,90,4,244,0
1689335,99,2,222,0
1689346,89,-13,183,0
1689357,81,-18,174,0
1689368,69,-11,180,0
1689379,62,-1,195,0
1689391,60,5,206,0
1689401,56,12,220,0
1689412,44,21,241,0
1689423,40,28,267,0
1689434,35,34,288,0
1689445,27,29,298,0
1689456,19,13,288,0
1689467,12,8,279,0
1689478,10,9,277,0
1689489,19,4,265,0
1689500,29,8,260,0
1689511,34,15,230,0
1689522,36,20,224,0
1689533,29,30,222,0
1689544,18,38,219,0
1689555,13,40,219,0
1689566,5,47,218,0
1689578,5,46,218,0
1689588,8,44,219,0
1689599,19,40,222,0
1689610,29,36,222,0
1689621,38,33,217,0
1689632,41,33,210,0
1689643,43,26,204,0
1689654,47,26,204,0
1689665,50,21,199,0
1689676,53,19,203,0
1689687,57,18,213,0
1689698,54,19,217,0
1689709,47,15,227,0
1689720,40,22,229,0
1689731,37,26,234,0
1689743,36,32,238,0
1689753,40,27,249,0
1689764,56,33,254,0
1689775,60,21,261,0
1689786,61,20,250,0
1689797,46,25,237,0
1689808,34,26,226,0
1689819,23,15,213,0
1689830,12,9,196,0
1689841,5,12,197,0
1689853,-8,22,204,0
1689863,-9,24,212,0
1689874,-8,30,218,0
1689885,-7,34,221,0
1689896,-5,39,221,0
1689907,-3,42,224,0
1689918,6,39,243,0
1689929,26,45,274,0
1689941,41,60,299,0
1689951,60,54,311,0
1689962,74,47,303,0
1689974,77,41,288,1
1689985,71,34,265,0
1689995,65,20,232,0
1690006,59,3,207,0
1690017,48,-29,190,0
1690028,46,-45,187,0
1690039,45,-46,186,0
1690050,50,-49,185,0
1690061,54,-41,189,0
1690073,54,-33,197,0
1690083,47,-19,205,0
1690094,47,-5,215,0
1690105,52,0,222,0
1690116,54,3,227,0
1690128,50,7,234,0
1690138,47,10,233,0
1690149,45,9,231,0
1690160,42,5,229,0
1690171,33,6,225,0
1690182,22,2,222,0
1690193,22,0,220,0
1690204,27,1,220,0
1690215,23,3,217,0
1690226,21,10,221,0
1690237,23,10,222,0
1690248,23,9,221,0
1690259,26,11,220,0
1690270,29,11,219,0
1690281,24,11,216,0
1690293,21,11,217,0
1690303,26,13,218,0
1690314,27,14,218,0
1690325,28,15,220,0
1690336,32,17,223,0
1690347,36,24,224,0
1690358,36,26,224,0
1690369,35,29,227,0
1690380,32,32,228,0
1690392,30,34,229,0
1690403,27,34,228,0
1690413,27,36,225,0
1690424,26,37,225,0
1690435,25,37,224,0
1690446,25,35,223,0
1690457,26,33,222,0
1690468,28,28,223,0
1690479,28,25,220,0
1690491,30,25,219,0
1690501,32,23,222,0
1690512,34,33,235,0
1690523,36,44,246,0
1690534,31,59,251,0
1690545,20,68,252,0
1690556,4,68,254,0
1690567,-2,66,253,0
1690578,-8,66,248,0
1690589,-8,68,237,0
1690600,0,70,227,0
1690612,10,79,236,1
1690622,15,58,262,0
1690633,17,45,275,0
1690644,10,47,270,0
1690655,10,48,283,0
1690666,28,49,288,0
1690678,51,22,304,0
1690688,62,20,290,0
1690699,70,17,266,0
1690710,82,10,246,0
1690721,96,2,223,0
1690732,105,-5,205,0
1690744,112,-11,188,0
1690754,114,-19,174,0
1690766,116,-20,162,0
1690778,117,-7,162,0
1690788,111,1,175,0
1690799,100,2,183,0
1690810,94,2,195,0
1690821,90,0,209,0
1690832,68,9,244,0
1690843,52,14,259,0
1690854,44,17,273,0
1690865,37,19,280,0
1690876,29,21,277,0
1690887,18,17,264,0
1690898,13,19,257,0
1690909,14,23,250,0
1690920,19,25,240,0
1690931,22,28,231,0
1690942,29,23,224,0
1690953,37,20,224,0
1690964,44,21,221,0
1690975,46,17,220,0
1690986,45,18,217,0
1690997,48,18,207,0
1691008,51,17,204,0
1691019,48,19,202,0
1691030,39,20,199,0
1691041,28,19,195,0
1691053,19,18,196,0
1691063,13,18,197,0
1691074,9,15,197,0
1691085,4,13,193,0
1691096,1,14,194,0
1691107,1,15,196,0
1691118,1,15,195,0
1691129,2,15,199,0
1691141,1,15,204,0
1691151,2,17,210,0
1691162,1,17,214,0
1691173,0,23,226,0
1691184,0,23,229,0
1691195,-3,23,240,0
1691206,-3,20,244,0
1691217,-4,18,244,0
1691228,-2,12,240,0
1691239,-4,12,247,0
1691250,-6,10,251,0
1691261,-11,14,251,0
1691272,-15,21,257,0
1691283,-11,24,260,0
1691295,33,2,304,1
1691305,74,50,377,0
1691316,57,77,375,0
1691328,58,5,352,0
1691338,105,-2,361,0
1691349,97,21,338,0
1691360,88,-5,284,0
1691371,59,-26,224,0
1691382,37,-31,189,0
1691393,26,-34,168,0
1691404,24,-29,151,0
1691416,22,-19,146,0
1691426,18,-7,149,0
1691437,26,-3,170,0
1691448,37,-5,179,0
1691459,49,-5,179,0
1691470,63,-3,181,0
1691481,84,-6,192,0
1691493,107,-4,206,0
1691503,129,-7,213,0
1691514,119,-16,197,0
1691525,100,-21,191,0
1691536,81,-12,197,0
1691547,69,-3,209,0
1691558,53,3,213,0
1691569,41,5,216,0
1691580,36,4,222,0
1691591,31,3,224,0
1691603,27,6,219,0
1691613,25,5,218,0
1691624,18,5,215,0
1691635,15,1,215,0
1691646,10,2,209,0
1691657,6,0,207,0
1691668,12,0,206,0
1691679,14,0,210,0
1691691,16,0,215,0
1691701,16,1,221,0
1691712,16,3,227,0
1691723,17,5,231,0
1691734,12,10,237,0
1691746,14,7,240,0
1691756,12,9,240,0
1691767,9,5,236,0
1691778,5,5,231,0
1691789,2,4,222,0
1691800,3,2,220,0
1691811,2,-1,218,0
1691822,5,-5,214,0
1691833,5,-7,209,0
1691844,6,-4,211,0
1691855,2,0,215,0
1691866,-3,3,218,0
1691878,-8,3,222,0
1691888,-14,4,225,0
1691900,-20,1,228,1
1691910,-26,0,228,0
1691921,-19,8,226,0
1691932,4,25,218,0
1691943,-11,-16,267,0
1691954,-10,-46,269,0
1691965,-17,-17,262,0
1691976,-32,-3,277,0
1691987,-28,18,308,0
1691998,11,-7,337,0
1692009,37,-4,336,0
1692020,63,12,332,0
1692031,87,29,320,0
1692042,103,28,294,0
1692053,112,23,259,0
1692064,119,19,219,0
1692075,123,12,180,0
1692086,123,6,152,0
1692097,112,5,136,0
1692108,95,1,128,0
1692119,84,2,139,0
1692130,68,8,159,0
1692141,55,17,185,0
1692153,38,15,205,0
1692163,0,21,249,0
1692174,0,24,272,0
1692185,4,24,277,0
1692196,12,18,274,0
1692207,24,14,264,0
1692218,25,11,251,0
1692229,31,9,243,0
1692241,35,8,230,0
1692251,38,5,221,0
1692262,41,3,215,0
1692273,44,7,212,0
1692284,49,5,209,0
1692295,51,6,208,0
1692306,49,8,206,0
1692317,44,6,205,0
1692328,22,6,206,0
1692340,14,4,210,0
1692351,3,3,211,0
1692362,-6,0,212,0
1692373,-14,-3,214,0
1692384,-20,-9,211,0
1692395,-22,-11,206,0
1692406,-26,-9,206,0
1692417,-30,-9,210,0
1692428,-27,-17,204,0
1692439,-18,-23,191,0
1692450,-12,-18,184,0
1692461,-10,-3,185,0
1692472,-13,6,201,0
1692483,-11,-6,228,0
1692494,-18,21,227,0
1692505,-40,41,244,0
1692516,-51,24,263,0
1692528,-47,17,269,0
1692538,-40,2,273,0
1692549,-22,-7,267,0
1692560,-21,3,269,0
1692571,-9,1,282,0
1692582,54,3,372,0
1692593,56,56,376,0
1692605,61,27,385,1
1692615,86,-20,356,0
1692626,80,5,300,0
1692637,66,0,288,0
1692648,64,-2,286,0
1692659,62,-12,260,0
1692670,49,-42,213,0
1692681,45,-31,188,0
1692693,52,-28,168,0
1692703,54,-25,157,0
1692714,53,-18,155,0
1692725,48,-14,154,0
1692736,42,-15,164,0
1692748,43,-5,173,0
1692758,48,0,188,0
1692769,61,1,202,0
1692780,79,0,212,0
1692792,94,1,219,0
1692803,103,-2,220,0
1692813,96,-2,214,0
1692824,90,1,208,0
1692835,70,0,202,0
1692846,48,2,201,0
1692857,39,3,203,0
1692868,36,2,209,0
1692879,37,6,215,0
1692891,32,9,220,0
1692901,32,10,227,0
1692912,32,10,226,0
1692923,28,6,224,0
1692934,20,5,222,0
1692945,17,6,221,0
1692956,11,7,217,0
1692967,6,5,212,0
1692978,1,6,211,0
1692989,0,4,214,0
1693000,0,4,222,0
1693011,-1,3,230,0
1693022,0,7,237,0
1693033,5,6,238,0
1693044,8,4,236,0
1693055,10,2,235,0
1693066,10,0,229,0
1693078,4,-2,224,0
1693088,6,-7,221,0
1693099,7,-6,221,0
1693110,3,-4,216,0
1693121,1,-1,215,0
1693132,-1,1,215,0
1693143,-2,-1,214,0
1693154,-6,-1,217,0
1693165,-6,-1,223,0
1693176,-3,-2,227,0
1693187,1,-2,231,0
1693198,0,-4,231,0
1693209,-3,-3,227,0
1693221,-8,-1,226,1
1693231,-15,2,225,0
1693242,-23,5,230,0
1693253,-31,2,231,0
1693264,-14,10,220,0
1693275,-3,10,243,0
1693286,-15,-55,272,0
1693297,-2,-46,262,0
1693308,-4,-11,258,0
1693319,17,16,300,0
1693330,44,9,315,0
1693341,69,5,310,0
1693353,91,14,302,1
1693363,106,12,292,0
1693374,111,10,274,0
1693385,114,8,246,0
1693396,119,3,209,0
1693407,122,3,173,0
1693418,115,3,148,0
1693430,110,7,145,0
1693441,100,18,162,0
1693453,89,31,183,0
1693463,71,37,200,0
1693474,19,39,242,0
1693485,5,41,265,0
1693496,-4,43,281,0
1693507,-1,40,278,0
1693518,1,30,263,0
1693529,7,25,259,0
1693541,14,16,252,0
1693551,20,13,244,0
1693562,29,7,228,0
1693573,32,9,220,0
1693584,34,9,217,0
1693595,38,7,214,0
1693606,33,14,210,0
1693617,29,16,204,0
1693628,30,15,202,0
1693639,22,15,195,0
1693650,17,11,195,0
1693661,15,11,200,0
1693672,12,8,205,0
1693683,11,3,208,0
1693694,5,1,209,0
1693705,2,0,207,0
1693716,-2,0,205,0
1693728,-5,-2,201,0
1693738,-2,0,201,0
1693750,-1,-2,197,0
1693760,-3,-7,191,0
1693771,-2,-1,191,0
1693782,-5,4,197,0
1693793,-11,6,213,0
1693804,-9,5,229,0
1693815,-5,14,232,0
1693826,-4,23,241,0
1693837,-8,44,254,0
1693848,-21,42,262,0
1693859,-28,23,271,0
1693870,-30,12,270,0
1693881,-35,11,268,0
1693894,-41,11,262,1
1693904,-44,1,252,0
1693916,-33,-17,258,0
1693926,29,-30,337,0
1693937,65,28,386,0
1693948,85,-1,311,0
1693959,115,-34,324,0
1693970,144,-30,343,0
1693981,133,-4,305,0
1693993,96,-17,251,0
1694003,66,-32,208,0
1694014,51,-28,192,0
1694025,46,-17,169,0
1694036,46,43,137,0
1694047,60,-91,184,0
1694058,59,3,162,0
1694069,61,-2,176,0
1694080,58,-3,176,0
1694092,57,20,185,0
1694103,65,14,196,0
1694113,83,4,209,0
1694124,91,0,212,0
1694137,103,-6,213,0
1694147,112,-10,213,0
1694158,114,-6,217,0
1694169,106,-1,215,0
1694180,91,-4,209,0
1694192,76,-1,205,0
1694203,65,6,209,0
1694213,59,13,210,0
1694224,52,19,217,0
1694235,48,24,221,0
1694246,46,22,225,0
1694257,44,21,224,0
1694268,36,13,220,0
1694279,32,12,217,0
1694291,30,7,215,0
1694301,28,7,211,0
1694312,29,6,211,0
1694323,27,8,211,0
1694334,25,12,216,0
1694345,22,12,224,0
1694357,16,10,230,0
1694368,11,11,230,0
1694379,7,11,229,0
1694391,11,9,228,0
1694401,12,10,222,0
1694412,8,11,223,0
1694423,8,9,216,0
1694434,4,12,212,0
1694445,0,7,212,0
1694456,-5,4,217,0
1694467,-5,6,219,0
1694478,-12,16,225,0
1694489,-15,20,227,0
1694502,-20,23,231,0
1694512,-21,23,230,0
1694523,-20,17,233,0
1694534,-16,17,236,0
1694545,-16,17,240,0
1694556,-15,10,246,0
1694567,-15,-8,245,0
1694578,-19,-18,241,0
1694589,-25,-18,239,0
1694600,-31,-25,239,0
1694611,-37,-26,243,0
1694622,-41,-24,244,0
1694633,-41,-20,243,0
1694644,-34,-17,243,0
1694655,-25,-14,244,0
1694666,-17,-9,238,0
1694678,20,5,235,0
1694689,-1,-38,275,1
1694699,2,-65,278,0
1694710,14,-17,263,0
1694721,17,-4,253,0
1694732,48,7,260,0
1694743,64,-1,269,0
1694754,88,6,267,0
1694765,106,24,251,0
1694776,132,29,240,0
1694787,152,41,213,0
1694798,162,44,186,0
1694809,174,45,165,0
1694820,172,51,160,0
1694831,164,51,170,0
1694842,157,41,189,0
1694853,132,40,213,0
1694864,102,37,234,0
1694875,71,39,251,0
1694886,41,40,261,0
1694897,-2,39,266,0
1694908,-15,31,262,0
1694919,-9,24,251,0
1694930,-7,21,234,0
1694941,-13,26,236,0
1694953,-13,27,235,0
1694963,-14,29,235,0
1694974,-13,28,232,0
1694985,-12,28,222,0
1694996,-6,26,219,0
1695007,-6,20,208,0
1695018,-7,20,204,0
1695029,-5,17,200,0
1695041,-3,13,196,0
1695051,-1,13,194,0
1695062,1,4,196,0
1695073,3,12,198,0
1695084,1,4,198,0
1695095,-1,4,201,0
1695106,-7,0,205,0
1695117,-4,-6,197,0
1695128,-2,-4,193,0
1695139,-2,-1,200,0
1695150,-3,0,208,0
1695161,-1,-1,214,0
1695172,0,0,220,0
1695183,3,3,228,0
1695194,0,11,234,0
1695205,-7,11,244,0
1695216,-19,8,246,0
1695228,-36,5,248,0
1695238,-41,3,240,0
1695249,-40,2,244,0
1695260,-43,1,237,0
1695271,-44,0,233,0
1695282,-42,-8,230,0
1695293,-37,-8,227,0
1695304,-38,-8,225,0
1695315,-32,-15,226,0
1695326,-25,-24,230,0
1695337,-15,-28,238,0
1695348,-3,-28,249,0
1695360,5,-27,267,1
1695370,12,-27,283,0
1695381,34,-30,302,0
1695393,34,-36,322,0
1695403,69,-59,306,0
1695414,109,-17,292,0
1695426,108,13,315,0
1695436,124,-13,334,0
1695447,184,1,373,0
1695458,192,42,358,0
1695469,117,14,254,0
1695480,62,11,208,0
1695492,48,31,192,0
1695503,33,17,170,0
1695513,13,63,155,0
1695524,26,-76,186,0
1695535,9,31,142,0
1695547,36,10,148,0
1695558,45,-1,160,0
1695569,50,9,181,0
1695580,67,7,196,0
1695592,88,3,206,0
1695603,101,4,210,0
1695613,114,8,209,0
1695624,128,11,211,0
1695635,139,3,214,0
1695646,150,-4,211,0
1695657,152,-9,203,0
1695668,137,-6,199,0
1695679,120,-5,194,0
1695691,100,-2,196,0
1695701,81,0,199,0
1695712,50,9,209,0
1695723,37,14,220,0
1695734,22,18,227,0
1695745,11,14,228,0
1695756,2,13,227,0
1695767,0,9,224,0
1695778,-1,5,223,0
1695789,-1,6,220,0
1695801,-2,7,217,0
1695811,-4,4,215,0
1695822,-7,6,217,0
1695833,-6,5,218,0
1695844,-8,6,220,0
1695855,-10,6,220,0
1695866,-2,3,221,0
1695878,0,5,225,0
1695888,0,4,224,0
1695899,3,5,225,0
1695910,5,6,222,0
1695921,9,6,221,0
1695932,11,6,220,0
1695943,15,6,222,0
1695954,18,3,222,0
1695965,24,-2,219,0
1695976,26,-4,218,0
1695987,27,-7,216,0
1695998,26,-5,213,0
1696009,24,-2,211,0
1696020,21,1,212,0
1696032,20,13,218,1
1696042,17,17,222,0
1696053,9,10,228,0
1696064,-2,3,231,0
1696075,-12,3,230,0
1696086,-20,6,230,0
1696097,-12,18,227,0
1696108,8,36,245,0
1696119,5,-20,290,0
1696130,12,-32,293,0
1696141,1,-5,281,0
1696153,3,4,292,0
1696163,13,20,309,0
1696174,21,8,311,0
1696185,34,-5,309,0
1696196,47,-2,304,0
1696207,63,9,300,0
1696218,103,20,267,0
1696229,112,15,239,0
1696241,120,7,200,0
1696251,128,0,169,0
1696262,128,0,144,0
1696273,124,-1,126,0
1696284,116,0,129,0
1696295,104,-1,144,0
1696306,86,-1,160,0
1696317,70,6,184,0
1696328,47,6,201,0
1696340,19,15,229,0
1696351,4,25,264,0
1696362,5,30,301,0
1696373,8,24,289,0
1696384,15,19,277,0
1696395,23,12,259,0
1696406,24,7,243,0
1696417,31,4,232,0
1696428,34,7,228,0
1696439,38,6,221,0
1696450,42,6,216,0
1696461,43,9,215,0
1696472,42,11,211,0
1696483,43,9,208,0
1696494,40,6,208,0
1696505,33,8,203,0
1696516,25,5,204,0
1696528,11,2,209,0
1696538,3,1,212,0
1696549,-4,-2,213,0
1696560,-13,-12,215,0
1696571,-14,-12,213,0
1696582,-22,-5,209,0
1696593,-26,-6,215,0
1696604,-24,-17,213,0
1696615,-10,-14,190,0
1696626,-6,1,181,0
1696637,-5,17,187,0
1696648,-15,15,208,0
1696659,-18,2,227,0
1696670,-22,6,231,0
1696681,-28,11,233,0
1696693,-26,29,256,0
1696703,-37,41,278,0
1696714,-40,25,281,0
1696725,-34,20,282,0
1696736,-24,19,286,0
1696748,13,0,312,1
1696758,60,24,388,0
1696769,50,78,369,0
1696780,47,2,366,0
1696791,32,-26,324,0
1696803,27,-19,308,0
1696813,42,9,304,0
1696825,35,8,282,0
1696835,24,-14,234,0
1696846,3,-21,199,0
1696857,22,-24,186,0
1696868,62,-31,168,0
1696879,64,-31,165,0
1696891,64,-17,169,0
1696901,62,-12,174,0
1696912,58,-7,181,0
1696923,58,-8,190,0
1696934,63,-3,197,0
1696945,67,-3,206,0
1696956,71,-6,207,0
1696967,73,-8,210,0
1696978,73,-10,210,0
1696989,73,-13,211,0
1697000,60,-7,214,0
1697011,50,0,215,0
1697022,48,0,207,0
1697033,30,0,208,0
1697044,30,2,213,0
1697055,31,2,218,0
1697066,30,1,219,0
1697078,28,1,223,0
1697088,27,1,224,0
1697099,21,1,221,0
1697110,18,-1,221,0
1697121,15,-3,215,0
1697132,15,-1,209,0
1697143,15,-2,206,0
1697154,20,-3,208,0
1697165,19,0,211,0
1697176,16,2,216,0
1697187,13,2,220,0
1697198,3,6,230,0
1697209,0,11,234,0
1697220,-4,15,237,0
1697231,-5,18,233,0
1697242,-5,19,230,0
1697253,-3,19,229,0
1697264,-1,14,225,0
1697275,2,5,218,0
1697286,9,1,213,0
1697297,15,-6,213,0
1697308,20,-10,212,0
1697319,25,-16,212,0
1697330,27,-14,214,0
1697341,26,-11,218,0
1697353,25,-3,222,1
1697363,13,7,230,0
1697374,6,8,234,0
1697385,-1,11,238,0
1697396,-3,15,235,0
1697407,4,27,233,0
1697418,4,11,248,0
1697429,1,-13,259,0
1697441,-11,-15,256,0
1697451,-18,-1,262,0
1697462,-19,9,276,0
1697473,-2,11,292,0
1697484,19,8,299,0
1697495,36,4,302,0
1697506,51,5,303,0
1697517,68,10,290,0
1697528,99,17,259,0
1697539,105,14,235,0
1697550,107,6,206,0
1697561,110,0,183,0
1697572,108,-10,156,0
1697583,112,-13,144,0
1697594,101,-14,133,0
1697605,90,-12,138,0
1697616,78,-11,154,0
1697628,66,-5,174,0
1697638,56,-1,195,0
1697649,46,7,216,0
1697660,33,17,243,0
1697671,18,29,273,0
1697682,18,36,302,0
1697693,26,32,301,0
1697704,28,28,290,0
1697715,30,24,278,0
1697726,31,20,264,0
1697737,32,14,248,0
1697748,33,8,236,0
1697759,35,11,232,0
1697770,38,8,227,0
1697781,34,7,218,0
1697793,38,8,213,0
1697803,37,10,210,0
1697814,35,8,205,0
1697825,28,8,205,0
1697836,27,8,208,0
1697847,21,6,203,0
1697858,5,7,201,0
1697869,1,3,203,0
1697880,-9,5,197,0
1697892,-19,6,196,0
1697903,-24,4,198,0
1697913,-26,3,200,0
1697924,-27,2,203,0
1697935,-20,0,201,0
1697946,-8,2,196,0
1697957,0,7,203,0
1697968,5,13,212,0
1697979,5,23,223,0
1697991,2,25,231,0
1698001,0,26,234,0
1698012,-1,30,239,0
1698023,-5,35,255,0
1698034,-6,10,273,0
1698045,0,8,275,0
1698056,3,13,275,0
1698067,8,12,276,0
1698078,31,3,307,0
1698089,60,40,341,0
1698101,48,71,334,1
1698111,39,35,321,0
1698122,41,1,291,0
1698133,30,-6,261,0
1698144,21,-13,253,0
1698155,24,-5,272,0
1698166,16,20,280,0
1698178,9,32,262,0
1698188,19,2,231,0
1698199,27,-17,202,0
1698210,37,-25,181,0
1698221,42,-30,171,0
1698232,48,-25,174,0
1698243,55,-20,181,0
1698254,57,-5,188,0
1698265,57,6,195,0
1698276,60,14,196,0
1698287,64,16,202,0
1698297,69,18,209,0
1698308,74,23,216,0
1698319,72,21,217,0
1698329,73,9,215,0
1698341,76,4,212,0
1698351,75,5,211,0
1698361,71,5,213,0
1698372,67,6,213,0
1698382,56,2,212,0
1698393,48,0,211,0
1698404,44,1,213,0
1698414,39,4,221,0
1698424,37,3,227,0
1698435,33,2,232,0
1698446,34,5,234,0
1698457,28,7,231,0
1698468,28,9,227,0
1698479,24,8,220,0
1698491,22,8,215,0
1698501,20,9,213,0
1698512,19,10,213,0
1698522,19,8,215,0
1698532,16,11,218,0
1698543,12,12,222,0
1698554,10,13,225,0
1698565,7,14,228,0
1698575,5,16,233,0
1698585,6,18,234,0
1698596,3,17,234,0
1698607,3,16,233,0
1698618,5,14,233,0
1698628,8,13,231,0
1698639,12,9,227,0
1698649,15,9,224,0
1698660,20,8,225,0
1698671,25,3,222,0
1698682,34,2,220,0
1698693,39,-1,222,0
1698704,44,-13,222,0
1698715,44,-15,220,0
1698725,44,-13,222,0
1698735,42,-14,222,0
1698745,42,-14,222,0
1698756,33,-3,217,0
1698768,25,6,212,1
1698778,17,14,213,0
1698789,10,15,215,0
1698799,3,15,216,0
1698810,5,20,212,0
1698821,20,42,215,0
1698831,34,54,234,0
1698842,47,35,259,0
1698853,46,9,270,0
1698864,25,-2,273,0
1698874,2,-1,278,0
1698885,-9,-1,283,0
1698896,0,0,280,0
1698907,22,10,285,0
1698918,43,28,292,0
1698929,59,40,289,0
1698939,72,41,278,0
1698949,81,40,263,0
1698960,88,36,240,0
1698971,91,27,216,0
1698981,95,14,198,0
1698993,96,6,181,0
1699003,99,1,169,0
1699014,87,-6,148,0
1699024,83,-6,160,0
1699034,74,5,177,0
1699045,58,11,192,0
1699056,46,22,208,0
1699067,25,31,228,0
1699078,26,38,254,0
1699088,28,36,271,0
1699098,30,38,272,0
1699109,34,33,261,0
1699119,32,40,262,0
1699129,38,35,263,0
1699139,43,30,262,0
1699149,54,21,255,0
1699160,61,13,248,0
1699171,66,4,241,0
1699181,69,2,233,0
1699193,66,3,229,0
1699203,59,4,228,0
1699214,53,4,222,0
1699224,44,4,220,0
1699234,34,4,226,0
1699245,26,2,229,0
1699256,18,6,234,0
1699267,12,9,237,0
1699278,6,10,236,0
1699288,3,11,235,0
1699299,-1,14,235,0
1699310,-6,9,231,0
1699322,-3,21,235,0
1699333,-1,23,230,0
1699344,0,32,227,0
1699355,2,34,231,0
1699366,7,37,234,0
1699378,12,38,236,0
1699388,8,40,237,0
1699399,10,43,235,0
1699410,9,43,231,0
1699421,6,43,229,0
1699432,3,45,226,0
1699443,1,44,223,0
1699454,0,43,219,0
1699465,-1,38,220,0
1699478,-1,44,220,0
1699488,6,36,230,0
1699499,9,31,236,0
1699510,18,40,238,0
1699521,18,48,237,0
1699532,14,51,233,0
1699543,24,40,237,0
1699554,34,32,231,0
1699565,45,28,229,0
1699576,56,24,225,0
1699587,57,38,225,0
1699598,78,42,234,0
1699609,77,45,228,0
1699621,65,41,225,1
1699631,70,41,250,0
1699642,66,63,273,0
1699653,50,76,295,0
1699664,26,66,280,0
1699675,2,34,245,0
1699686,-22,-3,208,0
1699697,-19,-37,190,0
1699708,-8,-64,192,0
1699719,2,-73,201,0
1699730,20,-63,215,0
1699741,41,-46,218,0
1699753,55,-21,221,0
1699763,60,1,216,0
1699774,66,7,213,0
1699785,64,17,210,0
1699796,65,17,214,0
1699807,62,10,212,0
1699818,65,4,214,0
1699829,61,1,213,0
1699841,54,3,211,0
1699851,49,11,214,0
1699862,43,13,217,0
1699873,37,15,218,0
1699884,34,16,219,0
1699895,33,16,219,0
1699906,35,18,219,0
1699917,39,24,220,0
1699928,42,23,220,0
1699939,47,27,220,0
1699950,54,27,219,0
1699961,58,27,218,0
1699972,60,29,217,0
1699983,58,32,212,0
1699994,54,29,211,0
1700005,52,27,213,0
1700016,52,28,217,0
1700028,53,29,220,0
1700038,56,29,226,0
1700049,61,33,233,0
1700060,62,36,236,0
1700071,63,40,235,0
1700082,61,38,233,0
1700093,53,36,230,0
1700104,45,34,223,0
1700115,39,31,222,0
1700126,30,32,221,0
1700137,22,32,223,0
1700149,24,27,228,0
1700159,28,21,234,0
1700170,40,20,233,0
1700181,49,21,236,0
1700193,53,20,238,0
1700203,53,18,241,0
1700214,47,19,245,0
1700225,42,30,248,0
1700237,30,47,246,0
1700247,15,59,240,0
1700258,1,64,236,0
1700270,-5,64,227,0
1700280,-2,67,217,0
1700292,3,66,220,0
1700303,7,47,237,1
1700313,8,29,274,0
1700324,20,36,278,0
1700335,39,45,291,0
1700346,54,46,306,0
1700357,61,32,310,0
1700368,61,23,303,0
1700379,65,27,287,0
1700391,73,22,266,0
1700401,83,12,245,0
1700412,91,1,222,0
1700423,99,-7,202,0
1700434,107,-18,185,0
1700445,113,-18,175,0
1700456,115,-10,171,0
1700467,110,-6,172,0
1700478,101,-4,176,0
1700489,76,-1,198,0
1700500,65,-4,206,0
1700511,53,-1,220,0
1700522,40,2,234,0
1700533,30,11,248,0
1700544,24,11,262,0
1700555,20,4,264,0
1700566,19,5,259,0
1700578,22,7,251,0
1700589,27,5,240,0
1700600,35,5,230,0
1700612,42,4,219,0
1700622,46,5,208,0
1700633,49,7,210,0
1700644,53,6,212,0
1700655,58,5,213,0
1700666,59,4,208,0
1700678,59,10,213,0
1700688,55,13,217,0
1700699,52,10,215,0
1700710,44,10,210,0
1700721,32,7,206,0
1700732,26,-5,218,0
1700743,18,36,214,0
1700754,-18,34,204,0
1700765,-32,16,208,0
1700776,-37,26,216,0
1700787,-41,28,219,0
1700798,-41,29,216,0
1700809,-35,27,213,0
1700820,-27,22,213,0
1700831,-17,23,216,0
1700842,-8,27,226,0
1700853,-1,29,231,0
1700864,2,25,232,0
1700875,3,21,237,0
1700886,4,12,240,0
1700897,6,4,243,0
1700908,9,-1,244,0
1700919,11,-2,245,0
1700930,10,-2,245,0
1700942,8,1,241,1
1700953,19,2,262,0
1700964,71,8,343,0
1700975,87,81,368,0
1700986,78,57,368,0
1700997,81,16,352,0
1701008,85,25,334,0
1701019,97,11,347,0
1701031,80,10,324,0
1701042,65,-7,272,0
1701053,44,-29,216,0
1701064,20,-43,185,0
1701075,13,-57,162,0
1701086,12,-57,147,0
1701097,24,-51,145,0
1701108,49,-12,171,0
1701119,55,-3,182,0
1701130,60,1,183,0
1701141,62,0,190,0
1701153,69,0,201,0
1701163,77,0,213,0
1701174,85,-1,219,0
1701186,89,-7,214,0
1701197,88,-16,209,0
1701208,87,-19,204,0
1701219,80,-18,206,0
1701230,66,-17,209,0
1701241,55,-10,212,0
1701253,45,-1,219,0
1701263,37,0,214,0
1701274,29,0,214,0
1701285,23,0,212,0
1701296,15,2,212,0
1701307,6,4,210,0
1701318,1,1,212,0
1701329,-3,2,215,0
1701341,-6,3,218,0
1701351,-6,2,217,0
1701362,-3,3,216,0
1701373,-1,4,215,0
1701384,1,5,218,0
1701395,7,5,224,0
1701406,11,4,229,0
1701417,14,4,235,0
1701428,14,4,237,0
1701439,14,1,234,0
1701450,14,1,231,0
1701461,12,1,229,0
1701472,10,0,226,0
1701483,12,0,223,0
1701494,13,-3,217,0
1701505,13,-5,213,0
1701516,16,-7,210,0
1701528,19,-9,208,0
1701538,21,-7,208,0
1701549,23,-5,209,0
1701560,25,-2,214,0
1701571,22,0,214,0
1701582,17,6,216,0
1701593,1,12,221,0
1701605,-8,17,226,1
1701615,-13,20,231,0
1701626,-3,20,225,0
1701638,3,7,240,0
1701648,-4,-33,268,0
1701659,-6,-25,268,0
1701670,-13,-10,269,0
1701682,-13,-8,290,0
1701693,-5,7,297,0
1701703,10,14,304,0
1701714,27,10,318,0
1701725,40,5,318,0
1701736,58,17,319,0
1701747,70,20,313,0
1701758,89,26,266,0
1701769,93,20,241,0
1701780,91,14,217,0
1701792,89,4,190,0
1701803,85,0,166,0
1701813,77,-5,151,0
1701824,65,-6,151,0
1701835,55,-5,161,0
1701846,49,-5,178,0
1701857,45,5,203,0
1701868,41,14,224,0
1701879,34,18,240,0
1701891,32,27,253,0
1701901,22,30,265,0
1701912,22,24,273,0
1701923,28,8,253,0
1701934,29,4,241,0
1701945,28,4,234,0
1701956,26,2,220,0
1701967,22,0,213,0
1701978,20,-2,209,0
1701989,23,1,206,0
1702000,21,8,205,0
1702011,20,8,206,0
1702022,23,9,209,0
1702033,26,6,207,0
1702044,29,4,205,0
1702055,28,3,208,0
1702066,24,2,208,0
1702078,18,1,207,0
1702088,9,-6,205,0
1702099,1,-7,202,0
1702110,-5,-9,204,0
1702121,-9,-9,203,0
1702132,-13,-10,205,0
1702143,-16,-10,204,0
1702154,-18,-13,208,0
1702165,-18,-10,208,0
1702176,-18,-10,210,0
1702187,-16,-9,214,0
1702198,-15,-6,220,0
1702209,-16,-1,224,0
1702220,-18,6,233,0
1702232,-24,9,240,1
1702242,-25,7,250,0
1702253,-23,-1,269,0
1702264,-16,-9,265,0
1702275,-4,-6,269,0
1702286,1,-4,268,0
1702297,-8,2,263,0
1702308,-10,-3,267,0
1702319,28,-15,326,0
1702330,54,35,376,0
1702341,31,49,337,0
1702353,35,-25,323,0
1702363,34,-5,286,0
1702374,43,5,283,0
1702385,80,-18,304,0
1702396,78,-7,292,0
1702407,67,10,265,0
1702418,61,0,200,0
1702429,60,0,179,0
1702441,54,10,169,0
1702451,39,1,159,0
1702462,27,-8,163,0
1702473,19,-14,170,0
1702484,13,-18,181,0
1702495,27,-26,194,0
1702506,43,-22,208,0
1702517,62,-26,214,0
1702528,82,-26,215,0
1702539,92,-19,208,0
1702550,84,-20,206,0
1702561,72,-13,209,0
1702572,64,-12,210,0
1702583,50,6,221,0
1702594,45,9,222,0
1702605,40,11,220,0
1702616,40,13,216,0
1702628,38,12,217,0
1702638,33,10,215,0
1702649,29,10,212,0
1702660,21,11,212,0
1702671,18,12,212,0
1702682,8,13,216,0
1702693,3,10,216,0
1702704,1,7,217,0
1702715,0,5,222,0
1702726,0,4,226,0
1702737,1,3,227,0
1702748,-5,3,232,0
1702759,-9,3,232,0
1702770,-8,0,229,0
1702781,-8,-1,223,0
1702793,-4,-3,219,0
1702803,-1,-3,219,0
1702814,2,-3,222,0
1702825,7,-1,224,0
1702836,11,1,224,0
1702848,12,0,222,0
1702859,15,0,217,0
1702870,15,1,217,0
1702881,14,4,214,0
1702893,12,4,215,0
1702903,14,12,216,0
1702914,14,15,217,0
1702925,15,17,218,0
1702936,9,16,224,0
1702947,2,13,225,0
1702958,-8,5,230,0
1702969,-20,1,232,0
1702980,-35,1,233,0
1702992,-44,-2,232,1
1703003,-49,-2,229,0
1703013,-33,4,218,0
1703024,-8,13,227,0
1703035,-17,-44,278,0
1703046,4,-42,281,0
1703057,-1,1,267,0
1703068,-20,3,310,0
1703079,0,2,319,0
1703091,26,11,308,0
1703101,46,22,301,0
1703112,65,30,295,0
1703123,88,34,280,0
1703134,101,26,245,0
1703145,106,23,206,0
1703156,104,22,168,0
1703167,98,15,139,0
1703178,95,10,137,0
1703189,80,14,141,0
1703200,64,22,156,0
1703211,52,25,182,0
1703222,37,30,217,0
1703233,-10,37,289,0
1703244,-23,34,310,0
1703255,-27,31,307,0
1703266,-19,31,297,0
1703278,-5,22,281,0
1703288,0,16,268,0
1703299,3,14,261,0
1703310,7,14,247,0
1703321,11,19,240,0
1703332,14,18,232,0
1703343,16,13,224,0
1703354,23,13,217,0
1703366,28,14,208,0
1703376,33,12,203,0
1703387,33,11,198,0
1703398,33,9,196,0
1703409,38,9,197,0
1703420,33,6,202,0
1703431,31,7,203,0
1703442,27,5,204,0
1703453,22,6,204,0
1703464,16,4,199,0
1703475,10,4,197,0
1703486,6,3,194,0
1703497,1,5,194,0
1703508,-1,3,194,0
1703519,-5,5,200,0
1703530,-3,8,209,0
1703541,-5,22,217,0
1703553,-8,21,230,0
1703563,1,43,220,0
1703574,-6,45,233,0
1703585,-7,39,249,0
1703596,-8,27,251,0
1703609,-7,20,247,0
1703619,-8,17,246,0
1703630,-9,15,249,0
1703641,-9,11,255,0
1703653,-9,8,257,0
1703663,-16,17,248,0
1703674,-26,23,243,0
1703685,-32,22,242,0
1703697,-35,17,244,1
1703707,-16,14,261,0
1703718,15,69,332,0
1703729,3,38,324,0
1703741,16,25,302,0
1703751,27,27,273,0
1703762,57,25,288,0
1703773,66,19,320,0
1703784,60,41,314,0
1703795,65,18,265,0
1703806,46,-2,231,0
1703817,41,-13,190,0
1703828,39,-22,172,0
1703839,35,-23,154,0
1703850,31,-24,148,0
1703861,28,-19,147,0
1703872,30,-8,157,0
1703883,34,9,187,0
1703894,49,14,205,0
1703905,60,15,233,0
1703916,67,9,241,0
1703928,70,0,224,0
1703938,72,-5,217,0
1703949,70,-2,218,0
1703960,62,-5,216,0
1703971,50,-10,211,0
1703982,42,-11,209,0
1703993,34,-13,213,0
1704004,33,-1,217,0
1704015,36,4,215,0
1704026,36,6,212,0
1704037,34,5,213,0
1704048,21,9,217,0
1704060,15,11,217,0
1704070,10,9,216,0
1704081,6,13,216,0
1704093,4,13,215,0
1704103,4,10,215,0
1704114,5,11,214,0
1704125,10,13,216,0
1704136,16,14,219,0
1704147,21,12,224,0
1704158,25,13,229,0
1704169,23,18,229,0
1704180,21,18,232,0
1704192,17,21,233,0
1704203,16,24,231,0
1704213,15,23,224,0
1704224,16,19,220,0
1704235,19,17,216,0
1704246,22,17,216,0
1704257,25,15,216,0
1704268,28,15,217,0
1704279,31,11,222,0
1704291,32,1,227,1
1704301,34,-1,227,0
1704312,33,4,225,0
1704323,36,10,231,0
1704334,32,15,231,0
1704345,32,16,235,0
1704356,24,22,234,0
1704367,13,28,229,0
1704378,29,63,221,0
1704389,33,22,260,0
1704400,38,-14,280,0
1704411,32,-5,283,0
1704422,29,7,296,0
1704433,35,35,322,0
1704444,42,38,335,0
1704455,48,25,324,0
1704466,43,29,309,0
1704478,37,34,295,0
1704488,45,31,272,0
1704499,54,26,251,0
1704510,62,18,226,0
1704521,77,4,202,0
1704532,87,-1,177,0
1704543,81,-5,144,0
1704554,78,-4,146,0
1704565,67,-1,150,0
1704576,57,2,157,0
1704587,49,14,174,0
1704598,38,21,199,0
1704609,23,22,231,0
1704620,16,22,261,0
1704631,5,21,280,0
1704642,19,15,296,0
1704653,28,9,286,0
1704664,34,12,271,0
1704675,33,6,255,0
1704686,34,7,250,0
1704698,39,17,237,0
1704710,40,13,230,0
1704720,41,11,222,0
1704731,42,13,220,0
1704742,42,15,215,0
1704753,43,16,212,0
1704764,41,12,211,0
1704775,37,15,208,0
1704786,36,12,202,0
1704797,35,11,202,0
1704808,31,11,203,0
1704819,26,11,204,0
1704830,18,12,203,0
1704841,9,11,200,0
1704853,2,10,199,0
1704863,0,7,199,0
1704874,1,7,199,0
1704885,1,8,203,0
1704896,4,8,205,0
1704907,4,14,214,0
1704918,5,13,220,0
1704930,9,15,222,0
1704941,9,20,227,0
1704953,7,20,234,0
1704963,1,18,246,0
1704974,-3,15,257,0
1704985,-8,14,258,0
1704996,-14,17,257,0
1705007,-23,17,261,0
1705018,-29,15,255,0
1705029,-37,14,246,0
1705041,-47,14,241,0
1705051,-50,12,236,0
1705063,-53,10,237,1
1705073,-31,7,250,0
1705084,23,16,344,0
1705095,21,89,340,0
1705106,12,31,335,0
1705117,42,9,296,0
1705128,55,19,266,0
1705139,87,7,299,0
1705150,97,-10,330,0
1705161,97,24,318,0
1705172,67,-18,217,0
1705183,59,-22,186,0
1705194,52,-29,159,0
1705205,45,-31,139,0
1705216,38,-25,138,0
1705228,32,-20,149,0
1705238,26,-15,162,0
1705249,29,-17,179,0
1705260,42,-16,197,0
1705271,62,-10,217,0
1705282,77,-6,229,0
1705293,83,-4,233,0
1705304,84,-7,232,0
1705315,74,-11,224,0
1705326,60,-16,214,0
1705337,41,-11,208,0
1705348,27,-6,216,0
1705359,24,-3,222,0
1705370,22,-1,225,0
1705381,19,2,223,0
1705393,22,-1,219,0
1705403,23,-1,216,0
1705414,22,2,218,0
1705425,19,3,215,0
1705436,17,4,211,0
1705447,16,1,209,0
1705458,13,2,207,0
1705469,12,0,210,0
1705480,10,1,216,0
1705492,8,2,220,0
1705503,9,4,229,0
1705513,10,8,231,0
1705524,7,10,233,0
1705535,6,12,236,0
1705546,8,13,235,0
1705557,10,12,233,0
1705568,11,8,227,0
1705579,16,4,224,0
1705591,16,1,222,0
1705601,18,-2,221,0
1705612,16,-8,220,0
1705623,18,-13,218,0
1705634,20,-14,215,0
1705645,20,-16,215,0
1705656,19,-15,216,0
1705667,17,-12,214,0
1705678,18,-3,219,0
1705689,19,-2,222,0
1705701,18,-3,226,1
1705711,14,-2,226,0
1705722,8,1,226,0
1705734,2,3,228,0
1705744,-7,2,231,0
1705755,-18,1,234,0
1705766,-30,3,235,0
1705778,-30,10,236,0
1705788,-6,28,228,0
1705799,-6,15,273,0
1705810,-3,-18,287,0
1705821,1,1,276,0
1705832,-18,3,268,0
1705843,-7,26,299,0
1705854,7,12,302,0
1705865,21,12,296,0
1705876,28,17,289,0
1705887,46,20,287,0
1705898,65,25,274,0
1705910,77,22,255,0
1705921,84,22,231,0
1705932,97,9,205,0
1705943,101,6,181,0
1705954,101,3,159,0
1705965,96,1,141,0
1705976,89,-2,143,0
1705987,81,-1,174,0
1705998,74,6,198,0
1706009,61,13,219,0
1706020,47,24,249,0
1706031,38,27,274,0
1706042,35,24,293,0
1706053,30,27,300,0
1706064,34,24,294,0
1706075,34,17,273,0
1706086,35,15,256,0
1706097,36,13,244,0
1706108,29,13,236,0
1706119,24,9,230,0
1706130,24,3,221,0
1706141,25,1,217,0
1706153,29,12,214,0
1706163,29,9,213,0
1706174,25,16,212,0
1706185,15,19,205,0
1706196,11,14,199,0
1706207,7,13,198,0
1706218,3,7,200,0
1706229,-2,3,205,0
1706241,-2,-12,210,0
1706251,0,-5,208,0
1706262,-9,-5,200,0
1706273,-18,9,208,0
1706284,-17,7,213,0
1706295,-10,-7,189,0
1706306,-3,20,162,0
1706317,-10,29,180,0
1706328,-13,18,220,0
1706340,-20,19,228,0
1706351,-22,16,236,0
1706362,-20,17,236,0
1706373,-28,36,245,0
1706384,-39,24,256,0
1706395,-35,18,263,0
1706406,-40,21,272,0
1706417,-37,10,277,0
1706428,-24,7,268,0
1706439,-3,5,270,0
1706450,46,5,308,0
1706462,67,46,342,1
1706472,56,20,326,0
1706483,52,12,286,0
1706494,65,5,291,0
1706505,87,13,332,0
1706516,70,23,329,0
1706528,50,7,273,0
1706538,41,-22,224,0
1706549,26,-30,191,0
1706560,22,-52,160,0
1706571,21,-55,148,0
1706582,32,-50,147,0
1706593,44,-40,154,0
1706604,53,-26,161,0
1706615,57,-14,171,0
1706626,65,-1,184,0
1706637,78,19,214,0
1706648,84,21,222,0
1706659,84,17,218,0
1706670,81,15,223,0
1706681,80,6,224,0
1706693,76,3,227,0
1706703,71,2,224,0
1706714,55,-2,216,0
1706725,40,-7,210,0
1706736,27,-10,208,0
1706747,20,-5,218,0
1706758,18,3,224,0
1706769,23,2,223,0
1706780,21,1,220,0
1706792,17,2,219,0
1706803,9,3,217,0
1706813,5,1,217,0
1706824,3,1,217,0
1706835,1,1,214,0
1706846,0,-1,212,0
1706857,-1,-1,211,0
1706868,-2,-1,214,0
1706879,-2,0,215,0
1706891,-2,3,220,0
1706901,-1,4,225,0
1706912,-2,9,227,0
1706923,-2,12,231,0
1706934,-3,15,230,0
1706945,-2,18,232,0
1706956,-2,21,231,0
1706967,2,14,225,0
1706978,6,13,220,0
1706989,9,9,220,0
1707000,12,8,220,0
1707011,16,2,218,0
1707022,22,-1,216,0
1707034,25,-4,214,0
1707044,25,-4,215,0
1707055,25,-2,216,0
1707066,22,5,218,0
1707078,19,13,221,0
1707088,9,21,222,0
1707099,1,24,222,0
1707110,-4,26,225,0
1707121,-14,25,225,0
1707132,-23,26,230,0
1707143,-29,20,228,0
1707154,-3,16,229,0
1707166,-2,-9,269,1
1707176,0,-11,278,0
1707187,1,8,275,0
1707198,-6,2,279,0
1707209,-1,12,283,0
1707221,6,34,280,0
1707231,17,26,287,0
1707242,27,15,292,0
1707253,39,16,290,0
1707265,60,22,290,1
1707275,83,21,284,0
1707286,95,25,263,0
1707297,104,28,238,0
1707308,114,8,190,0
1707319,115,-4,167,0
1707330,109,-12,156,0
1707341,98,-17,147,0
1707353,88,-25,151,0
1707363,83,-30,171,0
1707374,75,-30,196,0
1707385,73,-12,221,0
1707396,64,-1,237,0
1707407,50,12,255,0
1707418,32,26,272,0
1707429,9,30,284,0
1707441,4,33,303,0
1707451,-4,37,301,0
1707462,-8,33,281,0
1707473,-7,15,248,0
1707484,-2,8,232,0
1707495,2,3,223,0
1707506,8,3,225,0
1707517,17,0,221,0
1707528,35,5,224,0
1707539,45,11,223,0
1707550,51,4,216,0
1707561,57,6,207,0
1707572,62,8,200,0
1707583,62,8,195,0
1707594,58,9,194,0
1707605,55,8,195,0
1707616,44,9,197,0
1707628,32,11,201,0
1707638,11,6,200,0
1707649,4,7,195,0
1707660,-2,8,194,0
1707671,-2,12,196,0
1707682,0,11,198,0
1707693,-2,19,201,0
1707704,-9,26,210,0
1707715,-14,28,214,0
1707726,-18,31,216,0
1707737,-17,31,217,0
1707748,-19,34,226,0
1707759,-13,34,241,0
1707770,-8,31,248,0
1707782,-2,28,250,0
1707793,-1,31,254,0
1707803,-14,29,257,0
1707814,-17,22,255,0
1707825,-18,22,251,0
1707836,-15,20,253,0
1707847,-17,23,247,0
1707858,-17,24,254,0
1707869,4,10,272,0
1707880,42,3,320,0
1707892,63,31,370,0
1707903,68,42,365,0
1707914,77,11,327,1
1707924,79,-14,305,0
1707935,93,-19,307,0
1707946,89,3,296,0
1707957,64,9,257,0
1707968,22,-26,188,0
1707979,15,-38,177,0
1707991,20,-48,173,0
1708001,27,-51,172,0
1708012,40,-43,170,0
1708023,46,-9,152,0
1708034,54,-89,249,0
1708045,71,-35,178,0
1708056,74,19,210,0
1708067,87,-10,197,0
1708078,86,7,207,0
1708089,91,7,216,0
1708100,96,2,224,0
1708111,97,-6,221,0
1708122,93,-13,218,0
1708133,94,-16,214,0
1708144,105,-17,211,0
1708155,98,-19,206,0
1708166,86,-13,199,0
1708178,75,-7,203,0
1708188,69,0,214,0
1708199,66,7,224,0
1708210,68,11,227,0
1708221,70,12,226,0
1708232,71,12,226,0
1708243,67,10,227,0
1708254,59,12,227,0
1708265,52,11,224,0
1708276,48,11,222,0
1708287,46,9,218,0
1708298,42,8,215,0
1708309,42,6,223,0
1708320,40,11,230,0
1708331,36,9,236,0
1708342,28,13,240,0
1708353,20,12,239,0
1708364,14,12,238,0
1708375,8,16,237,0
1708386,6,10,238,0
1708397,6,7,236,0
1708408,4,4,233,0
1708419,2,3,230,0
1708430,-3,3,227,0
1708441,-3,3,230,0
1708453,-1,2,232,0
1708463,-4,3,230,0
1708474,-5,5,229,0
1708485,-8,5,226,0
1708496,-2,1,221,0
1708507,0,5,220,0
1708518,-1,15,227,0
1708529,-3,14,231,0
1708541,0,11,230,0
1708551,-1,12,229,0
1708562,-4,15,230,0
1708574,-8,17,228,1
1708584,-15,16,229,0
1708595,-17,14,227,0
1708606,-10,11,224,0
1708617,-2,-3,229,0
1708628,-3,-33,236,0
1708639,5,-25,217,0
1708650,11,-22,214,0
1708661,18,-30,227,0
1708672,25,-34,240,0
1708683,35,-22,248,0
1708694,40,-12,251,0
1708705,48,-2,256,0
1708716,56,5,266,0
1708728,65,15,271,0
1708738,74,26,270,0
1708749,81,35,266,0
1708760,88,39,260,0
1708771,92,38,254,0
1708782,90,34,244,0
1708793,88,24,238,0
1708804,81,5,222,0
1708815,78,2,219,0
1708826,76,-3,212,0
1708837,76,-2,206,0
1708848,77,-1,201,0
1708859,78,-2,200,0
1708870,78,-1,196,0
1708881,78,0,199,0
1708893,73,4,202,0
1708903,65,1,203,0
1708914,59,5,215,0
1708925,47,9,226,0
1708936,37,11,239,0
1708947,38,27,251,0
1708958,23,33,250,0
1708969,13,25,260,0
1708980,11,18,260,0
1708992,5,13,253,0
1709003,3,7,248,0
1709013,4,4,236,0
1709024,7,4,229,0
1709035,15,3,226,0
1709046,19,1,216,0
1709057,19,1,212,0
1709068,19,5,210,0
1709079,15,9,210,0
1709091,12,11,207,0
1709101,9,12,207,0
1709113,7,9,203,0
1709123,5,6,202,0
1709134,1,-1,207,0
1709145,0,-5,207,0
1709156,0,-8,208,0
1709167,1,-11,209,0
1709178,4,-8,211,0
1709189,5,-10,207,0
1709200,2,-7,203,0
1709211,0,-6,206,0
1709222,-2,-6,212,0
1709233,-5,-4,222,0
1709244,-9,-1,231,0
1709255,-13,2,240,0
1709266,-20,2,241,0
1709279,-25,4,240,0
1709289,-36,2,235,0
1709300,-37,0,231,0
1709311,-37,-1,230,0
1709322,-34,-6,226,0
1709333,-29,-12,225,0
1709344,-24,-13,226,0
1709355,-21,-12,230,0
1709366,-17,-13,233,0
1709378,-16,-11,237,0
1709388,-17,-12,241,0
1709399,-18,-18,247,0
1709410,-10,-33,256,0
1709421,9,-47,286,0
1709433,33,-49,319,1
1709443,51,-35,329,0
1709454,71,-39,304,0
1709465,73,-30,291,0
1709476,71,-23,264,0
1709487,67,-23,230,0
1709498,55,-34,210,0
1709509,48,-44,196,0
1709520,34,-44,189,0
1709531,25,-33,189,0
1709542,32,-26,191,0
1709553,37,-12,191,0
1709564,43,-5,251,0
1709575,80,-35,184,0
1709586,74,36,215,0
1709597,95,-12,201,0
1709608,97,8,202,0
1709619,112,5,202,0
1709630,110,7,212,0
1709642,107,6,218,0
1709653,106,7,227,0
1709663,101,4,230,0
1709674,90,4,234,0
1709685,82,5,223,0
1709696,74,8,216,0
1709707,65,8,219,0
1709718,59,12,220,0
1709729,54,16,221,0
1709740,47,17,228,0
1709751,44,18,234,0
1709762,39,23,237,0
1709773,40,25,239,0
1709784,38,25,235,0
1709795,32,22,226,0
1709806,30,19,227,0
1709817,26,14,225,0
1709828,20,9,222,0
1709839,15,7,224,0
1709850,14,4,227,0
1709861,10,3,226,0
1709872,8,4,230,0
1709883,17,6,233,0
1709894,20,7,234,0
1709905,19,9,231,0
1709917,16,14,228,0
1709928,15,13,232,0
1709938,11,14,233,0
1709949,2,11,232,0
1709961,-11,4,226,0
1709971,-18,4,226,0
1709982,-19,3,225,0
1709993,-21,4,223,0
1710004,-24,5,221,0
1710015,-26,8,222,0
1710026,-30,10,221,0
1710037,-35,16,223,0
1710048,-37,17,219,0
1710059,-37,18,220,0
1710070,-35,16,220,0
1710081,-34,16,222,0
1710093,-31,10,224,0
1710103,-25,10,225,0
1710114,-19,9,228,0
1710125,-15,6,239,0
1710137,-16,5,240,1
1710147,-19,4,244,0
1710158,-23,2,243,0
1710169,-23,1,240,0
1710180,-15,0,236,0
1710191,18,2,227,0
1710203,8,-44,257,0
1710213,20,-88,263,0
1710224,37,-40,246,0
1710235,20,-15,239,0
1710246,6,-32,266,0
1710258,20,-29,296,0
1710268,39,5,305,0
1710279,58,35,303,0
1710291,106,61,283,0
1710301,129,68,254,0
1710312,142,66,217,0
1710323,141,65,183,0
1710334,136,56,157,0
1710345,119,50,147,0
1710357,95,38,161,0
1710368,68,24,179,0
1710379,45,14,197,0
1710391,19,20,210,0
1710401,1,29,225,0
1710412,-14,26,260,0
1710423,-16,16,268,0
1710434,-1,17,276,0
1710445,20,12,256,0
1710456,30,12,250,0
1710467,34,12,237,0
1710478,38,12,229,0
1710489,40,16,223,0
1710500,36,15,215,0
1710511,35,15,214,0
1710522,33,12,214,0
1710533,25,8,206,0
1710544,21,6,207,0
1710555,19,6,205,0
1710566,10,4,202,0
1710578,5,2,201,0
1710588,2,2,199,0
1710599,-1,1,201,0
1710610,-8,1,209,0
1710621,-12,2,211,0
1710632,-16,1,206,0
1710643,-19,1,207,0
1710654,-23,2,205,0
1710665,-28,3,208,0
1710676,-30,2,207,0
1710687,-32,1,207,0
1710698,-33,2,207,0
1710709,-35,2,212,0
1710720,-38,3,219,0
1710731,-36,1,227,0
1710742,-37,1,235,0
1710753,-36,-1,243,0
1710764,-31,-2,251,0
1710775,-40,-6,269,0
1710786,-35,-25,282,0
1710797,-21,-30,288,0
1710808,0,-29,294,0
1710819,27,-35,301,0
1710830,65,-38,332,0
1710841,83,-5,342,0
1710853,91,-4,332,1
1710863,83,-13,309,0
1710874,59,-16,291,0
1710885,32,-30,279,0
1710896,10,-35,277,0
1710907,5,-5,275,0
1710918,-1,4,253,0
1710929,-5,-22,232,0
1710940,0,-25,192,0
1710951,8,-29,182,0
1710962,21,-25,169,0
1710973,35,-17,170,0
1710984,53,-13,173,0
1710995,62,0,177,0
1711006,71,6,183,0
1711017,79,9,192,0
1711028,87,9,196,0
1711039,87,15,205,0
1711050,81,13,210,0
1711061,76,16,220,0
1711072,80,12,221,0
1711083,84,5,217,0
1711094,90,2,210,0
1711105,82,1,206,0
1711116,75,5,208,0
1711128,70,6,213,0
1711138,65,9,214,0
1711149,62,7,212,0
1711161,50,9,213,0
1711171,40,14,219,0
1711182,37,13,223,0
1711193,25,16,222,0
1711204,9,14,224,0
1711215,-4,13,224,0
1711226,-11,12,225,0
1711237,-19,9,222,0
1711248,-20,7,217,0
1711259,-18,6,216,0
1711270,-15,9,223,0
1711281,-11,12,224,0
1711293,-4,13,227,0
1711303,-2,11,227,0
1711314,0,8,225,0
1711325,-2,8,226,0
1711336,-1,10,228,0
1711347,-4,10,232,0
1711358,0,4,229,0
1711369,1,1,227,0
1711380,1,2,222,0
1711391,1,-3,218,0
1711403,3,-4,213,0
1711413,7,-5,208,0
1711424,9,-10,206,0
1711435,21,-11,208,0
1711446,25,-5,214,0
1711457,25,0,219,0
1711468,21,5,225,0
1711479,15,10,226,0
1711491,7,12,228,0
1711501,1,10,227,0
1711512,-10,6,230,0
1711523,-21,2,228,0
1711534,-21,7,217,0
1711545,-3,18,224,0
1711557,-18,-19,264,1
1711567,-25,-26,275,0
1711578,-34,-4,277,0
1711589,-32,5,291,0
1711600,15,4,335,0
1711611,35,2,332,0
1711622,51,8,326,0
1711633,67,16,320,0
1711644,81,24,306,0
1711655,92,31,285,0
1711666,103,26,258,0
1711678,110,18,223,0
1711688,110,7,187,0
1711699,111,-2,155,0
1711710,109,-2,137,0
1711721,100,-1,128,0
1711732,84,2,133,0
1711743,67,7,149,0
1711754,53,10,169,0
1711765,21,12,213,0
1711776,14,21,244,0
1711787,14,25,269,0
1711798,18,21,275,0
1711809,28,20,281,0
1711821,38,14,277,0
1711832,43,12,257,0
1711843,42,13,241,0
1711854,37,16,232,0
1711865,32,20,224,0
1711876,29,14,224,0
1711887,29,11,223,0
1711898,28,10,213,0
1711909,28,9,219,0
1711920,16,10,209,0
1711931,6,11,203,0
1711942,8,10,205,0
1711953,2,7,203,0
1711964,-7,6,204,0
1711975,-12,7,211,0
1711986,-15,8,213,0
1711997,-19,5,209,0
1712008,-25,9,202,0
1712019,-31,8,200,0
1712030,-32,10,204,0
1712041,-31,7,210,0
1712053,-17,-2,209,0
1712063,-5,-1,198,0
1712074,1,11,187,0
1712085,1,14,201,0
1712096,0,6,211,0
1712107,-1,2,221,0
1712118,-2,4,230,0
1712129,-5,9,238,0
1712140,-13,21,256,0
1712151,-19,23,272,0
1712162,-21,19,277,0
1712173,-25,22,275,0
1712185,-31,32,269,0
1712195,-40,35,263,0
1712206,-52,32,271,0
1712217,-36,18,285,0
1712229,23,22,377,1
1712239,34,70,371,0
1712250,52,-2,334,0
1712261,57,16,299,0
1712272,89,9,322,0
1712283,107,-1,325,0
1712294,81,8,287,0
1712305,72,-12,230,0
1712316,60,-41,189,0
1712328,50,-38,159,0
1712338,39,-49,143,0
1712349,39,-38,141,0
1712361,38,-32,143,0
1712371,37,-28,147,0
1712382,34,-21,155,0
1712393,36,-16,169,0
1712404,44,-9,190,0
1712417,72,-7,219,0
1712428,79,-9,223,0
1712438,83,-15,218,0
1712449,84,-15,213,0
1712461,77,-14,212,0
1712471,67,-7,215,0
1712482,60,-1,217,0
1712493,50,-2,215,0
1712504,38,1,212,0
1712515,31,1,210,0
1712526,29,2,213,0
1712537,30,2,217,0
1712548,33,1,220,0
1712559,27,3,216,0
1712570,16,1,212,0
1712581,16,3,211,0
1712593,18,4,210,0
1712603,23,1,206,0
1712614,26,0,205,0
1712625,33,-4,213,0
1712636,36,-4,220,0
1712647,38,-1,222,0
1712658,33,0,229,0
1712669,33,0,233,0
1712680,28,1,236,0
1712692,23,1,234,0
1712703,19,1,233,0
1712713,16,0,229,0
1712724,10,-1,226,0
1712735,7,-13,217,0
1712746,11,-16,212,0
1712757,13,-17,207,0
1712768,12,-17,203,0
1712779,11,-15,204,0
1712791,13,-11,205,0
1712801,14,-5,210,0
1712812,16,-1,216,0
1712823,21,0,221,0
1712834,23,4,225,0
1712845,21,2,226,0
1712856,16,0,228,0
1712867,6,-1,231,0
1712878,1,0,234,0
1712890,-4,3,237,0
1712900,7,12,255,0
1712912,0,-32,271,1
1712922,1,-23,264,0
1712933,-10,-27,265,0
1712944,-15,-22,272,0
1712955,-3,8,293,0
1712966,3,7,307,0
1712978,23,-5,315,0
1712988,50,-1,318,0
1712999,77,26,320,0
1713011,98,46,311,0
1713021,119,58,296,0
1713032,128,54,266,0
1713043,132,40,229,0
1713054,140,16,191,0
1713065,136,-4,145,0
1713076,121,-10,131,0
1713087,102,-19,130,0
1713098,84,-17,149,0
1713109,68,-12,166,0
1713120,56,1,190,0
1713131,42,14,214,0
1713142,23,26,236,0
1713153,11,33,259,0
1713165,14,33,281,0
1713175,15,30,280,0
1713186,20,28,280,0
1713197,19,21,269,0
1713209,19,15,258,0
1713219,18,13,248,0
1713230,14,4,227,0
1713241,16,6,223,0
1713253,18,2,214,0
1713263,23,1,209,0
1713274,25,1,208,0
1713285,29,2,206,0
1713296,31,3,202,0
1713307,30,1,203,0
1713318,28,-1,210,0
1713329,21,-8,209,0
1713340,17,-13,208,0
1713351,14,-6,209,0
1713362,9,0,211,0
1713373,2,-1,218,0
1713384,-2,-12,214,0
1713395,9,-1,197,0
1713406,3,7,194,0
1713417,1,4,190,0
1713428,1,7,195,0
1713439,2,6,199,0
1713450,2,9,206,0
1713461,2,14,214,0
1713472,1,23,220,0
1713483,-6,32,224,0
1713494,-12,37,233,0
1713505,-18,34,238,0
1713516,-23,28,239,0
1713528,-25,22,246,0
1713538,-24,17,244,0
1713549,-28,20,257,0
1713561,-37,16,254,0
1713571,-34,12,258,0
1713582,-10,-7,273,0
1713594,49,-24,353,1
1713604,73,7,399,0
1713615,73,23,379,0
1713626,78,1,333,0
1713637,96,-16,302,0
1713649,124,-27,313,0
1713661,117,-10,285,0
1713671,86,-8,242,0
1713682,64,-22,211,0
1713693,54,-19,193,0
1713704,41,-27,174,0
1713715,41,52,155,0
1713726,65,-64,149,0
1713737,55,32,175,0
1713748,64,-23,171,0
1713759,58,6,184,0
1713770,70,-2,197,0
1713781,69,-2,203,0
1713793,83,-9,214,0
1713804,102,-12,217,0
1713815,114,-18,213,0
1713826,123,-16,214,0
1713837,118,-11,213,0
1713848,99,-11,210,0
1713859,85,-6,208,0
1713870,68,2,211,0
1713881,60,6,213,0
1713893,51,13,224,0
1713903,49,14,228,0
1713914,50,12,229,0
1713925,51,10,224,0
1713936,49,6,218,0
1713947,48,3,215,0
1713959,46,5,211,0
1713970,43,7,208,0
1713981,41,6,208,0
1713993,39,6,215,0
1714003,36,11,223,0
1714014,24,14,239,0
1714025,18,16,246,0
1714036,12,17,244,0
1714047,6,13,240,0
1714058,0,17,234,0
1714069,-6,14,234,0
1714080,-8,14,232,0
1714092,-9,8,227,0
1714103,-9,2,222,0
1714113,-7,1,219,0
1714124,-9,0,220,0
1714135,-11,-1,221,0
1714146,-11,1,223,0
1714157,-8,11,219,0
1714169,-8,19,222,0
1714179,2,15,215,0
1714191,4,16,218,0
1714201,9,14,228,0
1714212,17,10,236,0
1714223,20,0,239,0
1714234,18,-3,239,0
1714245,10,-5,234,0
1714257,-2,-6,231,0
1714267,-20,-11,226,0
1714278,-35,-16,224,0
1714290,-47,-20,222,1
1714300,-52,-18,226,0
1714311,-44,-5,232,0
1714322,-14,6,227,0
1714333,-27,-30,265,0
1714344,8,-25,271,0
1714355,5,-13,260,0
1714366,12,-11,270,0
1714378,26,-23,289,0
1714388,47,-11,295,0
1714399,66,10,294,0
1714410,85,26,287,0
1714421,112,43,271,0
1714432,137,65,246,0
1714443,151,69,217,0
1714454,158,63,181,0
1714465,159,57,155,0
1714476,153,46,146,0
1714487,138,35,155,0
1714498,110,30,177,0
1714509,48,22,218,0
1714520,19,21,235,0
1714531,2,20,249,0
1714542,-10,27,272,0
1714553,-15,30,290,0
1714564,-18,31,290,0
1714576,-14,27,273,0
1714587,-14,24,253,0
1714598,-11,27,247,0
1714609,-3,22,239,0
1714620,10,15,228,0
1714631,23,15,221,0
1714642,28,15,210,0
1714653,30,16,202,0
1714664,25,10,204,0
1714675,22,10,202,0
1714686,18,8,196,0
1714697,14,8,194,0
1714708,10,8,198,0
1714719,7,10,205,0
1714730,3,7,208,0
1714741,1,4,211,0
1714753,-5,2,214,0
1714763,-11,4,211,0
1714774,-16,2,211,0
1714785,-19,2,212,0
1714796,-21,3,211,0
1714807,-21,3,212,0
1714818,-21,6,213,0
1714829,-21,16,223,0
1714840,-26,18,226,0
1714851,-34,22,231,0
1714863,-42,20,228,0
1714873,-51,22,231,0
1714884,-54,15,230,0
1714895,-55,9,228,0
1714906,-56,8,230,0
1714917,-55,4,229,0
1714928,-54,-1,227,0
1714939,-47,-9,224,0
1714950,-39,-18,220,0
1714961,-28,-24,219,0
1714972,-23,-24,216,0
1714983,-16,-23,219,0
1714994,-10,-25,232,0
1715005,-6,-23,242,0
1715016,-2,-18,250,0
1715028,2,-14,256,0
1715038,1,-8,260,0
1715049,-1,-8,256,0
1715061,1,-3,259,0
1715072,2,-2,257,0
1715083,3,-10,256,0
1715094,30,-21,269,0
1715105,80,4,349,0
1715116,68,61,349,0
1715128,121,-6,327,0
1715139,163,3,331,1
1715149,226,54,424,0
1715161,195,48,384,0
1715171,119,-6,280,0
1715182,48,1,199,0
1715193,-17,0,153,0
1715204,-62,-15,112,0
1715215,-57,-61,150,0
1715226,-35,-88,127,0
1715237,-38,-13,142,0
1715248,-7,-54,160,0
1715259,-1,-10,166,0
1715270,10,3,175,0
1715281,31,8,187,0
1715293,55,19,212,0
1715303,79,24,234,0
1715314,112,22,237,0
1715325,117,10,219,0
1715336,119,8,217,0
1715347,119,8,212,0
1715358,118,2,207,0
1715369,114,-2,197,0
1715380,110,-4,193,0
1715392,101,-8,193,0
1715403,87,-7,195,0
1715413,76,-3,200,0
1715424,69,-2,199,0
1715435,63,0,199,0
1715446,55,6,201,0
1715457,47,8,209,0
1715468,37,12,219,0
1715479,22,21,236,0
1715491,17,21,238,0
1715501,12,17,234,0
1715512,11,15,226,0
1715523,14,9,220,0
1715534,13,5,215,0
1715545,3,7,213,0
1715556,0,7,214,0
1715567,0,8,214,0
1715578,3,7,219,0
1715591,2,6,223,0
1715601,4,3,225,0
1715612,7,5,226,0
1715623,11,2,225,0
1715634,14,1,224,0
1715645,15,1,222,0
1715656,13,0,220,0
1715667,13,0,219,0
1715678,16,-1,218,0
1715689,18,-2,217,0
1715700,19,-2,214,0
1715711,20,-3,213,0
1715722,20,-4,211,0
1715733,23,-2,213,0
1715744,23,0,214,0
1715755,21,2,218,0
1715766,18,6,220,0
1715778,14,8,223,0
1715788,2,4,231,0
1715799,-6,3,237,0
1715811,-17,1,238,1
1715821,-27,1,237,0
1715832,-33,0,239,0
1715843,-31,4,233,0
1715854,-4,27,227,0
1715865,1,-5,264,0
1715876,10,-51,276,0
1715887,12,-21,268,0
1715898,10,-5,268,0
1715909,19,17,282,0
1715920,30,12,296,0
1715931,47,-3,301,0
1715943,67,13,303,0
1715953,67,13,303,0
1715964,95,22,269,0
1715975,106,21,240,0
1715986,121,25,205,0
1715997,127,23,171,0
1716008,123,25,145,0
1716019,117,20,137,0
1716030,106,16,141,0
1716041,92,19,161,0
1716053,70,14,176,0
1716063,44,17,197,0
1716074,23,19,220,0
1716085,7,25,250,0
1716096,-1,32,270,0
1716107,-2,32,283,0
1716118,0,30,285,0
1716129,17,19,268,0
1716140,21,19,257,0
1716151,23,14,242,0
1716162,26,14,230,0
1716173,28,15,227,0
1716184,32,12,223,0
1716195,34,12,221,0
1716206,35,10,216,0
1716217,34,12,213,0
1716228,32,10,210,0
1716239,30,11,207,0
1716250,25,9,205,0
1716261,17,5,203,0
1716272,8,2,204,0
1716283,-1,1,204,0
1716294,-13,-2,208,0
1716305,-19,-6,204,0
1716316,-22,-5,203,0
1716328,-24,-4,203,0
1716338,-25,-3,208,0
1716349,-21,3,218,0
1716361,-15,0,227,0
1716371,-1,-12,206,0
1716382,15,5,199,0
1716393,15,32,200,0
1716404,11,39,225,0
1716416,13,25,251,0
1716426,16,26,253,0
1716437,9,35,248,0
1716448,1,43,246,0
1716459,-11,26,258,0
1716470,-15,19,263,0
1716481,-22,15,265,0
1716493,-31,15,264,1
1716503,-40,17,261,0
1716514,-25,8,270,0
1716525,11,14,336,0
1716537,11,51,338,0
1716547,12,28,323,0
1716558,23,2,300,0
1716569,19,-1,269,0
1716580,21,-3,256,0
1716591,48,7,286,0
1716603,54,22,295,0
1716613,42,16,275,0
1716624,33,-20,213,0
1716635,29,-27,192,0
1716646,31,-38,174,0
1716657,38,-41,161,0
1716668,44,-37,161,0
1716679,51,-28,163,0
1716691,53,-18,171,0
1716701,61,-8,182,0
1716712,65,1,198,0
1716723,68,5,208,0
1716734,71,4,219,0
1716745,72,4,228,0
1716756,70,5,229,0
1716767,64,0,223,0
1716778,61,1,216,0
1716789,51,-1,207,0
1716800,52,-1,204,0
1716811,53,-4,209,0
1716822,51,-7,207,0
1716833,48,-1,215,0
1716844,45,1,216,0
1716855,48,3,219,0
1716866,52,3,221,0
1716878,49,4,221,0
1716888,47,4,222,0
1716899,44,3,221,0
1716911,39,3,219,0
1716921,32,2,216,0
1716932,31,2,218,0
1716943,28,4,214,0
1716954,16,4,210,0
1716965,11,3,212,0
1716976,6,4,216,0
1716987,1,6,222,0
1716998,-3,10,230,0
1717009,-6,12,236,0
1717020,-8,17,239,0
1717031,-7,19,238,0
1717042,-8,21,237,0
1717053,-4,20,231,0
1717064,-2,17,223,0
1717075,0,15,219,0
1717086,4,9,217,0
1717097,8,2,213,0
1717108,14,-2,213,0
1717119,24,-11,215,0
1717130,28,-10,217,0
1717141,32,-7,219,0
1717153,31,-1,223,0
1717163,27,6,224,0
1717174,21,14,223,0
1717185,16,16,226,0
1717196,9,14,227,0
1717207,6,12,223,0
1717218,5,17,218,0
1717230,15,27,218,1
1717240,22,23,229,0
1717251,19,-7,250,0
1717262,16,-22,262,0
1717274,17,0,271,0
1717284,24,18,287,0
1717295,33,17,302,0
1717306,43,11,305,0
1717317,54,16,307,0
1717328,69,26,307,0
1717339,84,33,296,0
1717350,93,35,274,0
1717362,97,29,246,0
1717372,102,22,222,0
1717383,111,18,207,0
1717394,109,3,187,0
1717405,104,-5,168,0
1717417,98,-14,155,0
1717428,80,-17,150,0
1717438,66,-24,154,0
1717449,49,-25,177,0
1717460,50,-6,189,0
1717472,41,8,210,0
1717483,32,20,239,0
1717494,24,23,266,0
1717505,27,22,288,0
1717516,27,24,295,0
1717528,23,24,288,0
1717538,22,18,274,0
1717549,22,18,266,0
1717560,21,16,258,0
1717571,21,13,253,0
1717582,21,9,246,0
1717593,24,7,236,0
1717604,33,8,231,0
1717615,39,7,225,0
1717626,44,7,216,0
1717637,46,6,209,0
1717648,44,8,207,0
1717659,42,10,203,0
1717670,34,7,199,0
1717681,27,9,200,0
1717693,20,6,199,0
1717704,13,8,201,0
1717715,5,3,203,0
1717726,1,2,203,0
1717737,-3,2,203,0
1717748,-9,1,199,0
1717759,-6,3,201,0
1717770,-2,8,204,0
1717781,-3,15,211,0
1717793,-2,19,222,0
1717803,-2,12,220,0
1717814,-1,11,219,0
1717825,-2,14,222,0
1717836,0,16,228,0
1717847,1,19,234,0
1717858,0,24,239,0
1717869,-5,19,245,0
1717880,-10,12,249,0
1717892,-9,11,247,0
1717903,-6,11,243,1
1717913,-3,14,242,0
1717924,-6,10,248,0
1717935,-9,6,252,0
1717946,-3,-3,259,0
1717957,44,-16,311,0
1717968,74,23,378,0
1717979,66,36,349,0
1717991,78,-5,319,0
1718001,90,-23,306,0
1718012,94,-3,304,0
1718023,86,19,304,0
1718034,75,15,272,0
1718045,56,-3,245,0
1718056,37,-15,236,0
1718067,23,-16,229,0
1718078,20,-27,186,0
1718089,14,-16,146,0
1718100,34,-147,222,0
1718111,60,-33,152,0
1718122,63,-13,177,0
1718133,71,-14,175,0
1718144,82,1,181,0
1718155,90,3,193,0
1718166,95,11,206,0
1718178,97,7,215,0
1718188,95,4,223,0
1718199,92,-1,228,0
1718210,89,-10,224,0
1718221,87,-10,219,0
1718232,85,-9,217,0
1718243,87,-14,210,0
1718254,80,-14,208,0
1718265,77,-10,211,0
1718276,71,-5,219,0
1718287,66,-2,226,0
1718298,65,-4,225,0
1718309,64,-1,229,0
1718320,66,1,227,0
1718331,62,-1,225,0
1718342,55,0,224,0
1718353,53,-1,222,0
1718364,47,2,218,0
1718375,43,0,215,0
1718386,45,-2,219,0
1718397,44,-2,221,0
1718408,39,-2,224,0
1718419,31,0,225,0
1718430,24,1,229,0
1718441,16,2,234,0
1718453,10,4,239,0
1718463,7,6,242,0
1718474,4,6,240,0
1718485,4,6,239,0
1718496,7,5,236,0
1718507,7,3,233,0
1718518,12,2,231,0
1718530,15,0,231,0
1718540,16,0,227,0
1718551,22,-1,226,0
1718563,22,0,229,0
1718573,26,1,232,0
1718584,27,3,234,0
1718595,25,6,234,0
1718606,26,7,236,0
1718617,24,11,234,0
1718628,19,17,233,0
1718639,15,17,228,0
1718650,10,19,225,0
1718661,7,20,222,0
1718672,2,19,219,0
1718684,1,20,222,1
1718694,0,14,223,0
1718705,1,1,226,0
1718716,5,-15,230,0
1718728,10,-27,223,0
1718738,23,-42,212,0
1718749,17,-75,214,0
1718760,13,-51,206,0
1718771,6,-22,211,0
1718782,8,-5,223,0
1718793,14,5,232,0
1718804,16,13,235,0
1718815,22,17,239,0
1718826,31,19,239,0
1718837,40,22,243,0
1718848,46,15,238,0
1718859,42,6,234,0
1718870,37,-6,229,0
1718881,34,-16,226,0
1718893,34,-24,224,0
1718903,32,-23,228,0
1718914,34,-19,235,0
1718925,37,-16,237,0
1718936,36,-14,240,0
1718947,35,-9,248,0
1718958,35,-4,248,0
1718969,33,-6,246,0
1718980,35,-4,245,0
1718993,35,-3,243,0
1719003,36,-4,239,0
1719014,39,-4,235,0
1719025,41,-3,231,0
1719036,43,-1,230,0
1719047,45,-4,230,0
1719058,52,-3,228,0
1719069,52,-3,226,0
1719080,51,-6,225,0
1719092,50,-7,225,0
1719103,45,-7,224,0
1719113,41,-6,229,0
1719124,40,-4,231,0
1719135,37,-4,233,0
1719146,35,-2,231,0
1719157,33,-1,230,0
1719168,33,1,228,0
1719179,30,0,228,0
1719191,29,1,225,0
1719201,28,2,223,0
1719212,28,0,221,0
1719223,27,-4,222,0
1719234,28,-4,224,0
1719245,28,-4,225,0
1719256,28,-2,227,0
1719267,30,-5,227,0
1719278,31,-4,229,0
1719289,31,-7,229,0
1719300,30,-6,231,0
1719311,30,-6,232,0
1719322,28,-4,228,0
1719333,29,-3,226,0
1719344,30,-1,227,0
1719355,27,0,227,0
1719366,27,-2,228,0
1719378,25,-4,231,0
1719388,21,-4,229,0
1719399,19,-5,230,0
1719410,19,-6,228,0
1719421,20,-6,227,0
1719432,20,-9,222,0
1719443,21,-4,227,0
1719454,22,-3,234,0
1719465,23,-1,237,0
1719476,27,-5,237,0
1719487,27,-5,232,0
1719498,28,-5,232,0
1719509,31,-2,234,0
1719520,33,-2,234,0
1719531,32,-4,233,0
1719542,32,-8,233,0
1719553,31,-8,232,0
1719564,35,-6,228,0
1719575,32,-10,225,0
1719586,31,-7,226,0
1719597,27,-6,225,0
1719608,26,-6,232,0
1719619,27,-4,234,0
1719630,29,-6,227,0
1719641,28,-3,229,0
1719653,26,-2,231,0
1719663,27,-2,231,0
1719674,29,0,233,0
1719685,29,0,233,0
1719696,27,0,231,0
1719707,29,0,230,0
1719718,32,0,231,0
1719729,32,-1,228,0
1719740,30,-2,225,0
1719751,30,-2,228,0
1719763,30,-3,228,0
1719773,34,-5,229,0
1719784,34,-2,227,0
1719795,34,-1,230,0
1719806,33,-3,230,0
1719817,34,-4,226,0
1719828,34,-3,226,0
1719839,35,-4,224,0
1719850,34,-1,226,0
1719861,34,-1,226,0
1719872,34,-1,228,0
1719883,32,0,228,0
1719894,34,1,233,0
1719905,31,1,233,0
1719916,29,2,231,0
1719928,31,0,228,0
1719938,30,0,226,0
1719949,31,1,227,0
1719960,31,0,227,0
1719971,34,0,230,0
1719982,33,0,227,0
1719993,35,1,229,0
1720004,35,0,231,0
1720015,35,0,232,0
1720026,35,1,229,0
1720037,37,2,230,0
1720048,38,-3,227,0
1720059,36,1,229,0
1720070,37,1,230,0
1720081,37,1,233,0
