timestamp,accX,accY,accZ,step
518246,20,2,230,0
518256,19,2,233,0
518267,19,3,232,0
518278,19,2,227,0
518288,19,5,231,0
518300,20,4,231,0
518311,18,1,230,0
518322,22,1,227,0
518332,21,4,230,0
518343,21,3,228,0
518354,24,3,232,0
518365,21,2,231,0
518376,22,3,234,0
518387,20,4,231,0
518398,19,4,228,0
518409,19,2,231,0
518420,17,2,233,0
518431,18,3,232,0
518442,18,3,232,0
518453,20,2,232,0
518464,20,4,232,0
518475,20,4,232,0
518486,18,2,230,0
518497,19,1,228,0
518508,19,2,229,0
518519,20,2,228,0
518530,21,1,230,0
518541,23,0,227,0
518553,23,2,229,0
518563,23,2,229,0
518574,23,4,231,0
518585,22,2,232,0
518596,23,3,230,0
518608,23,3,231,0
518618,22,3,230,0
518629,22,1,230,0
518640,22,2,229,0
518651,21,1,229,0
518662,21,0,230,0
518673,21,0,231,0
518684,20,0,231,0
518695,19,1,230,0
518706,18,1,232,0
518717,18,0,231,0
518728,17,0,233,0
518739,15,0,232,0
518750,14,-1,231,0
518761,16,-1,232,0
518772,17,-1,231,0
518783,16,-1,231,0
518794,15,0,231,0
518805,17,-1,231,0
518816,18,-4,233,0
518828,19,-3,235,0
518838,18,-1,233,0
518849,18,0,234,0
518860,19,-1,233,0
518871,21,-3,229,0
518882,20,-5,228,0
518893,20,-2,227,0
518904,20,0,229,0
518916,21,0,231,0
518926,20,0,232,0
518937,21,0,232,0
518948,23,1,231,0
518959,24,0,229,0
518970,24,-1,228,0
518981,27,-3,227,0
518993,28,-3,228,0
519003,29,-2,228,0
519014,30,-1,228,0
519025,31,-2,228,0
519036,31,-3,229,0
519047,30,-2,230,0
519058,29,-2,230,0
519069,24,-2,230,0
519080,23,-2,232,0
519092,23,-1,231,0
519103,23,-2,232,0
519113,22,-2,231,0
519124,22,-4,228,0
519135,22,-1,228,0
519146,23,-2,227,0
519157,24,-2,228,0
519168,26,0,229,0
519179,27,-1,229,0
519191,29,0,230,0
519201,30,0,230,0
519212,30,-1,231,0
519223,29,-1,230,0
519234,29,-4,229,0
519245,28,-3,229,0
519256,28,-1,229,0
519267,26,-1,229,0
519278,25,0,229,0
519289,24,0,229,0
519300,24,-1,230,0
519311,22,0,229,0
519322,20,0,228,0
519333,18,1,229,0
519344,16,1,230,0
519355,13,1,233,0
519366,12,0,235,0
519377,12,1,235,0
519388,13,1,234,0
519399,12,0,232,0
519410,12,0,233,0
519421,13,0,231,0
519432,14,0,231,0
519443,16,0,232,0
519454,18,0,229,0
519465,20,0,230,0
519476,21,0,230,0
519487,22,0,230,0
519498,23,-1,231,0
519509,21,0,231,0
519520,20,0,231,0
519531,22,-1,233,0
519542,23,-1,233,0
519553,23,-1,232,0
519564,23,0,230,0
519575,24,0,230,0
519586,27,-1,230,0
519597,28,-1,230,0
519608,30,-1,229,0
519619,31,-3,229,0
519630,33,-5,229,0
519641,33,-4,227,0
519652,34,-3,229,0
519663,33,-5,229,0
519674,32,-2,228,0
519685,33,-3,229,0
519696,32,-3,228,0
519708,32,-2,229,0
519718,31,-2,229,0
519729,29,-1,228,0
519740,28,-1,228,0
519751,26,-1,230,0
519762,25,-1,232,0
519773,26,-2,231,0
519784,26,-1,232,0
519795,28,-1,231,0
519806,29,-3,230,0
519817,29,-1,230,0
519828,29,-1,231,0
519839,30,-1,230,0
519850,30,-2,229,0
519861,32,-2,230,0
519872,31,-1,229,0
519883,32,-2,229,0
519894,30,-4,227,0
519905,32,-3,228,0
519917,33,-1,230,0
519928,34,-2,230,0
519938,34,-2,229,0
519949,34,-1,229,0
519960,34,-1,227,0
519971,35,0,227,0
519982,34,-1,228,0
519993,32,-1,227,0
520004,32,-1,227,0
520015,31,-1,229,0
520026,31,0,228,0
520037,30,-1,229,0
520048,30,-2,231,0
520059,30,-2,232,0
520070,30,-2,231,0
520081,30,-1,229,0
520093,29,-1,229,0
520103,29,-2,228,0
520114,30,-2,228,0
520125,30,-2,228,0
520136,31,-2,228,0
520147,31,-2,228,0
520158,30,-1,231,0
520169,32,0,230,0
520180,32,-1,230,0
520192,31,0,230,0
520202,31,0,229,0
520213,29,-1,229,0
520224,26,0,230,0
520235,27,0,232,0
520246,26,1,232,0
520258,24,1,233,0
520268,22,1,233,0
520279,20,-2,232,0
520291,21,-3,231,0
520301,18,0,231,0
520312,17,1,230,0
520323,15,0,230,0
520334,16,0,229,0
520345,18,0,231,0
520356,20,0,231,0
520367,22,0,231,0
520378,24,0,230,0
520389,26,-1,230,0
520400,25,0,229,0
520411,24,-1,231,0
520422,25,0,229,0
520433,26,0,228,0
520444,26,0,229,0
520455,27,0,230,0
520466,28,0,230,0
520477,29,1,230,0
520488,30,2,230,0
520499,30,2,231,0
520510,30,1,231,0
520521,29,2,232,0
520532,29,2,232,0
520543,27,2,230,0
520554,25,3,230,0
520565,24,2,231,0
520576,22,3,231,0
520587,22,2,232,0
520598,23,1,231,0
520609,23,0,229,0
520620,24,0,229,0
520631,27,-1,229,0
520642,29,0,226,0
520653,30,-1,226,0
520664,32,-1,226,0
520675,31,-1,227,0
520686,31,0,228,0
520697,31,-1,229,0
520708,30,-2,230,0
520719,31,-1,229,0
520730,31,-1,230,0
520741,31,0,230,0
520752,31,0,229,0
520764,31,1,227,0
520775,31,0,227,0
520786,31,1,226,0
520797,32,2,226,0
520808,31,3,227,0
520819,31,3,228,0
520830,31,4,230,0
520841,32,4,231,0
520853,30,6,233,0
520863,29,9,229,0
520874,29,10,228,0
520885,30,9,227,0
520896,29,8,226,0
520908,29,7,225,0
520918,29,5,228,0
520929,28,4,227,0
520940,27,3,228,0
520951,25,3,227,0
520962,23,2,228,0
520973,22,2,228,0
520984,21,3,229,0
520995,21,4,231,0
521006,20,4,231,0
521017,19,6,231,0
521028,17,5,230,0
521039,16,4,230,0
521051,17,3,227,0
521061,17,3,228,0
521072,18,4,227,0
521083,18,4,226,0
521094,17,4,228,0
521105,18,4,228,0
521116,20,4,228,0
521127,22,4,228,0
521138,22,5,227,0
521149,23,5,226,0
521160,23,5,225,0
521171,24,6,227,0
521182,25,5,226,0
521193,23,7,227,0
521204,21,7,228,0
521215,21,7,229,0
521226,21,5,228,0
521237,19,8,232,0
521248,20,8,235,0
521259,20,8,238,0
521270,21,8,239,0
521281,23,8,240,0
521293,26,8,240,0
521303,26,6,238,0
521314,28,7,239,0
521325,29,7,240,0
521336,31,8,238,0
521347,32,7,238,0
521358,35,4,236,0
521369,37,6,237,0
521380,38,5,234,0
521391,39,4,232,0
521403,40,4,231,0
521413,40,4,230,0
521424,40,5,227,0
521435,39,6,227,0
521446,38,6,227,0
521457,37,6,225,0
521468,37,6,226,0
521479,38,5,226,0
521491,39,5,225,0
521501,39,6,226,0
521512,40,7,226,0
521523,39,7,226,0
521534,38,8,226,0
521545,37,8,226,0
521556,36,8,224,0
521567,36,7,224,0
521578,34,10,226,0
521589,34,8,227,0
521600,34,8,227,0
521611,32,9,225,0
521622,32,8,226,0
521633,32,8,226,0
521644,30,8,227,0
521655,29,7,227,0
521666,28,8,228,0
521677,28,7,226,0
521688,27,9,229,0
521699,27,10,229,0
521710,28,8,230,0
521721,29,12,232,0
521732,29,10,231,0
521743,29,9,233,0
521754,28,11,233,0
521765,27,11,232,0
521776,28,12,235,0
521787,28,13,234,0
521798,25,15,235,0
521809,25,14,235,0
521820,26,13,234,0
521831,26,14,234,0
521842,28,14,234,0
521853,27,16,231,0
521864,27,16,230,0
521876,27,16,229,0
521886,27,17,229,0
521897,27,17,228,0
521908,27,17,227,0
521919,27,16,226,0
521931,26,17,226,0
521941,28,18,224,0
521952,29,19,224,0
521963,29,18,226,0
521974,30,20,227,0
521985,31,19,226,0
521996,28,21,227,0
522007,32,19,226,0
522018,36,18,229,0
522029,37,18,229,0
522040,38,18,229,0
522051,38,17,228,0
522062,39,18,228,0
522074,39,17,228,0
522084,39,19,229,0
522095,40,19,230,0
522106,40,19,231,0
522117,34,21,228,0
522128,34,22,228,0
522139,38,16,227,0
522150,43,16,230,0
522161,41,27,232,0
522172,46,22,237,0
522183,38,20,234,0
522194,37,23,233,0
522205,36,25,236,0
522216,39,23,235,0
522227,38,22,235,0
522238,39,22,233,0
522249,40,23,234,0
522261,41,23,234,0
522271,43,21,234,0
522282,44,21,234,0
522293,44,20,230,0
522304,43,21,227,0
522315,43,20,225,0
522326,41,19,227,0
522337,41,19,226,0
522348,44,18,225,0
522359,44,18,224,0
522370,41,18,222,0
522381,39,19,221,0
522393,39,19,222,0
522403,38,20,222,0
522414,37,19,222,0
522425,42,19,226,0
522436,42,17,225,0
522447,41,19,226,0
522458,41,20,228,0
522469,43,18,228,0
522480,44,18,230,0
522492,43,21,233,0
522503,43,20,233,0
522513,41,20,231,0
522524,42,20,233,0
522535,47,18,233,0
522546,48,17,232,0
522557,48,19,230,0
522568,46,19,228,0
522579,50,21,227,0
522591,47,20,228,0
522601,46,23,230,0
522612,45,19,228,0
522623,51,20,231,0
522634,47,19,228,0
522645,41,25,229,0
522656,43,23,227,0
522667,46,20,225,0
522678,48,18,222,0
522689,47,14,218,0
522700,50,19,226,0
522711,47,18,221,0
522722,49,18,219,0
522733,41,19,213,0
522744,44,20,219,0
522755,45,17,224,0
522766,49,17,225,0
522778,52,19,226,0
522789,50,23,228,0
522799,46,23,236,0
522810,42,23,238,0
522821,39,22,234,0
522832,37,21,231,0
522843,36,18,226,0
522854,37,17,222,0
522865,40,17,223,0
522876,46,16,223,0
522887,53,13,227,0
522898,52,14,227,0
522909,51,16,229,0
522920,49,16,227,0
522931,45,18,229,0
522942,40,20,229,0
522953,40,18,227,0
522964,40,20,228,0
522975,41,18,227,0
522986,40,18,227,0
522997,40,18,228,0
523008,39,20,227,0
523020,42,17,229,0
523030,46,17,230,0
523041,52,16,231,0
523053,52,16,232,0
523063,49,18,233,0
523074,45,19,230,0
523085,46,17,230,0
523096,44,17,227,0
523107,42,19,224,0
523118,44,17,227,0
523129,47,19,228,0
523140,48,19,230,0
523151,51,18,235,0
523162,52,17,238,0
523173,48,17,237,0
523184,43,20,236,0
523195,37,20,233,0
523206,35,22,229,0
523217,36,22,225,0
523228,37,18,222,0
523239,37,20,223,0
523250,38,18,223,0
523261,41,16,225,0
523272,39,21,234,0
523283,44,13,232,0
523294,35,21,231,0
523305,33,16,231,0
523316,28,24,231,0
523328,28,21,222,0
523338,34,21,222,0
523349,30,21,219,0
523360,29,22,221,0
523371,29,21,227,0
523382,30,19,231,0
523393,33,15,234,0
523404,31,20,242,0
523417,27,23,238,0
523428,22,25,233,0
523438,23,25,232,0
523449,28,22,230,0
523460,30,23,220,0
523471,31,22,219,0
523482,34,20,226,0
523493,35,21,233,0
523504,33,23,234,0
523515,28,24,230,0
523526,26,24,226,0
523537,25,23,222,0
523548,23,25,221,0
523559,26,24,217,0
523570,25,26,218,0
523581,34,21,218,0
523593,40,18,221,0
523603,31,24,227,0
523614,26,27,227,0
523626,27,25,223,0
523636,27,25,225,0
523647,40,22,228,0
523658,47,20,228,0
523669,48,23,229,0
523680,50,26,233,0
523692,51,26,237,0
523703,45,23,235,0
523713,50,24,240,0
523724,47,21,235,0
523735,41,22,233,0
523746,37,25,234,0
523757,32,26,232,0
523768,30,24,227,0
523780,30,25,226,0
523791,31,24,225,0
523801,31,25,228,0
523812,34,25,233,0
523823,33,26,236,0
523834,31,27,234,0
523845,27,25,232,0
523856,25,25,231,0
523867,26,23,230,0
523878,25,25,231,0
523889,25,25,229,0
523900,24,24,227,0
523911,24,23,224,0
523922,23,25,224,0
523933,22,24,225,0
523944,21,24,226,0
523955,22,24,228,0
523966,20,25,229,0
523978,19,23,230,0
523989,20,24,231,0
523999,19,25,231,0
524010,17,24,229,0
524022,16,23,228,0
524033,17,24,228,0
524044,17,24,228,0
524055,18,24,227,0
524066,20,25,228,0
524078,21,24,228,0
524089,25,23,228,0
524099,26,23,227,0
524110,28,23,227,0
524122,27,22,227,0
524132,27,21,227,0
524143,27,21,229,0
524154,29,20,230,0
524165,31,23,231,0
524176,29,23,231,0
524187,30,22,230,0
524198,30,23,229,0
524209,29,22,230,0
524220,30,22,229,0
524231,30,23,228,0
524242,32,22,228,0
524253,32,21,229,0
524265,32,21,227,0
524275,32,21,226,0
524286,31,21,225,0
524297,29,19,226,0
524308,29,20,226,0
524319,29,20,228,0
524330,28,20,229,0
524341,29,20,233,0
524353,28,21,233,0
524363,27,21,233,0
524374,28,19,232,0
524385,26,21,232,0
524396,26,19,231,0
524407,25,19,231,0
524418,26,21,231,0
524429,26,20,231,0
524440,28,21,230,0
524451,31,21,232,0
524462,35,18,231,0
524473,37,17,229,0
524484,38,14,226,0
524495,41,14,227,0
524506,41,14,224,0
524517,42,15,223,0
524528,42,14,223,0
524539,43,15,222,0
524550,43,17,223,0
524561,43,17,225,0
524572,45,16,226,0
524583,45,16,226,0
524594,45,16,229,0
524605,46,17,230,0
524616,47,17,230,0
524628,43,20,230,0
524638,40,20,231,0
524650,40,21,230,0
524661,39,21,231,0
524672,37,20,230,0
524683,38,19,228,0
524694,36,19,228,0
524705,35,19,227,0
524716,35,19,228,0
524728,34,19,227,0
524738,34,18,226,0
524749,33,18,226,0
524760,30,18,226,0
524771,27,19,228,0
524782,25,17,228,0
524793,25,18,229,0
524804,23,18,229,0
524815,22,17,228,0
524826,20,17,229,0
524837,20,16,231,0
524849,20,18,232,0
524860,18,18,231,0
524871,19,17,232,0
524882,20,17,231,0
524893,22,16,230,0
524904,23,17,231,0
524916,24,16,228,0
524926,25,17,227,0
524937,27,16,228,0
524948,28,17,227,0
524959,29,17,227,0
524970,30,16,228,0
524981,30,16,228,0
524993,30,17,228,0
525003,29,18,229,0
525015,28,21,229,0
525025,27,21,230,0
525036,27,21,230,0
525047,27,21,231,0
525058,27,21,232,0
525069,29,23,235,0
525080,31,27,236,0
525092,30,28,235,0
525103,30,27,232,0
525113,31,27,231,0
525124,29,28,230,0
525135,28,28,231,0
525146,27,26,230,0
525157,25,26,229,0
525168,25,25,227,0
525179,25,25,228,0
525191,25,24,230,0
525201,28,24,229,0
525212,28,25,231,0
525223,31,25,230,0
525234,34,25,231,0
525245,36,24,228,0
525256,37,23,228,0
525267,37,22,228,0
525278,36,21,227,0
525289,36,21,225,0
525300,35,21,227,0
525311,34,21,226,0
525322,34,21,226,0
525333,33,21,228,0
525344,32,21,229,0
525355,32,20,227,0
525366,33,21,229,0
525378,33,21,230,0
525389,33,21,229,0
525399,32,20,230,0
525410,32,19,229,0
525421,31,20,228,0
525432,32,20,228,0
525443,31,19,227,0
525454,30,20,227,0
525465,31,19,227,0
525476,32,19,227,0
525487,31,20,226,0
525498,31,19,227,0
525509,30,21,228,0
525520,29,21,229,0
525531,29,21,228,0
525542,29,20,230,0
525553,30,22,230,0
525564,30,22,231,0
525575,30,22,229,0
525586,30,23,228,0
525597,31,22,228,0
525608,33,22,229,0
525620,35,22,228,0
525631,36,23,228,0
525642,36,22,228,0
525653,34,22,228,0
525664,35,21,227,0
525675,36,21,229,0
525686,34,22,229,0
525697,34,23,228,0
525708,33,24,229,0
525719,33,24,229,0
525730,32,25,231,0
525741,32,25,231,0
525753,32,24,230,0
525763,33,24,231,0
525775,32,24,231,0
525785,33,24,232,0
525796,33,23,230,0
525807,33,24,229,0
525818,32,24,229,0
525829,34,23,229,0
525840,35,23,230,0
525851,35,23,231,0
525863,35,24,231,0
525873,34,24,231,0
525884,34,24,231,0
525895,34,24,230,0
525906,33,22,229,0
525917,34,22,230,0
525928,34,23,227,0
525939,34,24,227,0
525950,34,24,227,0
525961,36,22,227,0
525972,35,22,228,0
525984,37,21,228,0
525994,36,23,227,0
526005,37,23,229,0
526017,36,25,228,0
526028,35,25,229,0
526038,34,25,230,0
526049,32,26,229,0
526060,32,24,229,0
526071,31,24,228,0
526082,30,24,227,0
526093,31,24,227,0
526104,32,24,227,0
526115,32,23,228,0
526126,31,23,228,0
526137,30,23,228,0
526149,30,23,229,0
526159,30,24,229,0
526170,29,24,229,0
526181,29,24,229,0
526193,28,24,230,0
526203,28,23,230,0
526214,26,24,229,0
526225,26,23,231,0
526236,26,23,230,0
526247,28,23,229,0
526258,29,23,229,0
526269,30,24,227,0
526280,31,25,228,0
526293,32,23,227,0
526303,33,24,226,0
526314,35,22,227,0
526325,37,21,227,0
526336,38,21,226,0
526347,38,22,226,0
526358,37,22,226,0
526369,37,23,226,0
526380,38,23,227,0
526391,37,24,229,0
526403,37,23,229,0
526413,36,22,229,0
526424,37,21,229,0
526435,35,24,229,0
526446,36,24,230,0
526457,35,25,230,0
526468,35,25,230,0
526479,35,25,230,0
526491,35,24,230,0
526501,35,25,229,0
526512,35,25,229,0
526523,37,25,229,0
526534,38,24,228,0
526545,39,25,226,0
526556,38,24,226,0
526567,38,24,226,0
526578,39,23,227,0
526589,37,24,229,0
526600,38,24,228,0
526611,38,25,228,0
526622,38,24,228,0
526633,37,25,228,0
526644,38,24,225,0
526655,38,23,227,0
526666,39,23,226,0
526678,39,24,229,0
526689,39,25,229,0
526699,38,24,229,0
526710,36,25,230,0
526721,36,24,228,0
526732,35,24,227,0
526743,36,25,228,0
526754,36,24,228,0
526765,37,25,227,0
526776,37,24,228,0
526787,36,25,230,0
526798,36,23,229,0
526809,35,24,229,0
526820,35,24,229,0
526831,35,24,229,0
526842,34,24,227,0
526853,35,25,226,0
526864,35,25,227,0
526875,37,25,226,0
526887,36,24,227,0
526897,37,24,227,0
526908,37,26,228,0
526919,37,23,229,0
526930,37,24,227,0
526941,37,24,229,0
526953,35,24,229,0
526963,34,25,231,0
526974,34,24,231,0
526985,33,25,231,0
526996,31,26,231,0
527007,32,26,231,0
527019,31,26,231,0
527029,31,24,227,0
527040,32,25,228,0
527051,32,25,227,0
527062,33,23,227,0
527073,34,24,228,0
527084,35,25,227,0
527095,35,24,228,0
527106,34,23,228,0
527117,34,24,228,0
527128,36,24,228,0
527139,35,24,229,0
527150,34,24,229,0
527161,35,25,228,0
527172,35,23,228,0
527183,36,23,229,0
527194,35,24,229,0
527205,35,24,227,0
527216,36,23,227,0
527228,36,23,228,0
527238,35,24,228,0
527249,36,24,229,0
527260,35,23,230,0
527271,36,24,230,0
527282,35,24,230,0
527293,35,24,231,0
527304,35,25,229,0
527315,36,26,228,0
527326,36,25,228,0
527337,37,25,228,0
527348,37,25,228,0
527359,36,26,228,0
527370,36,26,228,0
527381,35,26,229,0
527393,35,26,228,0
527404,35,25,228,0
527416,34,25,229,0
527426,34,26,229,0
527437,34,26,229,0
527449,34,25,229,0
527460,33,26,229,0
527471,34,25,228,0
527482,33,25,228,0
527493,34,26,228,0
527505,33,24,227,0
527515,33,25,226,0
527526,34,25,226,0
527537,34,25,228,0
527548,34,24,226,0
527559,34,24,227,0
527570,34,24,228,0
527581,34,26,230,0
527593,32,25,230,0
527604,33,25,231,0
527614,31,26,231,0
527625,32,25,232,0
527636,32,26,231,0
527647,33,25,230,0
527658,32,25,229,0
527669,35,26,229,0
527680,35,26,228,0
527692,35,26,229,0
527703,34,26,229,0
527713,35,26,229,0
527724,35,28,229,0
527735,35,29,231,0
527746,35,29,230,0
527757,35,30,230,0
527769,34,30,230,0
527779,32,30,230,0
527791,31,30,230,0
527801,32,29,227,0
527812,31,29,227,0
527823,32,28,226,0
527835,36,25,224,0
527845,38,24,223,0
527856,38,24,222,0
527867,38,25,222,0
527878,37,24,221,0
527889,38,22,222,0
527900,36,24,224,0
527912,34,24,225,0
527922,35,23,228,0
527933,31,24,231,0
527944,30,24,231,0
527955,29,24,233,0
527966,29,25,237,0
527978,28,24,235,0
527989,23,25,232,0
527999,22,24,229,0
528010,23,24,230,0
528021,24,24,230,0
528032,24,24,230,0
528043,26,24,231,0
528054,28,24,231,0
528065,30,24,233,0
528076,32,25,234,0
528087,33,24,233,0
528098,34,24,233,0
528109,33,24,232,0
528120,34,23,231,0
528131,33,25,232,0
528142,34,26,234,0
528153,33,27,236,0
528164,32,27,234,0
528175,31,26,233,0
528186,30,25,233,0
528197,30,24,234,0
528208,30,24,234,0
528219,30,22,235,0
528230,28,22,239,0
528241,28,19,239,0
528253,29,19,239,0
528263,26,18,239,0
528274,26,19,237,0
528285,25,19,237,0
528296,27,17,235,0
528307,28,18,234,0
528318,27,16,231,0
528329,30,14,227,0
528341,30,12,227,0
528351,31,12,228,0
528362,33,12,228,0
528373,33,12,227,0
528384,35,12,225,0
528395,37,11,225,0
528406,39,11,225,0
528417,41,11,227,0
528428,42,10,229,0
528439,44,9,230,0
528450,46,9,231,0
528461,47,9,230,0
528472,51,7,227,0
528483,52,6,226,0
528494,51,4,224,0
528505,48,5,224,0
528516,48,5,222,0
528528,47,4,222,0
528538,48,6,221,0
528549,48,5,224,0
528560,47,6,223,0
528571,48,6,224,0
528582,47,6,225,0
528593,46,6,226,0
528604,46,6,227,0
528615,46,5,226,0
528626,49,5,225,0
528637,51,5,225,0
528648,51,4,227,0
528659,52,2,229,0
528670,55,1,230,0
528681,55,2,232,0
528693,54,2,231,0
528703,52,2,232,0
528714,50,1,235,0
528725,46,1,235,0
528736,42,1,236,0
528747,39,1,237,0
528758,34,1,235,0
528769,30,2,235,0
528780,30,0,236,0
528792,31,0,236,0
528803,27,1,233,0
528813,24,3,232,0
528824,22,0,235,0
528835,21,0,231,0
528846,20,-1,231,0
528857,18,-1,231,0
528868,16,-3,232,0
528879,14,-2,234,0
528891,12,-1,235,0
528901,11,0,235,0
528912,9,-2,237,0
528923,9,-2,238,0
528935,7,-2,237,0
528945,7,-2,238,0
528956,6,-1,237,0
528967,5,-2,239,0
528978,7,-4,240,0
528989,8,-3,231,0
529000,10,-2,228,0
529011,11,-3,224,0
529023,16,-7,220,0
529034,19,-6,221,0
529044,19,-8,220,0
529055,21,-5,223,0
529066,24,-6,224,0
529078,20,-6,222,0
529089,17,-9,225,0
529099,16,-6,227,0
529110,16,-6,228,0
529121,17,-3,227,0
529132,22,-5,228,0
529143,21,-7,232,0
529154,27,-2,225,0
529165,28,-3,227,0
529176,31,-6,226,0
529187,31,-11,222,0
529198,29,-10,219,0
529209,28,-17,219,0
529220,29,-22,217,0
529232,32,-22,216,0
529243,36,-25,219,0
529254,37,-24,220,0
529265,41,-21,218,0
529276,44,-18,219,0
529287,47,-11,217,0
529298,50,-8,221,0
529309,51,-2,223,0
529320,52,-2,221,0
529331,49,1,221,0
529342,50,3,222,0
529353,47,5,225,0
529364,46,7,230,0
529375,44,8,228,0
529386,44,9,229,0
529397,41,7,228,0
529408,38,4,226,0
529419,37,6,226,0
529430,34,4,227,0
529441,33,2,229,0
529453,31,2,231,0
529463,28,4,231,0
529474,23,8,229,0
529485,23,7,227,0
529496,21,9,226,0
529507,17,4,228,0
529518,15,2,228,0
529529,13,1,227,0
529540,14,1,226,0
529551,14,0,225,0
529562,12,1,226,0
529573,13,1,227,0
529584,14,-1,226,0
529595,10,0,227,0
529606,9,-4,231,0
529617,7,1,230,0
529628,5,4,233,0
529639,1,2,232,0
529650,-1,3,227,0
529662,-4,2,226,0
529672,-3,4,225,0
529683,-5,5,225,0
529694,-3,6,227,0
529705,-2,9,229,0
529716,-5,8,230,0
529728,-6,8,225,0
529738,-5,3,223,0
529749,-10,5,221,0
529760,-12,5,222,0
529771,-13,8,227,0
529782,-16,10,228,0
529793,-18,10,231,0
529804,-19,9,237,0
529815,-16,7,237,0
529827,-16,7,238,0
529838,-12,1,238,0
529849,-6,1,236,0
529860,-1,3,234,0
529871,-1,1,233,0
529882,0,2,233,0
529893,-1,2,237,0
529904,-5,1,240,0
529916,-13,4,239,0
529927,-10,14,234,1
529937,17,36,223,0
529948,-5,-20,277,0
529959,-17,10,257,0
529970,-43,5,249,0
529981,-46,3,259,0
529993,-19,28,267,0
530003,-2,30,282,0
530014,9,8,306,0
530025,19,3,319,0
530036,36,6,322,0
530048,60,10,320,0
530058,83,16,302,0
530069,106,18,277,0
530080,123,13,248,0
530092,133,6,216,0
530103,138,1,192,0
530113,135,-1,175,0
530124,120,-15,149,0
530135,112,-13,148,0
530146,98,-4,165,0
530157,78,-2,185,0
530168,60,3,199,0
530179,42,3,214,0
530191,31,12,232,0
530201,23,25,246,0
530212,19,29,255,0
530223,14,27,256,0
530234,14,24,257,0
530245,15,20,257,0
530256,16,14,253,0
530267,17,9,242,0
530278,17,5,228,0
530289,32,0,215,0
530300,42,-4,211,0
530311,49,-8,206,0
530322,56,-7,208,0
530333,59,-6,211,0
530344,54,-2,215,0
530355,46,-2,214,0
530366,42,-5,213,0
530378,38,-2,213,0
530389,29,0,211,0
530399,20,-7,206,0
530410,13,-9,202,0
530421,3,-10,199,0
530433,-2,-10,194,0
530443,-10,-9,194,0
530454,-20,-10,193,0
530465,-20,-10,194,0
530476,-17,-8,195,0
530487,-14,-8,195,0
530498,-10,-10,195,0
530509,-3,-1,203,0
530520,0,4,214,0
530531,0,10,223,0
530542,-5,12,233,0
530553,-8,6,243,0
530564,-7,3,247,0
530575,-8,7,255,0
530586,-11,12,259,0
530597,-14,9,255,0
530608,-18,10,257,0
530620,-37,14,260,1
530630,-53,28,256,0
530641,-33,12,269,0
530653,57,-24,402,0
530663,72,51,409,0
530674,63,33,398,0
530685,83,-23,353,0
530696,104,-31,351,0
530707,104,2,347,0
530718,94,-4,277,0
530729,75,-30,223,0
530740,55,51,161,0
530752,65,-106,182,1
530762,65,-1,149,0
530773,66,-63,143,0
530784,58,-34,131,0
530795,46,-19,148,0
530806,38,-20,169,0
530817,45,-18,188,0
530828,56,-25,194,0
530839,72,-31,198,0
530850,87,-33,202,0
530861,100,-24,212,0
530872,107,-19,216,0
530883,103,-15,212,0
530894,92,-16,206,0
530905,81,-6,209,0
530917,70,-6,204,0
530928,62,-4,207,0
530938,50,-4,207,0
530949,42,3,215,0
530960,38,2,214,0
530971,32,5,214,0
530982,26,2,217,0
530993,23,3,220,0
531004,26,3,222,0
531015,16,5,219,0
531027,15,3,221,0
531037,23,4,226,0
531048,24,2,225,0
531059,22,0,227,0
531070,17,-2,229,0
531081,12,-2,230,0
531093,10,-1,229,0
531103,9,1,228,0
531114,5,5,226,0
531125,3,3,226,0
531136,0,4,224,0
531147,-1,1,220,0
531158,-3,-1,219,0
531169,-5,-3,216,0
531180,-5,-4,214,0
531192,-7,-7,217,0
531203,-12,-3,219,0
531213,-16,-3,222,0
531224,-16,-3,228,0
531235,-15,1,237,0
531246,-17,-3,247,0
531257,-20,-10,247,0
531268,-23,-9,247,0
531279,-44,-13,247,0
531291,-57,-12,246,0
531301,-35,-1,229,0
531313,-7,26,243,1
531323,-25,-76,292,0
531334,12,-57,291,0
531345,14,-15,269,0
531356,25,11,282,0
531367,51,-11,307,0
531378,90,-34,312,0
531389,118,-31,296,0
531400,135,-21,270,0
531411,155,-14,253,0
531423,172,5,253,1
531435,149,23,200,0
531445,147,33,198,0
531456,133,46,207,0
531467,110,41,214,0
531478,78,31,218,0
531489,43,30,220,0
531500,7,32,229,0
531511,-23,32,235,0
531522,-44,30,238,0
531533,-54,19,241,0
531544,-50,13,245,0
531555,-39,4,234,0
531566,-25,2,232,0
531578,-7,1,231,0
531589,19,3,220,0
531599,24,-3,210,0
531610,31,-10,206,0
531621,45,-6,203,0
531632,55,-10,200,0
531643,58,-13,201,0
531654,70,-16,198,0
531665,71,-17,196,0
531676,66,-17,196,0
531687,58,-16,203,0
531698,43,-15,207,0
531709,21,-8,210,0
531720,3,-19,205,0
531731,-7,-23,201,0
531742,-22,-24,197,0
531753,-32,-26,200,0
531764,-33,-14,215,0
531775,-33,-20,215,0
531786,-16,-26,187,0
531797,-8,2,187,0
531808,-4,4,210,0
531819,3,1,231,0
531830,8,2,239,0
531841,10,11,248,0
531853,5,14,255,0
531863,0,11,265,0
531874,-3,8,278,0
531885,-11,7,280,0
531896,-20,10,277,0
531907,-40,7,278,0
531918,-60,0,281,0
531930,-90,-4,267,1
531940,-106,-6,250,0
531951,-92,-7,238,0
531962,-15,-10,373,0
531973,-1,57,296,0
531984,55,-11,342,0
531995,107,-19,337,0
532007,173,19,385,0
532017,190,25,328,0
532028,190,1,259,0
532039,167,-10,197,0
532050,130,-8,153,0
532061,105,-33,128,0
532072,69,-60,125,0
532083,47,-82,121,0
532094,14,-77,112,0
532105,33,-62,135,0
532116,56,-47,163,0
532128,73,-32,190,0
532138,82,-15,217,0
532149,76,5,233,0
532160,62,12,240,0
532171,39,6,243,0
532182,24,4,241,0
532193,16,8,250,0
532204,5,12,244,0
532215,-3,4,230,0
532226,0,-4,217,0
532237,2,-12,203,0
532248,-10,-3,192,0
532259,-11,-7,196,0
532270,-9,-8,198,0
532281,-10,-9,205,0
532293,-11,-4,214,0
532303,-15,-1,217,0
532314,-21,1,219,0
532325,-20,2,226,0
532336,-27,4,230,0
532347,-33,4,227,0
532358,-31,3,229,0
532369,-27,1,228,0
532380,-19,-3,226,0
532392,-11,-4,219,0
532403,-2,-6,213,0
532413,6,-6,214,0
532424,18,-11,213,0
532435,19,-9,213,0
532446,19,-9,217,0
532457,18,-12,219,0
532468,17,-16,223,0
532479,12,-14,223,0
532491,2,-13,225,0
532501,-6,-8,227,0
532512,-17,0,233,0
532523,-24,4,245,0
532534,-30,3,257,0
532545,-37,2,261,0
532556,-45,0,258,0
532568,-57,-5,254,1
532578,-62,-10,240,0
532589,-25,21,252,0
532600,-22,-69,301,0
532611,1,-58,280,0
532622,-4,-18,261,0
532633,14,18,278,0
532644,46,46,280,0
532655,69,21,299,0
532667,90,25,303,1
532678,98,40,280,0
532689,115,42,274,0
532700,132,30,284,0
532711,144,7,280,0
532722,141,5,249,0
532733,113,4,197,0
532744,84,2,184,0
532755,63,2,180,0
532766,37,9,184,0
532778,19,13,186,0
532789,5,14,191,0
532799,-2,16,205,0
532810,-5,23,226,0
532821,-5,23,247,0
532832,-6,18,251,0
532843,-5,13,254,0
532854,-6,7,255,0
532865,-6,3,241,0
532876,-3,1,233,0
532888,7,5,221,0
532899,14,9,224,0
532911,20,10,229,0
532921,23,16,221,0
532932,25,17,215,0
532943,27,13,213,0
532954,23,9,207,0
532965,22,5,206,0
532976,18,3,208,0
532987,14,5,207,0
532998,10,3,205,0
533009,1,-1,198,0
533020,1,-2,202,0
533031,3,-2,203,0
533042,3,-1,200,0
533053,10,11,211,0
533064,17,22,206,0
533075,9,36,202,0
533086,19,28,208,0
533097,23,36,204,0
533108,23,22,208,0
533119,17,20,215,0
533130,3,25,223,0
533141,-11,25,233,0
533153,-24,22,240,0
533163,-27,12,244,0
533174,-26,14,264,0
533185,-25,16,278,0
533196,-20,24,285,0
533207,-4,26,293,0
533218,16,59,360,0
533229,36,38,370,0
533240,56,28,347,0
533251,71,21,375,0
533262,61,48,353,0
533274,58,21,289,1
533284,46,-18,236,0
533295,40,-51,199,0
533306,33,-67,174,0
533317,27,-67,144,0
533328,21,-63,129,0
533339,17,-53,133,0
533350,25,-30,150,0
533361,29,-11,177,0
533372,39,4,196,0
533384,68,3,218,1
533394,84,1,222,0
533405,88,-5,215,0
533417,85,-9,213,0
533428,75,-11,213,0
533438,64,-14,211,0
533449,53,-11,204,0
533460,35,-2,203,0
533471,27,2,204,0
533482,21,5,208,0
533493,18,7,212,0
533504,20,9,208,0
533515,23,3,204,0
533526,22,1,204,0
533537,21,1,206,0
533549,16,2,219,0
533560,14,3,219,0
533571,12,2,217,0
533582,15,1,217,0
533593,23,1,214,0
533604,31,2,215,0
533615,35,6,217,0
533626,40,9,220,0
533637,35,13,227,0
533648,27,16,231,0
533659,17,18,236,0
533670,12,20,238,0
533681,6,22,232,0
533693,2,20,223,0
533703,2,19,217,0
533714,2,14,214,0
533725,2,9,211,0
533736,3,3,212,0
533747,6,2,219,0
533758,10,3,225,0
533769,11,8,237,0
533780,12,16,246,0
533792,13,25,253,0
533803,8,39,256,0
533813,0,49,255,0
533824,-16,47,251,0
533835,-30,44,241,0
533846,-46,41,231,0
533857,-33,35,222,0
533868,-38,16,261,0
533880,-35,3,285,1
533891,-34,15,279,0
533901,-4,36,266,0
533912,19,51,282,0
533923,33,20,323,0
533934,42,-4,331,0
533945,38,-10,317,0
533956,58,-2,306,0
533967,91,4,292,0
533978,121,-3,262,0
533990,142,-10,232,1
534000,149,-18,204,0
534011,149,-18,181,0
534022,126,2,192,0
534033,106,4,193,0
534044,86,5,196,0
534055,67,1,200,0
534066,49,-5,211,0
534078,27,-7,221,0
534089,10,-2,235,0
534099,1,8,244,0
534110,-8,10,251,0
534121,-3,9,253,0
534132,2,7,250,0
534143,8,7,244,0
534154,16,7,234,0
534165,30,9,225,0
534176,40,10,216,0
534187,53,14,210,0
534198,65,10,215,0
534209,65,5,208,0
534220,68,3,210,0
534231,67,2,207,0
534242,69,1,206,0
534253,70,0,207,0
534264,65,0,206,0
534275,55,0,205,0
534286,41,-1,204,0
534297,29,-1,203,0
534308,14,0,202,0
534319,2,-1,202,0
534330,-6,-2,203,0
534341,-15,-4,203,0
534353,-31,3,204,0
534363,-32,4,207,0
534374,-31,7,211,0
534385,-27,4,210,0
534396,-24,8,206,0
534407,-18,7,204,0
534418,-13,7,212,0
534429,-11,5,224,0
534440,-9,1,235,0
534451,-8,-7,236,0
534463,-8,-2,244,0
534473,-13,2,256,0
534485,-20,5,265,1
534495,-24,5,267,0
534506,-29,11,262,0
534517,-43,6,272,0
534528,-42,-2,273,0
534539,29,-30,350,0
534550,57,67,410,0
534561,31,71,377,0
534572,51,-13,375,0
534583,46,1,324,0
534594,63,6,330,0
534605,81,1,338,0
534616,79,-7,274,0
534628,58,-33,229,0
534638,54,-28,193,0
534649,46,-25,165,0
534660,51,-22,142,0
534671,49,-31,129,0
534682,40,-39,142,0
534693,36,-31,156,0
534704,40,-28,168,0
534715,56,-22,188,0
534726,73,-19,206,0
534737,94,-16,221,0
534748,110,-13,233,0
534759,109,-9,231,0
534770,89,-15,220,0
534781,66,-18,212,0
534793,51,-15,207,0
534803,43,-8,211,0
534814,34,-2,209,0
534825,26,-5,208,0
534836,20,-1,211,0
534847,14,1,205,0
534858,12,0,207,0
534869,9,1,208,0
534880,4,1,212,0
534892,2,0,207,0
534903,-3,0,208,0
534913,-8,-2,211,0
534924,-10,-3,217,0
534935,-10,-6,222,0
534946,-10,-7,226,0
534957,-9,-1,230,0
534968,-6,1,232,0
534979,-3,2,230,0
534991,-2,3,228,0
535001,0,4,227,0
535012,0,6,226,0
535023,0,9,227,0
535034,3,4,225,0
535045,14,-3,223,0
535056,13,-5,221,0
535067,17,-10,216,0
535079,14,-13,216,0
535089,12,-16,217,0
535100,8,-13,215,0
535111,4,-7,219,0
535122,3,-5,222,0
535133,2,3,225,0
535145,-1,11,231,0
535156,-12,9,232,0
535167,-34,12,227,0
535178,-44,14,228,0
535189,-37,17,224,0
535200,-19,15,246,0
535212,-40,-52,285,1
535222,-26,-32,279,0
535233,-52,-11,271,0
535244,-62,-9,288,0
535255,-39,17,304,0
535266,-11,6,303,0
535278,8,-30,315,0
535289,36,-24,315,0
535299,67,-3,307,0
535310,110,12,302,0
535321,149,21,285,0
535332,185,15,227,0
535343,180,12,195,0
535354,161,5,172,0
535365,142,0,158,0
535376,117,-4,155,0
535387,92,-8,165,0
535398,70,-15,182,0
535409,43,-16,191,0
535420,20,-13,205,0
535431,2,-4,219,0
535442,-10,2,241,0
535453,-13,6,257,0
535464,-17,5,265,0
535475,-16,2,268,0
535486,-7,1,263,0
535497,6,7,241,0
535508,9,10,228,0
535519,14,4,222,0
535530,22,4,220,0
535541,28,3,208,0
535553,34,5,201,0
535563,39,4,202,0
535574,42,1,202,0
535585,42,0,199,0
535596,38,-2,201,0
535608,31,-12,197,0
535619,26,-13,200,0
535630,22,-13,203,0
535641,16,-14,202,0
535653,4,-13,207,0
535663,0,-18,201,0
535674,-7,-15,204,0
535685,-12,-16,205,0
535697,-17,-18,210,0
535707,-20,-17,212,0
535718,-20,-18,210,0
535729,-22,-12,209,0
535740,-22,-6,210,0
535751,-22,-1,218,0
535762,-25,12,226,0
535773,-29,20,232,0
535784,-32,16,235,0
535795,-28,7,230,0
535806,-23,-4,237,0
535817,-6,-31,251,0
535828,1,-34,257,0
535839,2,-21,259,0
535851,-6,-9,259,1
535861,-19,-3,261,0
535872,-20,-4,264,0
535883,44,-1,338,0
535894,30,70,373,0
535905,30,26,341,0
535917,64,-6,374,0
535928,69,-2,344,0
535938,78,11,324,0
535949,88,39,382,0
535960,54,41,317,0
535971,51,26,238,0
535982,34,-37,175,0
535993,33,-46,143,0
536004,32,-45,129,0
536015,41,-42,136,0
536026,48,-31,144,0
536037,49,-9,158,0
536048,55,-1,181,0
536059,62,4,202,0
536070,71,15,221,0
536081,77,18,234,0
536093,84,17,238,0
536103,90,9,230,0
536114,97,3,215,0
536125,96,0,208,0
536136,85,4,213,0
536147,65,3,220,0
536158,50,0,220,0
536169,38,2,220,0
536180,28,1,220,0
536192,21,1,221,0
536203,11,-4,219,0
536213,0,-7,219,0
536224,-10,-7,220,0
536235,-18,-3,219,0
536246,-24,-2,222,0
536257,-28,-3,227,0
536268,-26,-5,227,0
536279,-20,-6,225,0
536291,-9,-7,220,0
536301,-1,-3,220,0
536312,16,-3,215,0
536323,17,-4,215,0
536334,19,-3,215,0
536345,19,-2,221,0
536356,20,-3,220,0
536367,23,-1,220,0
536378,22,-2,222,0
536389,24,1,225,0
536400,25,6,224,0
536411,25,8,222,0
536422,23,9,223,0
536433,23,7,228,0
536444,21,7,227,0
536455,20,6,226,0
536466,19,4,225,0
536478,16,3,217,0
536489,16,4,215,0
536499,14,2,215,0
536510,8,1,218,0
536521,5,1,221,0
536532,4,6,224,0
536543,3,3,229,0
536554,4,1,233,0
536565,7,3,237,0
536576,5,0,240,0
536588,12,3,240,1
536598,25,7,241,0
536609,35,-6,254,0
536620,53,-12,257,0
536631,51,-30,267,0
536642,23,-18,282,0
536653,2,-10,296,0
536664,-1,3,305,0
536675,8,26,302,0
536686,33,50,299,0
536697,56,62,293,0
536708,75,55,272,0
536720,87,37,248,0
536730,99,13,214,0
536741,107,-3,185,0
536753,102,-21,156,0
536763,86,-37,138,0
536774,70,-52,134,0
536785,51,-60,138,0
536796,32,-48,152,0
536807,0,-11,197,0
536818,-17,4,235,0
536829,-27,16,268,0
536840,-41,35,310,0
536851,-49,30,324,0
536862,-44,12,313,0
536873,-31,3,296,0
536884,-19,0,280,0
536895,-5,-2,260,0
536906,8,-5,235,0
536917,19,-1,219,0
536928,22,0,211,0
536939,27,0,204,0
536950,29,1,203,0
536961,27,8,202,0
536972,25,18,198,0
536983,23,21,199,0
536994,20,25,204,0
537005,19,29,209,0
537016,18,30,216,0
537028,19,32,221,0
537038,19,32,221,0
537049,18,27,219,0
537060,18,22,222,0
537071,15,12,226,0
537082,22,15,231,0
537093,20,14,226,0
537104,20,19,225,0
537115,21,23,228,0
537126,21,32,233,0
537137,21,47,238,0
537149,22,44,233,0
537159,15,42,227,0
537170,12,37,225,0
537181,6,38,217,0
537193,1,39,222,0
537203,0,35,233,0
537214,0,32,242,0
537225,0,29,245,0
537236,3,28,250,0
537247,5,31,242,0
537258,6,36,238,0
537269,10,38,235,0
537280,11,38,237,0
537292,11,40,241,0
537303,16,44,246,0
537313,42,43,272,0
537324,51,73,298,0
537336,50,87,291,1
537346,63,68,294,0
537357,63,56,278,0
537368,58,48,261,0
537379,46,50,247,0
537391,42,30,225,0
537401,37,-7,207,0
537412,39,-35,194,0
537423,50,-43,189,0
537434,58,-35,194,0
537445,67,-17,195,0
537456,75,-8,198,0
537467,71,0,207,0
537478,65,19,209,0
537489,61,28,217,0
537500,57,36,224,0
537511,62,32,224,0
537522,75,35,223,0
537533,91,31,218,0
537544,94,28,216,0
537555,98,32,213,0
537566,93,34,211,0
537578,84,32,206,0
537589,73,32,204,0
537599,65,34,204,0
537610,56,37,212,0
537621,48,41,223,0
537632,42,49,232,0
537643,43,50,231,0
537654,43,44,224,0
537665,42,49,222,0
537676,48,46,223,0
537687,54,38,225,0
537698,60,49,224,0
537709,62,52,218,0
537720,63,52,217,0
537731,61,50,216,0
537742,59,53,220,0
537753,59,54,221,0
537764,56,55,223,0
537775,52,58,226,0
537786,48,52,228,0
537797,40,49,232,0
537808,37,49,229,0
537819,41,50,228,0
537831,48,52,225,0
537841,56,53,221,0
537853,62,58,223,0
537863,62,56,226,0
537874,63,46,231,0
537885,56,48,230,0
537896,51,39,227,0
537907,45,32,226,0
537918,40,36,231,0
537929,35,34,229,0
537940,30,37,228,0
537951,28,45,228,0
537962,18,62,221,0
537973,12,70,218,0
537985,15,85,220,0
537995,25,100,225,0
538006,27,89,249,0
538017,29,61,274,0
538028,25,42,285,0
538039,23,45,287,0
538051,21,50,285,1
538062,27,55,286,0
538073,36,51,291,0
538084,42,39,292,0
538095,43,33,283,0
538106,53,11,257,0
538117,67,12,246,0
538128,78,2,239,0
538139,89,-16,218,0
538151,95,-27,202,0
538161,93,-21,192,0
538172,83,-12,178,0
538183,70,-5,173,0
538194,61,0,175,0
538205,55,4,182,0
538216,59,8,195,0
538228,64,13,200,0
538238,62,18,212,0
538249,56,20,230,0
538260,50,29,247,0
538271,46,29,266,0
538282,45,32,266,0
538293,50,27,254,0
538304,58,20,241,0
538315,63,17,227,0
538326,70,16,215,0
538337,73,22,206,0
538348,76,24,208,0
538359,73,22,206,0
538370,72,20,207,0
538381,71,19,212,0
538393,70,16,217,0
538403,70,12,220,0
538414,65,16,220,0
538425,63,15,223,0
538436,50,9,214,0
538447,40,8,214,0
538458,29,4,210,0
538469,23,3,214,0
538480,18,1,216,0
538492,15,-4,215,0
538503,14,-4,216,0
538513,11,-1,216,0
538524,10,0,215,0
538535,10,1,208,0
538546,8,1,205,0
538557,7,3,205,0
538568,4,1,205,0
538579,1,2,210,0
538591,0,0,217,0
538601,-6,6,228,0
538612,-10,10,232,0
538623,-14,11,238,0
538634,-17,15,241,0
538645,-18,12,243,0
538656,-16,11,253,0
538667,-18,18,251,0
538678,-22,23,247,0
538689,-21,28,244,0
538700,-19,30,245,0
538711,-17,29,243,0
538722,15,18,268,0
538733,75,31,361,0
538744,55,60,380,0
538755,56,24,381,0
538766,121,0,378,0
538778,103,4,342,1
538789,90,51,235,0
538799,90,-95,255,0
538810,69,-10,177,0
538821,44,-58,154,0
538832,40,-36,139,0
538843,35,-34,129,0
538855,25,-27,124,0
538866,17,-21,131,0
538878,14,-15,148,0
538889,17,-11,166,0
538900,37,-9,185,1
538911,61,-4,204,0
538921,103,-15,227,0
538932,114,-16,226,0
538943,118,-16,218,0
538954,107,-14,208,0
538965,86,-11,202,0
538976,68,-10,198,0
538987,58,-14,199,0
538998,49,-8,208,0
539009,44,-5,212,0
539020,43,-2,218,0
539031,37,7,217,0
539042,37,6,217,0
539053,39,7,220,0
539064,44,3,218,0
539075,49,5,214,0
539086,61,-1,212,0
539097,67,-5,211,0
539108,70,-6,213,0
539119,70,-7,214,0
539130,70,-7,215,0
539141,58,1,215,0
539153,49,-1,226,0
539163,37,1,234,0
539175,24,2,235,0
539185,16,0,238,0
539196,12,-2,238,0
539207,7,-2,241,0
539218,8,-3,231,0
539229,8,-8,221,0
539240,10,-11,217,0
539251,17,-11,214,0
539262,25,-13,216,0
539273,32,-12,220,0
539284,36,-13,222,0
539295,40,-16,225,0
539306,37,-16,230,0
539317,35,-15,234,0
539328,27,-17,239,0
539339,21,-18,240,0
539350,13,-17,240,0
539361,3,-19,240,0
539372,-1,-21,239,0
539383,-6,-23,237,0
539394,-11,-21,236,0
539406,1,-9,225,1
539417,-1,-77,267,0
539428,20,-53,253,0
539438,18,8,227,0
539449,1,24,258,0
539460,8,4,310,0
539471,28,-4,322,0
539482,37,15,308,0
539493,67,24,308,0
539504,95,31,296,0
539515,106,31,268,0
539526,118,32,230,0
539537,132,38,199,0
539548,131,44,186,0
539560,119,43,180,1
539570,107,38,189,0
539581,73,25,221,0
539593,49,21,219,0
539603,15,19,217,0
539614,1,23,236,0
539625,-5,27,243,0
539636,-17,22,237,0
539647,-11,20,243,0
539658,-1,10,247,0
539669,5,8,232,0
539680,14,8,229,0
539692,18,9,220,0
539703,20,11,217,0
539713,21,12,219,0
539724,25,6,216,0
539735,29,1,204,0
539746,37,-4,208,0
539757,35,-7,205,0
539768,31,-6,200,0
539779,31,-8,196,0
539791,29,-9,196,0
539801,27,-15,197,0
539812,23,-19,201,0
539823,16,-19,203,0
539834,8,-21,201,0
539845,0,-24,200,0
539856,-8,-28,201,0
539867,-13,-32,205,0
539878,-14,-36,204,0
539890,-15,-34,206,0
539900,-14,-34,210,0
539911,-3,-43,215,0
539922,3,-34,221,0
539933,4,-12,224,0
539944,-5,9,229,0
539955,-21,11,232,0
539966,-29,1,237,0
539978,-24,-11,244,0
539989,-15,-16,253,0
539999,-14,-16,255,0
540010,-20,-5,258,0
540021,-27,0,262,0
540032,-35,-5,265,0
540043,-12,-15,283,0
540054,41,-5,377,0
540066,47,-4,371,1
540076,59,-9,336,0
540087,57,-20,312,0
540099,106,0,361,0
540109,110,2,345,0
540120,64,0,277,0
540131,38,5,228,0
540142,29,-1,183,0
540153,21,-20,171,0
540164,19,-26,148,0
540175,22,-27,145,0
540187,29,-26,145,0
540198,35,-20,147,1
540208,39,-21,149,0
540219,45,-19,159,0
540230,63,-17,181,0
540241,84,-6,210,0
540253,94,-2,214,0
540263,104,1,217,0
540274,106,-1,220,0
540285,98,2,225,0
540296,90,5,220,0
540307,82,10,218,0
540318,79,15,215,0
540329,76,11,209,0
540341,72,5,208,0
540351,71,6,207,0
540362,67,8,206,0
540373,59,10,211,0
540384,49,14,216,0
540395,39,12,221,0
540406,26,8,219,0
540417,24,7,219,0
540428,23,7,220,0
540439,24,4,219,0
540450,22,2,220,0
540461,18,2,217,0
540472,17,3,222,0
540483,16,9,229,0
540494,14,10,233,0
540506,13,11,234,0
540516,10,11,235,0
540528,9,9,234,0
540538,11,4,232,0
540549,10,1,227,0
540560,9,1,227,0
540571,7,-1,220,0
540582,4,0,221,0
540593,4,-4,222,0
540604,3,-6,223,0
540615,1,-8,224,0
540626,1,-10,223,0
540637,0,-8,222,0
540648,-1,-6,220,0
540659,-3,-4,217,0
540670,-7,0,216,0
540681,-11,1,218,0
540693,-15,4,222,0
540703,-16,4,226,0
540714,-15,3,232,0
540725,-16,-1,238,0
540736,-30,-11,230,0
540747,-40,-5,224,0
540759,-50,-1,221,1
540769,-40,7,211,0
540780,-3,28,215,0
540792,-26,-43,262,0
540803,-7,-35,264,0
540813,-7,-5,238,0
540824,-9,6,234,0
540835,-10,11,268,0
540846,-3,-22,287,0
540857,6,-40,290,0
540868,16,-18,300,0
540879,59,3,316,0
540891,104,12,313,0
540902,160,22,254,1
540912,170,19,220,0
540923,169,15,197,0
540934,161,13,186,0
540945,142,20,180,0
540956,121,17,183,0
540967,86,22,199,0
540978,54,13,215,0
540989,31,5,216,0
541000,7,7,218,0
541011,-8,17,238,0
541022,-18,26,252,0
541033,-21,24,264,0
541044,-24,21,272,0
541055,-16,18,273,0
541066,-1,7,253,0
541078,1,9,248,0
541089,8,11,242,0
541099,14,12,227,0
541110,21,9,215,0
541121,31,7,213,0
541132,42,4,212,0
541143,47,2,200,0
541154,51,4,186,0
541165,53,4,186,0
541176,53,2,192,0
541187,53,-2,198,0
541199,50,-5,204,0
541209,41,-6,206,0
541220,32,-6,202,0
541231,14,-4,197,0
541242,8,-4,195,0
541253,2,0,196,0
541264,-1,2,201,0
541275,-6,3,203,0
541286,-9,8,203,0
541297,-16,18,204,0
541308,-21,22,210,0
541319,-24,23,216,0
541330,-27,24,224,0
541341,-25,26,231,0
541353,-24,27,234,0
541363,-22,24,238,0
541374,-17,24,245,0
541385,-22,37,249,0
541396,-25,22,251,0
541407,-21,1,247,0
541418,-17,-5,243,0
541429,-16,-11,240,0
541440,-19,-16,243,0
541451,-20,-19,248,0
541462,-16,-21,250,0
541473,3,-30,265,0
541484,69,-27,339,0
541495,84,47,387,0
541506,89,37,346,0
541517,103,2,311,0
541529,113,-13,302,1
541539,140,-8,342,0
541550,131,34,326,0
541561,89,8,314,0
541572,8,-12,217,0
541583,-11,-32,195,0
541594,-18,-36,177,0
541605,-22,-45,163,0
541616,-18,-58,153,0
541628,3,-51,154,0
541638,27,-40,165,0
541649,48,-24,181,0
541660,66,-10,194,0
541671,86,-3,202,0
541682,102,2,208,0
541693,113,4,213,0
541704,110,8,212,0
541715,102,6,212,0
541726,97,2,213,0
541737,78,-11,214,0
541748,69,-13,219,0
541759,76,-15,214,0
541770,81,-15,208,0
541781,82,-19,202,0
541793,79,-20,201,0
541803,78,-14,207,0
541814,75,-10,214,0
541825,71,-7,220,0
541836,71,-3,219,0
541847,70,1,222,0
541858,67,1,224,0
541869,63,4,225,0
541880,59,7,223,0
541892,52,11,222,0
541903,42,11,220,0
541913,36,8,223,0
541924,30,9,224,0
541935,25,8,223,0
541946,20,6,225,0
541957,17,4,228,0
541968,13,4,230,0
541979,14,5,230,0
541991,16,7,232,0
542001,17,9,235,0
542012,14,10,231,0
542023,17,7,231,0
542034,16,2,232,0
542045,11,2,232,0
542056,7,0,230,0
542067,3,-3,229,0
542078,4,-3,228,0
542089,5,-4,229,0
542100,4,-5,227,0
542111,3,-4,227,0
542122,0,-4,228,0
542133,-3,-1,224,0
542144,-5,2,225,0
542155,-11,3,229,0
542166,-13,0,223,0
542178,-12,-2,220,0
542189,-12,2,221,0
542199,-12,2,221,0
542210,-10,2,225,0
542221,-5,4,231,0
542232,-9,0,230,0
542243,-12,-4,228,0
542254,-14,-8,220,0
542266,-17,-12,215,0
542276,-19,-13,213,0
542287,-21,-15,212,0
542298,-22,-18,217,0
542309,-22,-19,221,0
542320,-20,-15,224,0
542331,-18,-11,224,0
542342,-16,-10,224,0
542353,-2,-8,224,0
542364,22,-5,229,0
542376,13,-41,259,1
542386,20,-61,258,0
542397,-5,-34,236,0
542408,-2,-25,245,0
542419,11,0,249,0
542430,20,11,250,0
542441,23,5,251,0
542453,28,0,254,0
542463,30,-3,259,0
542474,34,-4,269,0
542485,48,3,282,0
542496,57,17,288,0
542507,69,34,285,0
542518,84,50,275,0
542529,96,55,260,0
542540,108,49,246,0
542551,118,38,224,0
542562,114,4,187,0
542573,109,-1,169,0
542585,101,-5,160,0
542596,83,-6,171,0
542607,63,-2,188,0
542618,43,11,202,0
542629,35,20,230,0
542640,27,8,240,0
542651,20,16,250,0
542662,16,22,249,0
542673,9,31,246,0
542684,8,28,252,0
542695,3,21,262,0
542706,3,11,251,0
542717,1,9,237,0
542728,4,7,235,0
542739,10,4,230,0
542752,19,1,225,0
542762,29,0,222,0
542773,27,2,222,0
542784,27,1,221,0
542795,24,0,219,0
542806,22,0,219,0
542817,18,0,218,0
542828,8,-2,217,0
542839,1,-5,213,0
542850,-3,-7,212,0
542861,-9,-11,215,0
542872,-3,-11,214,0
542883,0,-12,209,0
542894,1,-9,208,0
542905,2,-7,208,0
542917,0,-5,209,0
542928,0,-3,214,0
542938,-1,0,219,0
542949,-5,1,217,0
542960,-9,3,221,0
542971,-14,4,224,0
542982,-19,2,224,0
542993,-24,2,227,0
543004,-27,5,228,0
543015,-34,8,232,0
543026,-41,4,227,0
543037,-40,3,224,0
543048,-36,2,222,0
543059,-32,1,219,0
543070,-27,0,220,0
543081,-24,-2,222,0
543093,-18,-1,225,0
543103,-16,-1,228,0
543114,-11,-3,228,0
543125,-8,-2,226,0
543136,-8,-3,224,0
543147,-5,-2,226,0
543158,-4,-2,226,0
543169,0,-3,225,0
543180,1,-1,227,0
543192,1,-2,234,0
543203,1,-4,239,0
543214,1,-11,245,1
543224,39,-28,264,0
543235,97,-14,367,0
543246,69,80,347,0
543257,66,-5,301,0
543268,86,-42,272,0
543279,76,-16,270,0
543291,99,-28,299,0
543301,127,-21,317,0
543312,123,8,296,0
543324,102,3,282,1
543334,71,-16,263,0
543345,36,-23,231,0
543356,-26,-27,188,0
543367,-44,-33,178,0
543378,-48,-33,177,0
543389,-46,-28,176,0
543400,-31,-25,182,0
543411,-10,-18,192,0
543422,5,-14,211,0
543433,26,-2,221,0
543444,49,-2,227,0
543455,74,-7,233,0
543466,92,-14,235,0
543478,97,-5,224,0
543489,85,-5,213,0
543499,85,-11,207,0
543510,76,-1,200,0
543521,64,-10,203,0
543532,59,-5,210,0
543543,51,1,216,0
543554,44,1,217,0
543565,47,-1,218,0
543576,49,-2,217,0
543587,49,-7,214,0
543598,50,-5,212,0
543609,53,-7,213,0
543620,58,-5,218,0
543631,62,-1,222,0
543642,60,1,229,0
543653,55,0,233,0
543664,50,1,234,0
543675,42,1,235,0
543686,28,1,232,0
543697,19,2,230,0
543708,11,1,225,0
543719,8,-2,225,0
543730,4,-4,226,0
543741,1,0,229,0
543753,0,0,226,0
543763,-1,0,227,0
543774,-1,-2,227,0
543785,-1,-5,227,0
543796,0,-3,225,0
543807,-1,-3,224,0
543818,-3,-2,227,0
543829,-5,-2,229,0
543840,-4,-2,230,0
543851,-1,-4,230,0
543862,0,-6,229,0
543873,0,-8,227,0
543884,1,-7,226,0
543895,1,-8,226,0
543906,3,-8,227,0
543917,4,-5,226,0
543928,6,-4,223,0
543939,6,-5,225,0
543950,9,-6,224,0
543961,12,-5,225,0
543972,13,-5,226,0
543983,14,-5,226,0
543994,17,-6,226,0
544005,18,-5,225,0
544016,21,-3,224,0
544028,20,0,227,0
544038,16,0,226,0
544049,14,0,225,0
544060,11,0,224,0
544071,8,0,223,0
544082,7,-3,221,0
544093,6,-4,218,0
544104,3,-4,217,0
544116,1,-3,219,1
544126,0,-2,224,0
544137,-1,1,229,0
544149,-1,3,236,0
544159,2,11,237,0
544170,25,20,225,0
544181,25,-27,259,0
544193,24,-7,237,0
544203,-2,-9,226,0
544214,-23,-10,234,0
544225,-16,2,240,0
544237,-9,10,255,1
544247,-4,-4,262,0
544258,1,-8,268,0
544269,7,-10,278,0
544280,25,-3,291,0
544292,52,7,294,0
544303,73,22,292,0
544313,86,27,283,0
544324,93,27,272,0
544335,96,24,257,0
544346,95,2,215,0
544357,91,-10,193,0
544368,90,-18,182,0
544379,93,-26,175,0
544391,97,-32,175,0
544401,99,-32,178,0
544412,100,-32,178,0
544423,97,-31,182,0
544434,90,-29,186,0
544445,82,-26,192,0
544456,78,-18,203,0
544467,75,-16,211,0
544478,76,-5,209,0
544489,65,3,214,0
544500,38,13,245,0
544511,21,19,257,0
544522,8,22,267,0
544533,0,23,274,0
544544,-5,21,275,0
544555,-7,18,268,0
544566,-4,9,256,0
544578,-2,3,245,0
544589,-1,-1,235,0
544599,6,-1,228,0
544610,10,1,227,0
544621,16,1,226,0
544632,22,0,225,0
544643,29,0,224,0
544655,30,2,225,0
544666,32,3,227,0
544678,33,2,226,0
544689,31,0,222,0
544699,29,-1,220,0
544710,21,-1,217,0
544722,16,-2,215,0
544732,10,-5,211,0
544743,4,-4,211,0
544754,0,-2,213,0
544765,-4,-1,214,0
544776,-6,0,213,0
544787,-9,0,208,0
544798,-11,6,211,0
544809,-10,11,209,0
544820,-4,9,213,0
544831,-2,12,217,0
544842,-1,15,225,0
544853,1,13,234,0
544864,4,10,234,0
544875,5,6,231,0
544886,7,4,229,0
544897,8,1,229,0
544908,7,1,227,0
544919,7,2,226,0
544930,7,4,226,0
544942,4,7,230,0
544953,2,11,232,0
544964,1,10,236,0
544975,-5,16,245,0
544986,-7,16,245,0
544997,-12,14,243,0
545008,-14,11,244,0
545019,-18,6,244,0
545030,-24,-1,244,0
545041,-33,-7,244,0
545053,-30,-23,252,0
545063,42,-61,310,0
545074,94,32,413,0
545086,48,50,330,1
545096,63,-13,308,0
545107,65,-32,260,0
545118,87,-15,251,0
545129,119,-14,316,0
545140,103,8,298,0
545151,80,4,252,0
545162,33,16,198,0
545174,4,-89,221,1
545184,15,-34,160,0
545195,-14,-37,143,0
545206,-19,-51,133,0
545217,-3,-39,142,0
545228,22,-31,158,0
545240,45,-24,180,0
545250,65,-18,206,0
545261,84,-11,224,0
545272,96,-1,232,0
545283,104,-5,234,0
545294,100,-5,227,0
545305,78,-12,212,0
545316,69,-17,208,0
545328,61,-25,206,0
545338,54,-25,207,0
545349,53,-31,205,0
545360,58,-34,202,0
545371,62,-33,203,0
545382,65,-31,207,0
545393,63,-29,212,0
545404,60,-25,212,0
545416,55,-22,219,0
545426,54,-16,224,0
545437,45,-12,228,0
545448,38,-10,235,0
545459,33,-7,233,0
545470,19,-6,223,0
545481,15,-3,222,0
545493,12,-2,220,0
545503,8,0,221,0
545514,4,-3,220,0
545525,1,-5,214,0
545536,0,-8,216,0
545547,-1,-9,219,0
545558,-1,-8,224,0
545569,1,-11,231,0
545580,-1,-6,232,0
545592,-1,-6,232,0
545603,-2,-8,232,0
545613,0,-7,231,0
545624,-1,-8,226,0
545635,2,-12,223,0
545646,2,-12,224,0
545657,3,-12,223,0
545668,4,-9,226,0
545679,4,-7,225,0
545691,7,-5,225,0
545701,9,-3,227,0
545712,9,-6,227,0
545723,13,-9,225,0
545734,12,-9,222,0
545745,12,-9,218,0
545756,14,-8,216,0
545767,12,-4,219,0
545778,10,0,222,0
545789,8,5,221,0
545800,0,6,226,0
545811,-2,3,225,0
545822,-8,0,224,0
545833,-12,-3,224,0
545844,-14,-6,227,0
545855,-17,-11,229,0
545867,-12,-6,228,1
545878,7,1,216,0
545889,31,10,233,0
545900,16,-57,265,0
545911,26,-43,243,0
545922,7,-9,220,0
545933,-20,-13,238,0
545944,1,13,261,0
545955,4,9,263,0
545966,8,-6,276,0
545978,16,-3,290,0
545989,29,3,295,0
546000,47,13,296,1
546010,64,30,301,0
546021,76,35,302,0
546032,83,34,289,0
546043,88,24,269,0
546054,86,11,245,0
546065,80,0,218,0
546076,74,-9,196,0
546087,74,-16,182,0
546098,76,-19,174,0
546109,84,-28,167,0
546120,88,-29,164,0
546131,92,-29,163,0
546142,95,-32,162,0
546153,97,-26,176,0
546164,96,-17,192,0
546175,94,-12,205,0
546186,93,-4,218,0
546197,90,6,220,0
546208,72,12,235,0
546219,63,14,255,0
546230,44,20,271,0
546241,25,23,274,0
546253,10,20,278,0
546263,1,13,275,0
546274,-7,7,269,0
546285,-4,8,259,0
546296,-3,7,247,0
546307,0,5,238,0
546318,4,2,229,0
546329,11,9,228,0
546341,16,8,228,0
546351,21,6,223,0
546362,23,4,222,0
546373,23,7,218,0
546384,23,7,214,0
546395,26,4,207,0
546406,26,4,204,0
546417,24,2,202,0
546428,22,1,201,0
546439,16,0,201,0
546450,15,-2,200,0
546461,12,-1,199,0
546472,7,-1,198,0
546483,4,-1,200,0
546494,1,0,205,0
546505,2,0,199,0
546516,1,9,197,0
546528,-4,17,207,0
546538,-7,17,221,0
546549,-7,13,226,0
546560,-8,10,221,0
546571,-12,12,218,0
546582,-10,16,218,0
546593,-10,20,226,0
546604,-18,40,238,0
546615,-28,37,241,0
546626,-31,30,241,0
546637,-28,28,241,0
546648,-29,26,242,0
546659,-28,20,247,0
546670,-29,6,248,0
546681,-20,-7,256,0
546693,31,-32,306,1
546703,80,-11,391,0
546714,93,47,387,0
546725,105,33,357,0
546736,117,-6,326,0
546747,151,-26,352,0
546758,152,-3,351,0
546769,68,-6,227,0
546780,35,-23,200,0
546792,19,-22,192,0
546803,5,-37,185,0
546813,-4,-46,181,0
546824,0,-49,180,0
546835,7,-52,176,0
546846,22,-42,174,0
546857,32,-15,156,0
546868,35,-94,268,0
546879,73,-28,169,0
546891,72,21,214,0
546901,107,-28,195,0
546912,107,2,206,0
546923,119,-12,202,0
546934,112,-3,211,0
546947,99,0,215,0
546957,94,-3,218,0
546968,89,-9,213,0
546979,82,-7,211,0
546991,78,-12,208,0
547001,75,-10,211,0
547012,77,-14,215,0
547023,77,-15,217,0
547034,77,-10,220,0
547045,74,-11,222,0
547056,69,-9,226,0
547067,64,-5,227,0
547078,50,-2,229,0
547089,43,-1,228,0
547100,42,-2,227,0
547111,38,-7,225,0
547122,32,-4,223,0
547133,31,-3,225,0
547144,30,-4,223,0
547155,26,-2,225,0
547166,24,-4,226,0
547178,23,-6,222,0
547188,26,-6,224,0
547199,25,-4,228,0
547210,22,-2,228,0
547221,21,-2,229,0
547232,20,0,230,0
547243,16,0,231,0
547254,18,0,235,0
547265,20,-1,231,0
547276,23,-3,229,0
547287,26,-5,229,0
547298,29,-6,230,0
547309,33,-8,230,0
547320,35,-8,232,0
547331,38,-5,231,0
547342,40,-5,231,0
547353,40,-2,232,0
547364,42,-4,234,0
547375,40,-3,233,0
547386,39,-1,233,0
547397,35,-1,233,0
547408,31,-1,232,0
547419,21,0,230,0
547431,16,1,230,0
547441,11,2,230,0
547453,8,3,231,0
547463,4,4,232,0
547474,3,4,236,0
547485,1,2,234,0
547496,1,1,234,0
547507,3,1,232,0
547518,6,-1,229,0
547529,6,0,228,0
547540,6,0,227,0
547551,6,0,227,0
547562,7,0,228,0
547573,6,2,229,0
547584,3,3,227,0
547595,2,4,225,0
547606,2,8,225,0
547617,1,9,225,0
547629,3,4,222,1
547639,19,-32,213,0
547650,32,-65,241,0
547661,29,-45,244,0
547672,36,-17,226,0
547683,22,-33,214,0
547694,15,-36,212,0
547705,18,-23,217,0
547716,26,-29,227,0
547728,27,-31,231,0
547738,38,-16,234,0
547749,50,6,247,0
547760,49,14,248,0
547771,49,21,249,0
547782,49,25,249,0
547793,47,24,245,0
547804,46,24,243,0
547815,45,18,240,0
547826,44,12,231,0
547837,44,5,224,0
547848,43,1,220,0
547859,44,-10,211,0
547870,41,-7,209,0
547881,39,0,215,0
547893,31,-1,219,0
547903,27,0,227,0
547914,14,-1,232,0
547925,13,-5,232,0
547936,16,-2,230,0
547947,15,-2,227,0
547958,16,0,225,0
547969,22,0,223,0
547980,26,0,220,0
547992,30,-2,218,0
548003,37,-7,215,0
548013,41,-5,211,0
548024,42,-4,206,0
548035,43,-4,207,0
548046,47,-3,208,0
548057,49,0,216,0
548068,51,2,220,0
548079,55,0,230,0
548091,56,-4,237,0
548101,58,-4,245,0
548112,55,-1,252,0
548123,50,0,258,0
548134,43,-7,262,0
548145,30,-23,270,0
548156,27,-28,285,0
548167,13,-25,283,0
548178,1,-24,278,0
548189,-5,-25,270,0
548200,-9,-25,267,0
548211,-8,-27,259,0
548222,-5,-25,257,0
548233,-3,-20,254,0
548244,-2,-17,236,0
548255,0,-28,231,0
548266,3,-34,232,0
548278,8,-27,230,0
548288,9,-27,224,0
548299,10,-28,219,0
548310,9,-30,208,0
548321,8,-25,203,0
548332,5,-22,201,0
548343,3,-26,206,0
548354,2,-25,212,0
548365,3,-18,221,0
548376,7,-12,226,0
548387,9,-12,228,0
548398,22,-17,227,0
548409,26,-18,229,0
548420,30,-17,228,0
548431,29,-13,227,0
548442,25,-12,227,0
548453,19,-17,225,0
548464,14,-20,226,0
548475,11,-19,227,0
548486,6,-22,227,0
548497,1,-22,224,0
548508,-3,-25,225,0
548519,-6,-32,227,0
548531,-9,-33,224,0
548541,-15,-31,224,0
548553,-16,-34,225,0
548563,-10,-38,231,0
548574,-5,-35,232,0
548585,-1,-36,232,0
548596,0,-37,230,0
548607,2,-38,224,0
548618,1,-38,222,0
548629,1,-37,219,0
548640,2,-38,218,0
548651,3,-36,221,0
548662,4,-34,222,0
548673,5,-34,224,0
548684,7,-35,222,0
548695,10,-34,224,0
548706,13,-35,226,0
548717,16,-38,223,0
548728,20,-38,221,0
548739,23,-40,221,0
548750,24,-40,218,0
548761,28,-42,216,0
548772,30,-43,214,0
548783,34,-43,214,0
548794,34,-46,216,0
548805,35,-45,218,0
548816,34,-44,219,0
548828,32,-42,221,0
548838,29,-42,222,0
548849,29,-44,224,0
548860,28,-44,224,0
548871,27,-41,226,0
548882,26,-43,226,0
548893,23,-42,222,0
548905,23,-44,218,0
548916,22,-46,218,0
548926,22,-46,216,0
548937,23,-47,215,0
548948,23,-48,214,0
548959,24,-48,211,0
548970,26,-49,212,0
548981,26,-49,212,0
548993,26,-50,211,0
549003,27,-49,212,0
549014,27,-45,212,0
549025,27,-44,214,0
549036,30,-43,214,0
549047,30,-41,212,0
549058,31,-39,214,0
549069,30,-42,217,0
549080,30,-44,219,0
549092,32,-40,225,0
549103,34,-34,235,0
549113,40,-6,258,0
549124,30,22,290,0
549136,25,22,314,1
549146,27,14,321,0
549157,36,16,326,0
549168,30,13,313,0
549179,31,-18,279,0
549191,37,-34,239,0
549201,40,-37,221,0
549212,43,-50,214,0
549223,44,-41,206,0
549234,37,-25,207,0
549245,41,-20,216,0
549256,42,5,218,0
549267,36,-4,209,0
549279,38,-4,213,0
549289,42,-15,207,0
549300,40,-15,203,0
549311,42,-22,206,0
549322,43,-21,211,0
549333,46,-14,217,0
549344,51,-8,217,0
549355,59,0,218,0
549366,64,7,220,0
549378,70,7,216,0
549388,75,4,221,0
549399,71,11,223,0
549410,65,17,225,0
549421,61,19,228,0
549432,55,17,231,0
549443,50,17,230,0
549454,49,18,231,0
549465,47,16,233,0
549476,42,17,234,0
549487,35,22,227,0
549498,27,23,227,0
549509,14,27,231,0
549520,9,25,236,0
549531,12,24,239,0
549542,13,24,239,0
549553,17,14,236,0
549564,18,14,236,0
549575,18,10,236,0
549586,13,6,235,0
549597,12,2,233,0
549608,14,3,231,0
549619,15,1,230,0
549631,20,-1,232,0
549641,22,-2,232,0
549653,24,-4,231,0
549663,27,-5,230,0
549674,23,-7,229,0
549685,19,-11,230,0
549696,19,-12,231,0
549707,19,-11,231,0
549718,24,-9,230,0
549729,26,-6,227,0
549740,27,-1,229,0
549751,26,0,226,0
549762,22,1,227,0
549773,20,2,230,0
549784,17,2,232,0
549795,13,3,233,0
549806,12,4,235,0
549817,10,5,235,0
549828,10,5,233,0
549839,10,3,235,0
549850,11,2,234,0
549861,9,2,231,0
549872,8,2,230,0
549883,6,3,228,0
549894,2,2,227,0
549905,2,1,228,0
549917,0,6,225,0
549928,-1,10,228,0
549938,-1,10,229,0
549949,-1,11,232,0
549960,0,10,230,0
549971,1,9,229,0
549982,0,8,228,0
549993,1,6,230,0
550004,0,6,230,0
550015,-1,3,229,0
550026,-4,2,230,0
550037,-3,1,229,0
550048,-4,1,231,0
550059,-3,2,230,0
550070,-4,2,231,0
550081,-5,4,231,0
550093,-3,7,232,0
550103,-4,8,239,0
550114,0,4,237,0
550126,-2,3,231,1
550136,-6,5,228,0
550147,-8,4,227,0
550158,-6,7,229,0
550169,4,9,227,0
550180,16,12,237,0
550192,22,2,248,0
550203,23,-2,247,0
550213,6,-3,236,0
550224,9,-4,237,0
550235,15,-3,241,0
550246,23,-10,244,0
550257,30,-6,247,0
550268,38,0,247,0
550279,48,2,245,0
550291,59,3,243,0
550301,68,6,240,0
550312,77,8,235,0
550323,79,10,231,0
550334,76,12,226,0
550345,71,11,224,0
550356,62,7,220,0
550367,55,1,216,0
550378,46,-2,210,0
550389,42,-2,214,0
550400,41,-1,220,0
550411,40,-1,225,0
550422,44,-3,229,0
550433,47,-2,232,0
550444,50,-5,235,0
550455,55,-3,235,0
550466,61,-1,238,0
550478,63,-1,235,0
550488,63,-1,235,0
550499,64,-5,233,0
550510,64,0,231,0
550521,65,0,229,0
550532,67,1,230,0
550543,73,0,228,0
550554,77,1,226,0
550565,80,4,223,0
550576,82,7,219,0
550587,79,10,214,0
550598,78,9,209,0
550609,75,7,205,0
550620,71,5,201,0
550632,66,4,200,0
550642,60,4,205,0
550653,55,7,210,0
550664,49,5,218,0
550675,44,2,228,0
550686,37,3,235,0
550697,35,6,245,0
550708,31,12,256,0
550719,27,16,259,0
550730,33,19,261,0
550741,33,9,243,0
550753,36,16,242,0
550763,38,11,244,0
550774,40,11,246,0
550785,44,5,243,0
550796,49,5,240,0
550807,54,1,237,0
550818,57,-2,235,0
550829,57,-4,230,0
550840,57,-3,224,0
550852,53,-1,220,0
550862,52,-3,219,0
550873,47,-6,216,0
550884,45,-7,218,0
550895,42,-6,216,0
550906,40,-5,216,0
550917,40,-4,215,0
550928,40,-3,215,0
550939,38,-2,220,0
550951,39,-3,221,0
550961,37,-3,224,0
550972,37,-3,223,0
550983,38,-6,225,0
550994,38,-8,226,0
551006,38,-8,223,0
551016,37,-9,222,0
551028,38,-7,221,0
551038,35,-7,221,0
551049,33,-6,225,0
551060,32,-6,227,0
551071,31,-8,225,0
551082,31,-8,225,0
551093,32,-12,227,0
551104,34,-12,227,0
551115,35,-14,225,0
551126,37,-13,224,0
551137,37,-13,224,0
551149,35,-13,224,0
551159,32,-13,224,0
551170,30,-13,226,0
551181,29,-15,228,0
551193,30,-12,231,0
551203,31,-8,238,0
551214,30,-7,239,0
551225,29,-7,234,0
551236,26,-7,231,0
551247,26,-9,230,0
551258,27,-11,233,0
551269,27,-8,232,0
551280,28,-6,228,0
551292,28,-5,225,0
551303,26,-7,223,0
551313,27,-8,226,0
551324,22,-7,230,0
551335,14,-7,229,0
551346,8,-16,227,0
551357,6,-23,223,0
551368,9,-17,208,0
551379,7,-22,197,0
551391,10,-19,195,0
551401,11,-12,199,0
551412,12,-11,202,0
551423,12,-6,204,0
551434,13,-2,204,0
551445,16,2,208,0
551456,25,13,227,0
551468,40,40,260,1
551478,38,51,273,0
551489,28,27,259,0
551500,26,4,232,0
551511,27,7,221,0
551522,22,14,217,0
551533,47,37,252,0
551544,53,35,271,0
551555,61,28,286,0
551566,65,28,293,0
551578,62,28,296,0
551589,57,26,287,1
551599,53,18,261,0
551610,52,12,236,0
551621,54,6,217,0
551632,55,6,206,0
551643,55,6,203,0
551654,54,9,199,0
551665,52,11,197,0
551676,51,13,200,0
551687,50,15,204,0
551698,52,21,218,0
551709,54,24,229,0
551720,53,27,236,0
551732,53,27,237,0
551742,53,28,237,0
551753,51,28,236,0
551766,49,27,233,0
551776,48,25,230,0
551787,48,26,227,0
551798,48,27,228,0
551809,47,26,230,0
551820,47,24,229,0
551832,44,26,231,0
551842,45,23,227,0
551853,45,23,226,0
551864,46,20,222,0
551875,49,19,220,0
551886,48,22,222,0
551897,49,19,221,0
551908,50,17,223,0
551919,51,17,224,0
551930,51,16,227,0
551942,50,17,229,0
551953,50,14,233,0
551963,48,12,234,0
551975,50,11,232,0
551985,49,10,232,0
551996,49,9,231,0
552007,45,3,230,0
552018,44,1,228,0
552029,45,1,228,0
552040,42,0,227,0
552051,41,0,226,0
552062,42,0,225,0
552073,41,0,224,0
552084,41,0,224,0
552095,41,1,224,0
552106,42,1,228,0
552117,42,1,231,0
552128,40,0,231,0
552139,40,0,231,0
552150,38,0,232,0
552161,36,0,231,0
552172,36,0,233,0
552183,37,2,231,0
552194,40,2,230,0
552205,45,2,229,0
552216,48,4,227,0
552228,53,7,224,0
552238,57,8,224,0
552249,62,4,221,0
552260,65,2,221,0
552271,68,2,220,0
552282,73,2,219,0
552293,77,3,220,0
552304,79,4,220,0
552315,79,4,222,0
552326,80,4,223,0
552337,71,6,220,0
552348,65,7,221,0
552359,58,6,224,0
552370,51,4,225,0
552381,44,4,226,0
552393,38,5,228,0
552403,34,6,231,0
552414,29,4,233,0
552425,27,3,232,0
552436,26,3,232,0
552447,28,5,231,0
552458,26,7,233,0
552469,27,6,232,0
552480,30,7,232,0
552491,30,8,231,0
552503,27,6,232,0
552513,28,8,232,0
552524,29,8,229,0
552535,29,6,229,0
552546,29,8,227,0
552557,27,11,228,0
552568,27,10,228,0
552579,26,9,229,0
552591,29,8,231,0
552603,31,7,231,0
552613,33,6,230,0
552624,33,4,230,0
552635,35,6,231,0
552646,39,6,230,0
552657,51,2,227,0
552668,54,1,227,0
552679,57,0,226,0
552691,58,0,224,0
552701,59,0,227,0
552712,60,0,227,0
552723,59,1,228,0
552734,57,2,228,0
552745,51,4,228,0
552756,47,4,228,0
552767,45,6,227,0
552778,43,5,229,0
552789,40,3,230,0
552800,37,2,230,0
552811,37,2,232,0
552822,42,-1,229,0
552834,44,-1,228,0
552844,46,0,226,0
552855,49,0,225,0
552866,52,0,226,0
552878,52,2,226,0
552888,55,1,227,0
552900,57,1,227,0
552912,59,1,228,0
552922,60,0,226,0
552933,60,0,227,0
552944,60,-1,227,0
552955,59,-1,230,0
552966,56,0,227,0
552978,51,-1,229,0
552988,48,-1,230,0
552999,45,-1,231,0
553010,44,-1,232,0
553021,41,-1,230,0
553032,37,-1,231,0
553043,35,-2,229,0
553054,34,-3,229,0
553065,33,-2,229,0
553076,35,-2,228,0
553087,34,-1,228,0
553098,33,1,228,0
553109,34,2,229,0
553120,35,1,229,0
553132,38,-1,229,0
553143,40,-1,229,0
553153,41,-1,228,0
553164,43,-3,229,0
553175,45,-4,229,0
553186,45,-3,229,0
553197,47,-3,229,0
553208,45,-4,230,0
553219,48,-4,228,0
553230,49,-5,230,0
553241,50,-6,230,0
553253,51,-5,228,0
553263,49,-3,229,0
553274,48,-3,229,0
553285,47,-4,229,0
553296,44,-5,227,0
553307,44,-5,229,0
553318,44,-6,230,0
553329,45,-7,230,0
553340,46,-8,231,0
553351,48,-9,230,0
553362,50,-10,231,0
553373,52,-11,231,0
553384,55,-12,228,0
553395,55,-12,228,0
553406,58,-13,228,0
553417,57,-13,227,0
553428,59,-13,227,0
553439,60,-14,225,0
553450,60,-12,225,0
553461,59,-14,223,0
553472,59,-15,224,0
553483,59,-14,226,0
553494,58,-13,226,0
553505,59,-15,226,0
553516,60,-15,225,0
553528,61,-15,226,0
553538,61,-15,225,0
553549,61,-12,225,0
553560,60,-13,228,0
553571,56,-12,226,0
553582,51,-13,225,0
553593,51,-14,229,0
553604,48,-17,228,0
553615,46,-17,228,0
553626,44,-18,229,0
553637,44,-20,229,0
553648,44,-23,226,0
553659,44,-22,229,0
553670,45,-22,227,0
553681,49,-22,227,0
553693,50,-21,226,0
553703,51,-22,225,0
553714,51,-25,227,0
553725,52,-28,227,0
553736,54,-30,228,0
553747,56,-31,227,0
553758,52,-28,223,0
553770,48,-21,221,0
553781,47,-25,224,0
553793,48,-28,225,0
553803,48,-29,226,0
553814,45,-29,224,0
553825,42,-26,222,0
553836,39,-27,223,0
553847,37,-27,221,0
553858,35,-31,218,0
553869,36,-32,221,0
553880,37,-31,220,0
553892,38,-28,221,0
553903,40,-31,225,0
553913,40,-32,225,0
553924,45,-26,225,0
553935,45,-17,222,0
553946,43,-23,225,0
553957,45,-17,223,0
553968,44,-12,220,0
553981,44,-10,219,0
553992,46,-12,222,0
554003,45,-6,224,0
554013,48,-2,223,0
554024,49,0,225,0
554035,48,1,226,0
554046,50,1,225,0
554057,48,4,228,0
554068,48,5,229,0
554079,52,8,228,0
554091,51,9,231,0
554101,49,5,228,0
554112,47,7,226,0
554123,47,4,226,0
554134,43,4,228,0
554145,39,5,231,0
554156,31,8,234,0
554167,27,7,237,0
554178,21,7,237,0
554189,17,5,236,0
554200,17,3,236,0
554211,18,0,231,0
554222,19,-4,229,0
554233,21,-6,230,0
554244,22,-6,229,0
554255,21,-6,228,0
554266,24,-10,227,0
554278,24,-11,230,0
554288,18,-3,231,0
554299,16,-5,233,0
554310,17,-3,233,0
554321,15,-4,233,0
554332,10,-3,231,0
554343,4,-6,228,0
554354,1,-5,227,0
554365,1,-6,230,0
554376,0,-4,231,0
554387,0,-3,232,0
554398,1,-3,228,0
554409,-1,-4,226,0
554420,-2,-3,225,0
554432,0,-5,223,0
554442,0,-7,223,0
554453,2,-7,224,0
554464,1,-8,225,0
554475,1,-8,223,0
554486,0,-4,221,0
554497,-3,-1,224,0
554508,-5,0,227,0
554519,-8,-1,228,0
554530,-7,-4,228,0
554541,-7,-7,228,0
554553,-5,-7,228,0
554563,-1,-5,226,0
554574,0,-3,226,0
554585,1,-3,229,0
554596,1,-7,226,0
554607,-2,-5,221,0
554618,-9,-3,220,0
554629,-15,-4,219,0
554640,-20,-7,221,0
554651,-22,-12,224,0
554662,-16,-10,227,0
554673,-22,-17,235,0
554685,-23,-17,230,0
554697,-20,-17,221,1
554707,-15,-16,218,0
554718,10,-7,211,0
554729,42,14,229,0
554740,25,-45,265,0
554751,50,-9,231,0
554762,46,-21,227,0
554773,61,-32,245,0
554784,71,-39,248,0
554795,74,-28,247,0
554806,76,-19,244,0
554817,85,-16,245,0
554828,93,-16,248,0
554839,111,-8,256,0
554850,106,10,264,0
554861,98,25,263,0
554872,86,26,261,0
554883,71,19,258,0
554894,54,17,254,0
554905,34,10,242,0
554916,15,10,220,0
554928,15,14,206,0
554938,23,14,204,0
554949,27,17,205,0
554960,31,18,208,0
554971,37,21,214,0
554982,50,24,226,0
554993,64,19,226,0
555004,79,18,222,0
555015,90,17,216,0
555026,94,17,215,0
555037,90,15,218,0
555048,83,14,222,0
555059,76,11,229,0
555070,69,11,232,0
555081,49,7,242,0
555093,39,6,242,0
555103,28,6,240,0
555114,19,-1,237,0
555125,27,4,239,0
555136,30,12,236,0
555147,37,17,227,0
555158,44,23,229,0
555169,53,19,228,0
555180,62,17,223,0
555192,68,15,220,0
555203,72,11,215,0
555213,78,4,212,0
555224,82,3,210,0
555235,86,4,210,0
555246,88,10,206,0
555257,86,12,206,0
555268,87,13,207,0
555279,83,12,213,0
555291,81,6,222,0
555301,81,10,226,0
555312,84,13,224,0
555323,82,18,229,0
555334,79,17,235,0
555345,79,13,243,0
555356,79,12,246,0
555367,78,9,251,0
555378,82,10,247,0
555389,82,15,242,0
555400,81,11,241,0
555411,75,17,243,0
555422,72,16,245,0
555433,70,13,248,0
555444,66,11,247,0
555455,63,10,241,0
555466,57,8,232,0
555478,53,5,224,0
555488,49,3,216,0
555499,45,1,207,0
555510,39,3,204,0
555521,35,1,206,0
555532,29,2,207,0
555543,25,2,210,0
555554,22,3,214,0
555565,23,4,216,0
555576,18,3,218,0
555587,19,0,218,0
555598,21,1,221,0
555609,22,1,221,0
555620,25,0,222,0
555632,25,-5,221,0
555642,27,-10,222,0
555653,30,-13,223,0
555664,31,-11,221,0
555675,32,-6,222,0
555686,31,-4,221,0
555697,31,-1,222,0
555708,30,2,225,0
555719,27,1,229,0
555730,26,2,232,0
555742,22,-1,232,0
555753,23,-1,231,0
555763,25,-2,232,0
555774,25,-4,233,0
555785,26,-6,233,0
555796,26,-7,231,0
555807,29,-5,231,0
555818,30,-4,233,0
555829,30,-7,231,0
555840,29,-3,234,0
555851,29,-7,220,0
555862,32,-3,222,0
555873,32,-3,224,0
555884,26,-1,228,0
555895,23,-2,229,0
555906,19,3,235,0
555917,13,2,235,0
555928,14,2,235,0
555939,13,3,236,0
555950,8,0,238,0
555961,17,-2,230,0
555972,14,1,238,0
555983,17,-4,230,0
555994,28,-9,229,0
556005,28,-9,227,0
556016,31,-11,223,0
556028,29,-8,225,0
556038,30,-10,225,0
556049,32,-5,234,0
556060,35,-4,234,0
556071,33,-4,232,0
556082,34,-8,225,0
556093,34,-5,223,0
556104,36,-7,223,0
556115,36,-8,225,0
556126,38,-7,230,0
556137,38,-8,232,0
556149,40,-6,233,0
556159,39,-7,232,0
556170,39,-7,230,0
556181,37,-6,226,0
556193,35,-5,226,0
556203,33,-4,227,0
556214,32,-5,228,0
556225,32,-1,231,0
556236,31,-1,233,0
556247,29,-2,230,0
556258,28,-3,229,0
556269,27,-3,226,0
556280,27,-5,225,0
556292,27,-6,225,0
556303,27,-6,226,0
556313,26,-4,228,0
556324,28,-6,230,0
556335,28,-3,230,0
556346,28,-3,230,0
556357,29,-2,229,0
556368,29,-1,229,0
556379,31,1,227,0
