timestamp,accX,accY,accZ,step
112438,26,-20,226,0
112448,27,-19,227,0
112459,27,-19,227,0
112470,28,-16,228,0
112481,28,-19,229,0
112492,24,-16,237,0
112503,25,-18,234,0
112514,26,-20,231,0
112525,25,-21,226,0
112536,24,-19,225,0
112547,25,-19,227,0
112558,26,-19,229,0
112570,26,-18,229,0
112580,27,-19,225,0
112592,27,-19,224,0
112602,28,-20,223,0
112613,28,-20,225,0
112624,28,-19,226,0
112635,29,-19,227,0
112646,27,-19,228,0
112657,27,-18,229,0
112668,28,-20,231,0
112679,28,-20,232,0
112691,27,-20,233,0
112702,29,-20,230,0
112712,29,-20,231,0
112723,29,-20,228,0
112734,30,-21,228,0
112745,29,-23,228,0
112756,26,-22,225,0
112767,24,-19,222,0
112778,21,-18,221,0
112790,21,-18,226,0
112800,20,-16,229,0
112811,22,-14,234,0
112822,22,-14,236,0
112833,25,-15,238,0
112844,25,-16,234,0
112855,24,-16,230,0
112866,23,-17,226,0
112877,22,-16,225,0
112888,21,-16,225,0
112899,19,-15,228,0
112911,18,-15,228,0
112921,18,-15,228,0
112932,20,-16,228,0
112944,20,-16,228,0
112954,21,-15,228,0
112965,21,-14,227,0
112977,21,-13,229,0
112987,22,-13,230,0
112998,21,-15,232,0
113009,22,-15,232,0
113020,23,-17,232,0
113031,22,-17,230,0
113042,24,-16,227,0
113053,26,-16,226,0
113064,25,-16,227,0
113075,26,-16,229,0
113086,28,-15,230,0
113097,25,-16,233,0
113108,24,-16,233,0
113119,22,-15,231,0
113130,21,-14,228,0
113141,21,-14,229,0
113152,22,-14,230,0
113163,23,-15,233,0
113174,25,-15,232,0
113185,26,-16,232,0
113197,25,-16,229,0
113207,27,-16,228,0
113218,25,-18,227,0
113229,27,-15,227,0
113240,29,-15,228,0
113252,30,-16,228,0
113262,31,-15,229,0
113273,30,-15,229,0
113284,30,-15,229,0
113295,30,-15,228,0
113306,29,-14,229,0
113317,27,-15,230,0
113328,27,-16,231,0
113339,27,-16,232,0
113350,26,-15,231,0
113361,26,-16,230,0
113372,25,-12,231,0
113383,24,-12,230,0
113394,23,-13,229,0
113405,22,-12,231,0
113416,22,-12,232,0
113427,22,-13,231,0
113438,24,-13,230,0
113449,25,-14,231,0
113460,26,-14,230,0
113471,25,-11,230,0
113482,24,-13,229,0
113493,23,-12,229,0
113504,22,-11,230,0
113515,22,-11,231,0
113526,22,-13,233,0
113537,21,-13,232,0
113548,22,-13,233,0
113559,21,-12,230,0
113570,22,-13,230,0
113581,22,-14,228,0
113592,20,-13,228,0
113603,20,-13,228,0
113614,19,-13,230,0
113625,20,-13,230,0
113636,20,-12,231,0
113647,25,-14,231,0
113658,24,-12,229,0
113669,25,-11,229,0
113680,25,-13,229,0
113692,25,-12,229,0
113702,24,-12,230,0
113713,25,-13,230,0
113724,24,-12,230,0
113735,24,-13,230,0
113746,24,-13,230,0
113757,24,-13,231,0
113768,24,-13,230,0
113779,24,-13,229,0
113791,25,-13,231,0
113801,26,-12,229,0
113813,27,-14,230,0
113823,26,-13,229,0
113835,28,-13,232,0
113845,27,-12,229,0
113856,26,-12,230,0
113867,25,-13,231,0
113878,26,-13,230,0
113890,26,-14,230,0
113901,27,-13,230,0
113911,27,-13,229,0
113922,27,-12,231,0
113933,28,-13,230,0
113944,28,-13,230,0
113955,28,-13,229,0
113966,28,-13,229,0
113977,26,-13,228,0
113988,26,-13,229,0
113999,26,-13,230,0
114010,26,-13,231,0
114021,26,-12,232,0
114032,25,-13,231,0
114044,26,-13,231,0
114054,26,-12,231,0
114065,28,-14,230,0
114076,26,-14,228,0
114087,27,-14,229,0
114098,26,-14,229,0
114109,26,-13,230,0
114120,27,-13,230,0
114131,26,-12,231,0
114142,25,-14,231,0
114153,25,-13,230,0
114164,24,-14,230,0
114175,24,-14,229,0
114186,23,-13,229,0
114197,24,-12,230,0
114208,26,-13,231,0
114219,26,-12,230,0
114230,26,-13,230,0
114241,26,-13,230,0
114252,26,-12,230,0
114263,26,-13,230,0
114274,26,-12,229,0
114285,25,-12,230,0
114296,26,-12,231,0
114307,25,-12,230,0
114318,27,-13,231,0
114330,26,-13,230,0
114341,27,-12,230,0
114351,26,-13,229,0
114362,26,-12,229,0
114373,26,-13,229,0
114384,26,-13,228,0
114395,25,-12,230,0
114406,25,-12,231,0
114417,26,-12,229,0
114428,26,-12,229,0
114439,26,-12,230,0
114450,27,-13,230,0
114461,27,-13,229,0
114472,27,-13,230,0
114483,27,-13,229,0
114494,27,-13,230,0
114505,28,-12,231,0
114516,28,-12,230,0
114527,27,-12,229,0
114538,27,-13,231,0
114549,26,-12,231,0
114560,26,-11,230,0
114571,26,-13,230,0
114582,26,-12,231,0
114593,26,-13,230,0
114604,26,-12,230,0
114615,25,-12,230,0
114627,26,-12,230,0
114637,26,-14,231,0
114648,27,-12,230,0
114660,27,-12,230,0
114670,28,-14,230,0
114681,29,-14,229,0
114692,27,-12,229,0
114703,27,-13,229,0
114714,28,-14,229,0
114725,28,-13,228,0
114736,26,-12,229,0
114747,26,-12,230,0
114758,27,-13,230,0
114769,26,-11,230,0
114780,26,-12,230,0
114792,26,-12,228,0
114802,26,-11,230,0
114813,26,-11,230,0
114824,26,-11,230,0
114836,27,-12,230,0
114846,31,-10,230,0
114857,31,-10,229,0
114868,32,-9,228,0
114879,33,-9,229,0
114891,33,-8,228,0
114901,33,-10,230,0
114912,32,-9,230,0
114923,31,-9,231,0
114934,30,-9,231,0
114945,29,-8,234,0
114956,26,-9,231,0
114967,27,-9,231,0
114978,26,-10,229,0
114990,25,-10,231,0
115000,25,-9,230,0
115011,24,-9,229,0
115022,24,-11,229,0
115033,24,-11,228,0
115044,23,-11,229,0
115055,22,-9,228,0
115066,22,-9,229,0
115077,21,-9,231,0
115088,20,-8,231,0
115099,20,-9,233,0
115110,21,-8,233,0
115121,20,-10,230,0
115132,18,-9,228,0
115144,19,-10,228,0
115154,18,-10,229,0
115165,19,-9,229,0
115176,19,-8,229,0
115187,21,-8,229,0
115198,22,-8,230,0
115209,23,-9,229,0
115220,23,-10,230,0
115231,23,-9,229,0
115242,24,-9,230,0
115253,25,-7,230,0
115264,25,-8,232,0
115275,26,-6,231,0
115286,25,-8,228,0
115297,25,-7,230,0
115308,24,-8,231,0
115319,25,-8,231,0
115330,22,-6,231,0
115341,24,-9,227,0
115352,25,-6,229,0
115363,26,-3,232,0
115374,26,-3,235,0
115385,26,-4,233,0
115396,25,-6,228,0
115407,26,-7,229,0
115418,29,-6,227,0
115429,31,-7,226,0
115440,31,-5,229,0
115451,30,-6,231,0
115462,31,-6,229,0
115473,32,-6,229,0
115484,33,-6,231,0
115495,35,-4,233,0
115506,33,-5,232,0
115517,33,-8,231,0
115528,32,-9,229,0
115540,33,-12,229,0
115550,33,-10,230,0
115561,31,-6,229,0
115572,32,-6,229,0
115583,34,-5,228,0
115594,35,-8,229,0
115605,35,-11,228,0
115616,35,-1,226,0
115627,37,0,228,0
115638,36,-3,227,0
115649,39,-2,229,0
115660,41,-2,232,0
115671,41,0,232,0
115682,41,-1,233,0
115693,42,-2,231,0
115704,43,0,230,0
115715,42,0,229,0
115726,41,-1,229,0
115737,37,0,230,0
115748,36,3,230,0
115759,35,6,231,0
115770,32,5,233,0
115781,31,6,232,0
115792,30,5,230,0
115803,30,5,230,0
115814,32,5,229,0
115825,31,6,227,0
115837,31,8,226,0
115847,31,9,228,0
115858,31,9,228,0
115869,31,9,229,0
115880,30,9,230,0
115892,29,8,231,0
115902,30,8,231,0
115913,31,9,229,0
115924,31,11,230,0
115935,34,9,231,0
115946,36,10,231,0
115957,37,10,231,0
115968,38,10,232,0
115979,40,10,231,0
115991,39,9,230,0
116001,39,9,230,0
116012,41,9,230,0
116023,41,10,231,0
116034,41,9,232,0
116045,41,8,232,0
116056,43,7,231,0
116067,43,6,232,0
116078,45,6,231,0
116090,47,4,229,0
116101,49,5,228,0
116111,48,5,226,0
116122,48,5,227,0
116133,48,3,228,0
116144,49,3,229,0
116155,49,4,229,0
116166,47,5,229,0
116177,49,4,230,0
116188,46,5,230,0
116199,45,5,230,0
116210,46,6,230,0
116221,44,6,230,0
116232,43,4,230,0
116244,42,4,230,0
116254,40,6,230,0
116265,35,7,228,0
116276,32,8,229,0
116287,32,8,229,0
116298,33,8,229,0
116309,31,9,230,0
116320,33,8,230,0
116331,34,7,230,0
116342,35,7,230,0
116353,34,8,229,0
116364,34,9,229,0
116375,35,9,229,0
116386,34,9,229,0
116397,34,11,228,0
116408,32,10,227,0
116419,33,9,227,0
116430,35,9,228,0
116441,37,8,228,0
116452,41,7,228,0
116463,43,7,230,0
116474,45,7,229,0
116485,45,8,229,0
116496,43,10,230,0
116507,42,7,230,0
116518,42,8,230,0
116529,41,10,230,0
116540,41,10,229,0
116551,43,9,228,0
116562,42,9,228,0
116573,44,7,226,0
116584,47,6,225,0
116595,52,3,228,0
116606,53,3,229,0
116617,53,3,231,0
116628,52,3,231,0
116639,52,2,232,0
116650,50,2,232,0
116661,49,3,231,0
116672,48,2,229,0
116683,49,1,227,0
116694,49,1,229,0
116705,53,1,228,0
116716,54,2,228,0
116727,55,2,229,0
116738,55,5,228,0
116749,54,4,230,0
116760,52,4,232,0
116771,52,4,231,0
116782,49,3,228,0
116793,47,5,228,0
116804,45,6,228,0
116815,41,5,227,0
116827,39,5,227,0
116837,37,5,229,0
116848,37,5,230,0
116859,37,6,229,0
116870,39,7,230,0
116881,40,8,229,0
116892,39,9,230,0
116903,39,8,230,0
116914,38,7,229,0
116925,43,2,227,0
116936,45,2,227,0
116947,50,1,228,0
116958,48,2,228,0
116969,49,3,230,0
116980,47,3,231,0
116992,46,3,230,0
117002,43,3,229,0
117013,42,5,229,0
117024,39,4,229,0
117035,36,6,228,0
117047,36,5,228,0
117057,35,7,230,0
117068,34,8,229,0
117079,34,12,230,0
117091,27,12,232,0
117102,25,10,233,0
117113,23,10,233,0
117124,24,8,232,0
117135,25,6,230,0
117147,27,6,229,0
117157,26,7,228,0
117168,26,7,228,0
117179,26,9,231,0
117191,26,10,232,0
117202,27,9,229,0
117212,30,8,230,0
117223,33,9,228,0
117234,37,7,227,0
117246,40,7,226,0
117256,42,8,228,0
117267,43,8,230,0
117278,44,8,229,0
117290,45,6,230,0
117300,45,5,228,0
117311,47,5,226,0
117322,47,6,227,0
117333,47,6,228,0
117344,48,4,229,0
117355,49,5,230,0
117366,50,4,228,0
117377,49,6,226,0
117388,49,4,227,0
117400,48,4,226,0
117411,48,5,229,0
117422,49,5,230,0
117433,47,6,230,0
117444,46,5,231,0
117455,44,6,230,0
117466,45,6,231,0
117477,44,4,230,0
117488,46,4,230,0
117499,47,4,229,0
117510,49,3,228,0
117521,48,1,228,0
117532,49,2,227,0
117543,48,4,227,0
117554,48,5,227,0
117565,48,4,226,0
117577,47,4,226,0
117587,49,3,226,0
117598,49,3,227,0
117609,49,2,229,0
117620,51,1,228,0
117631,49,2,229,0
117642,51,1,229,0
117653,52,1,229,0
117664,52,1,228,0
117675,53,0,228,0
117686,52,1,227,0
117697,53,3,227,0
117708,53,2,229,0
117719,54,1,229,0
117730,54,0,229,0
117741,53,1,227,0
117752,53,1,226,0
117763,53,0,226,0
117774,53,0,224,0
117785,54,0,225,0
117796,55,0,226,0
117807,55,0,228,0
117818,56,0,227,0
117829,57,0,229,0
117840,56,0,229,0
117852,55,1,227,0
117863,56,0,228,0
117873,55,0,227,0
117884,57,1,228,0
117895,55,0,228,0
117906,55,1,229,0
117917,56,0,228,0
117928,57,0,227,0
117939,56,0,227,0
117950,55,-1,227,0
117961,55,0,228,0
117972,53,0,227,0
117983,52,1,226,0
117994,52,1,228,0
118005,52,1,228,0
118016,51,0,229,0
118027,50,0,227,0
118038,51,0,227,0
118049,51,0,227,0
118060,50,0,227,0
118071,52,0,228,0
118082,53,0,227,0
118094,52,0,226,0
118104,52,0,228,0
118115,52,0,227,0
118127,51,1,227,0
118137,49,1,226,0
118148,50,1,227,0
118159,50,0,227,0
118170,51,0,227,0
118181,53,0,227,0
118192,54,1,227,0
118203,55,1,228,0
118214,55,1,229,0
118225,55,1,228,0
118236,56,0,226,0
118249,56,1,225,0
118259,57,0,225,0
118270,58,0,224,0
118281,59,0,226,0
118292,58,-1,227,0
118303,59,-1,228,0
118314,59,-1,228,0
118325,59,0,229,0
118336,60,1,228,0
118347,58,1,227,0
118358,55,4,227,0
118369,51,4,226,0
118380,48,1,227,0
118392,45,1,226,0
118402,43,1,228,0
118413,43,1,229,0
118424,42,2,229,0
118435,44,2,228,0
118446,46,3,228,0
118457,48,2,230,0
118468,49,3,229,0
118479,52,5,227,0
118491,53,3,228,0
118502,55,1,226,0
118512,63,-2,227,0
118523,65,-1,227,0
118534,68,-3,224,0
118545,69,-5,222,0
118556,71,-6,221,0
118567,73,-4,223,0
118578,73,-3,225,0
118590,72,-2,226,0
118600,69,-3,227,0
118612,68,-2,227,0
118622,67,-4,227,0
118633,65,-5,229,0
118644,65,-3,228,0
118655,65,-3,228,0
118666,64,-2,227,0
118677,64,-4,226,0
118688,64,-5,225,0
118699,62,-3,226,0
118710,61,-4,225,0
118721,60,-3,225,0
118732,59,-2,226,0
118743,56,0,227,0
118754,57,-3,227,0
118766,56,-1,227,0
118777,56,-1,226,0
118787,55,-1,227,0
118798,57,-1,227,0
118809,57,-2,229,0
118820,57,-2,229,0
118831,57,-1,229,0
118843,58,-1,228,0
118853,57,0,229,0
118864,55,-1,227,0
118875,54,-1,226,0
118886,54,-2,226,0
118897,54,-4,224,0
118908,54,-6,224,0
118920,53,-6,224,0
118930,52,-5,223,0
118941,52,-3,226,0
118952,50,-2,226,0
118963,49,-1,226,0
118974,47,-1,226,0
118985,48,-1,227,0
118996,47,-1,230,0
119007,48,-1,230,0
119018,49,-1,229,0
119029,50,-1,229,0
119040,49,-1,229,0
119052,51,-2,229,0
119062,50,-1,228,0
119073,49,-2,231,0
119084,49,-1,228,0
119095,47,-1,229,0
119106,46,0,228,0
119117,44,1,229,0
119128,43,1,230,0
119139,42,1,230,0
119150,41,0,231,0
119161,39,-1,232,0
119172,35,-7,232,0
119183,34,-9,230,0
119194,32,-10,228,0
119205,32,-8,229,0
119216,29,-3,229,0
119227,28,-5,227,0
119238,27,-4,228,0
119250,27,-3,229,0
119260,27,-1,229,0
119271,29,-3,227,0
119282,29,-3,227,0
119293,32,-4,227,0
119304,32,-4,225,0
119315,33,-3,225,0
119327,35,-6,225,0
119337,35,-3,227,0
119348,35,-2,226,0
119359,36,-3,230,0
119370,40,-4,225,0
119381,43,-6,228,0
119392,46,-6,229,0
119403,50,-7,228,0
119414,53,-8,226,0
119425,57,-8,227,0
119436,60,-10,223,0
119447,63,-10,223,0
119458,64,-13,223,0
119469,63,-13,221,0
119480,64,-12,223,0
119492,65,-13,227,0
119502,64,-14,230,0
119513,60,-11,232,0
119524,60,-1,239,0
119535,57,3,233,0
119546,49,9,221,0
119557,46,9,227,0
119568,44,7,226,0
119579,45,10,228,0
119591,46,15,228,0
119602,46,17,229,0
119612,44,16,226,0
119623,41,15,229,0
119634,38,11,227,0
119645,33,9,225,0
119656,28,10,225,0
119667,25,7,229,0
119678,20,0,231,0
119691,15,0,229,0
119702,15,-1,225,0
119712,12,6,223,0
119723,12,12,225,0
119734,13,11,230,0
119745,14,12,230,0
119756,16,12,233,0
119767,15,15,235,0
119778,12,14,235,0
119790,7,15,237,0
119800,3,14,234,0
119811,-2,8,224,0
119822,-4,8,220,0
119833,-4,7,221,0
119845,-5,7,223,0
119855,-1,6,222,0
119866,0,6,223,0
119877,1,9,228,0
119888,0,11,232,0
119899,1,9,236,0
119910,1,11,236,0
119921,0,11,234,0
119932,0,11,232,0
119943,-3,11,233,0
119954,-6,9,230,0
119965,-8,6,227,0
119977,-9,5,222,0
119987,-8,5,224,0
119998,-11,8,225,0
120009,-13,7,222,0
120020,-19,9,223,0
120031,-22,11,225,0
120042,-26,15,232,0
120053,-26,18,238,0
120064,-25,20,242,0
120075,-21,21,242,0
120086,-18,24,242,0
120097,-13,29,241,0
120108,-13,33,240,0
120119,-14,33,240,0
120130,-20,36,242,0
120141,-36,43,245,0
120153,-37,40,250,1
120163,-13,32,246,0
120174,-10,9,286,0
120185,-11,-6,300,0
120196,-21,24,281,0
120207,-43,22,282,0
120218,-48,20,302,0
120229,-39,28,307,0
120240,-28,34,301,0
120252,-18,29,294,0
120262,-4,27,282,0
120273,16,32,267,0
120284,43,30,258,0
120295,66,23,249,0
120306,100,7,223,0
120317,111,3,208,0
120328,111,-7,188,0
120340,113,-14,182,0
120350,101,-26,171,0
120361,94,-32,170,0
120372,90,-30,173,0
120383,88,-29,174,0
120394,87,-23,186,0
120405,83,-19,196,0
120417,77,-20,206,0
120427,73,-17,217,0
120438,71,-10,226,0
120450,64,-1,232,0
120460,55,4,239,0
120471,40,10,256,0
120482,38,5,253,0
120493,35,2,247,0
120504,26,0,233,0
120515,19,-2,222,0
120527,16,-4,213,0
120537,16,-4,208,0
120548,18,-6,204,0
120559,20,-3,210,0
120570,18,2,214,0
120581,21,1,216,0
120592,21,1,216,0
120603,24,1,214,0
120614,27,2,210,0
120625,28,0,211,0
120636,24,-11,208,0
120647,24,-14,211,0
120658,16,-17,211,0
120669,10,-12,212,0
120680,6,-9,212,0
120692,3,-6,211,0
120702,4,-5,210,0
120713,4,-1,210,0
120724,5,-2,208,0
120735,5,1,207,0
120746,4,6,208,0
120757,5,7,211,0
120768,7,10,212,0
120779,7,11,214,0
120791,1,9,225,0
120802,-5,7,230,0
120812,-12,5,233,0
120823,-15,1,239,0
120834,-17,-2,245,0
120846,-16,-2,248,0
120856,-17,2,250,0
120867,-18,11,250,0
120878,-26,23,253,0
120890,-35,26,254,0
120900,-38,29,258,0
120911,-42,28,264,0
120922,-43,25,264,0
120933,-33,23,274,0
120944,40,-15,355,0
120956,20,78,389,1
120966,37,-4,320,0
120977,84,-39,333,0
120988,87,13,367,0
120999,88,25,329,0
121010,86,-16,270,0
121021,67,-13,255,0
121032,80,-48,202,0
121043,72,-45,152,0
121054,60,-90,122,0
121065,62,-84,107,0
121077,55,-74,106,0
121087,47,-69,118,0
121098,43,-56,146,0
121109,48,-53,168,0
121120,74,-53,205,0
121131,83,-44,214,0
121142,89,-33,216,0
121153,85,-28,213,0
121164,77,-27,205,0
121175,61,-27,199,0
121186,46,-21,202,0
121197,36,-15,210,0
121208,24,-10,215,0
121219,23,-12,215,0
121230,25,-9,215,0
121241,26,-12,210,0
121252,29,-15,207,0
121263,30,-15,203,0
121274,30,-18,203,0
121285,35,-20,202,0
121296,34,-19,205,0
121307,30,-16,209,0
121318,27,-14,215,0
121329,25,-16,222,0
121340,15,-11,226,0
121352,5,-12,224,0
121362,2,-10,228,0
121373,-1,-6,227,0
121384,0,-6,223,0
121395,1,-3,220,0
121406,3,0,218,0
121417,6,0,218,0
121428,7,-1,216,0
121439,12,-2,214,0
121450,20,-5,216,0
121461,20,-4,218,0
121472,16,-1,221,0
121483,13,1,221,0
121494,8,5,224,0
121505,1,6,225,0
121516,-8,10,232,0
121527,-20,16,236,0
121538,-36,11,240,0
121550,-51,5,244,0
121560,-64,4,246,0
121571,-65,7,245,0
121582,-31,3,255,0
121593,-49,-39,306,0
121605,-43,-30,294,1
121615,-37,-1,275,0
121627,-20,18,288,0
121638,-18,-13,304,0
121650,-4,-51,327,0
121660,10,-33,339,0
121671,44,-4,334,0
121682,86,8,315,0
121693,121,15,285,0
121704,142,3,239,0
121715,157,1,207,0
121727,155,10,196,0
121737,152,10,188,0
121748,142,6,174,0
121759,117,-5,187,0
121770,92,-14,191,0
121781,64,-11,194,0
121792,35,-8,213,0
121803,12,-14,226,0
121814,7,-11,248,0
121825,5,-10,252,0
121836,10,-15,244,0
121849,20,-15,238,0
121859,29,-11,236,0
121870,32,-7,224,0
121881,36,-1,220,0
121892,36,2,208,0
121903,35,8,203,0
121914,37,3,200,0
121925,38,-1,194,0
121936,41,-1,197,0
121948,38,-4,192,0
121959,34,-9,194,0
121970,31,-10,193,0
121981,26,-9,194,0
121992,19,-10,195,0
122003,10,-10,200,0
122014,4,-9,205,0
122025,-2,-13,208,0
122036,-8,-14,206,0
122047,-15,-16,203,0
122058,-21,-23,201,0
122069,-20,-22,202,0
122081,-23,-19,194,0
122092,-29,-18,197,0
122102,-33,-26,211,0
122113,-34,-33,224,0
122124,-30,-29,233,0
122135,-28,-4,236,0
122146,-32,12,251,0
122157,-40,13,286,0
122168,-35,2,298,0
122179,-27,-12,295,0
122191,-16,-12,288,0
122202,-19,8,286,0
122212,-30,14,297,0
122223,52,-7,432,0
122234,45,42,400,0
122245,42,-2,362,0
122256,45,-21,322,0
122267,48,-15,293,0
122278,84,-22,334,0
122290,82,-9,339,0
122300,63,1,267,0
122312,57,-32,217,0
122324,56,-31,182,1
122334,66,-29,161,0
122345,59,-26,138,0
122356,57,-25,133,0
122367,32,-44,149,0
122378,23,-35,159,0
122390,25,-33,169,0
122400,47,-32,186,0
122411,71,-28,208,0
122422,86,-26,220,0
122433,91,-21,222,0
122444,89,-19,216,0
122455,90,-11,218,0
122466,74,-6,212,0
122477,58,-7,208,0
122488,49,-7,206,0
122499,42,-6,205,0
122510,35,-5,203,0
122521,34,-6,204,0
122532,22,-2,203,0
122543,21,-7,205,0
122554,15,-3,205,0
122565,8,-2,209,0
122577,3,-3,211,0
122587,-1,-3,213,0
122598,-8,-2,219,0
122609,-7,-6,224,0
122620,-7,-2,222,0
122631,-7,-6,224,0
122642,-6,-11,229,0
122653,-8,-11,226,0
122664,-6,-10,225,0
122675,-4,-6,223,0
122686,-3,-8,223,0
122697,-5,-9,218,0
122708,-5,-8,216,0
122719,-7,-2,211,0
122730,-7,-1,210,0
122741,-7,0,216,0
122752,-6,-1,217,0
122763,-2,-6,216,0
122774,1,-6,217,0
122785,5,-2,218,0
122796,6,5,218,0
122807,3,15,218,0
122818,-5,29,220,0
122829,-17,36,226,0
122840,-26,39,229,0
122852,-41,41,244,0
122862,-71,41,275,0
122873,-93,35,281,0
122884,-107,30,273,0
122895,-110,27,261,0
122906,-98,19,242,0
122917,-46,10,208,0
122928,-29,-22,272,0
122939,-6,-51,292,0
122951,5,-12,266,1
122961,3,-45,275,0
122972,10,-23,310,0
122983,24,4,313,0
122994,54,-8,309,0
123005,110,2,284,0
123016,141,8,249,0
123027,168,-11,207,0
123038,170,0,207,0
123049,168,8,199,0
123060,156,15,198,0
123071,139,3,203,0
123082,115,-6,211,0
123093,91,-3,224,0
123104,62,-1,229,0
123115,32,0,226,0
123127,5,-1,227,0
123137,-14,4,238,0
123148,-22,6,244,0
123159,-14,7,247,0
123170,-2,8,248,0
123181,11,15,251,0
123192,34,25,237,0
123203,40,24,233,0
123214,46,17,224,0
123225,51,15,226,0
123236,53,4,221,0
123247,57,-6,201,0
123258,61,-7,199,0
123269,57,-12,194,0
123280,48,-13,190,0
123292,44,-5,196,0
123302,41,-14,197,0
123313,44,-9,205,0
123324,38,-11,208,0
123335,29,-7,208,0
123346,17,-4,217,0
123357,5,5,228,0
123368,-1,9,215,0
123379,-5,14,201,0
123391,-4,10,195,0
123402,0,6,193,0
123412,2,7,193,0
123423,2,9,197,0
123434,1,11,209,0
123446,4,8,220,0
123456,3,4,227,0
123467,3,-3,233,0
123478,5,-8,238,0
123490,5,-6,238,0
123500,5,-1,242,0
123511,5,0,246,0
123522,0,-3,243,0
123533,-7,0,244,0
123544,19,0,261,0
123555,61,45,354,0
123566,28,68,354,0
123577,52,36,358,0
123589,82,10,333,1
123599,108,19,365,0
123610,83,42,383,0
123621,63,19,327,0
123632,43,-30,252,0
123643,24,-50,211,0
123654,21,-56,179,0
123665,20,-61,158,0
123677,23,-64,144,0
123687,33,-39,143,0
123698,37,-17,158,0
123709,44,5,173,0
123720,51,18,189,0
123732,59,29,207,0
123742,72,25,218,0
123753,88,22,217,0
123764,93,8,215,0
123775,93,5,209,0
123786,93,4,210,0
123797,79,3,212,0
123808,62,7,209,0
123819,54,2,204,0
123830,48,2,204,0
123841,43,4,210,0
123852,33,4,223,0
123863,29,5,225,0
123874,26,3,226,0
123885,24,4,225,0
123896,25,5,223,0
123907,26,4,220,0
123918,23,6,215,0
123929,21,6,212,0
123940,25,6,211,0
123952,27,9,211,0
123962,33,10,213,0
123973,35,14,219,0
123984,38,15,227,0
123995,35,16,231,0
124006,31,17,231,0
124017,26,18,227,0
124028,23,19,226,0
124039,20,20,227,0
124051,21,17,229,0
124061,19,17,225,0
124072,20,17,222,0
124083,23,14,219,0
124094,24,14,221,0
124105,28,8,225,0
124116,34,3,232,0
124127,38,3,241,0
124138,38,3,244,0
124149,37,4,250,0
124160,31,6,248,0
124171,9,14,235,0
124182,-2,23,234,0
124193,-19,24,234,0
124204,-34,21,230,0
124215,-45,25,232,0
124227,-47,31,232,0
124237,-17,40,229,0
124249,9,62,261,1
124259,17,16,302,0
124270,22,8,315,0
124281,2,9,296,0
124292,2,21,284,0
124303,2,27,302,0
124314,9,1,304,0
124325,25,-4,286,0
124336,64,1,252,0
124347,95,-11,233,0
124358,128,-21,216,0
124369,151,-29,195,0
124380,162,-31,180,0
124392,164,-21,185,0
124402,152,-10,193,0
124413,134,-5,194,0
124424,116,-1,195,0
124435,96,1,196,0
124446,71,0,199,0
124457,51,0,212,0
124468,31,-1,229,0
124479,15,0,251,0
124491,6,0,265,0
124502,17,3,262,0
124512,24,2,250,0
124523,30,3,238,0
124534,35,4,228,0
124545,40,5,218,0
124556,41,5,213,0
124567,43,2,212,0
124578,44,0,212,0
124590,44,-7,212,0
124600,46,-8,214,0
124611,47,-6,209,0
124622,43,-5,212,0
124633,40,-2,211,0
124644,33,1,211,0
124655,26,0,211,0
124666,9,0,213,0
124677,3,0,211,0
124688,-3,2,213,0
124699,-6,3,212,0
124710,-7,2,211,0
124721,-4,1,206,0
124732,0,2,206,0
124743,1,1,200,0
124754,5,2,203,0
124765,8,17,208,0
124777,7,15,213,0
124787,16,15,221,0
124798,17,19,221,0
124809,6,10,222,0
124820,0,1,226,0
124831,-1,2,227,0
124842,-9,1,229,0
124853,-14,3,236,0
124864,-20,8,248,0
124875,-23,10,257,0
124886,-27,12,261,0
124897,-28,17,263,0
124908,-35,25,264,0
124919,-44,30,264,0
124930,-48,24,269,0
124941,-6,3,302,0
124953,56,38,409,1
124963,11,89,378,0
124974,33,20,369,0
124986,56,14,255,0
124996,79,-3,298,0
125007,91,-33,330,0
125018,90,-22,304,0
125029,97,-51,240,0
125040,78,-49,204,0
125052,72,-46,170,0
125062,65,-51,141,0
125073,65,-55,121,0
125084,57,-52,118,0
125095,49,-43,127,0
125106,52,-31,150,0
125117,62,-26,170,0
125128,74,-24,188,0
125139,96,-21,206,0
125151,116,-20,219,0
125161,114,-18,220,0
125172,101,-18,212,0
125183,83,-22,205,0
125194,65,-21,204,0
125205,51,-16,209,0
125216,40,-6,213,0
125227,35,-5,216,0
125238,29,-2,217,0
125249,27,-4,219,0
125260,29,-8,219,0
125271,23,-6,216,0
125282,17,-10,217,0
125293,16,-7,214,0
125304,18,-9,208,0
125315,16,-9,209,0
125327,8,-9,213,0
125337,5,-6,220,0
125348,2,-6,224,0
125359,1,-6,228,0
125370,4,-5,231,0
125381,8,-6,232,0
125392,10,-4,229,0
125403,8,-3,229,0
125414,5,0,227,0
125425,4,0,225,0
125436,5,-2,224,0
125447,6,-5,223,0
125458,9,-9,223,0
125469,11,-15,221,0
125480,9,-16,221,0
125492,0,-13,221,0
125502,-3,-8,221,0
125513,-9,-6,223,0
125524,-10,-4,223,0
125535,-12,-5,223,0
125546,-12,-7,219,0
125557,-16,-7,217,0
125568,-26,-7,213,0
125579,-36,-9,213,0
125591,-42,-12,218,0
125602,-43,-4,231,0
125612,-36,6,241,0
125623,6,28,234,0
125634,-8,-12,298,0
125645,-9,-52,309,0
125656,-21,-5,251,0
125668,-11,24,269,1
125678,-5,0,299,0
125690,22,-37,312,0
125700,45,-18,306,0
125711,79,-1,291,0
125722,124,-2,282,0
125733,145,-8,250,0
125744,155,-13,218,0
125755,162,-12,198,0
125766,161,-3,193,0
125777,149,6,192,0
125788,135,13,193,0
125799,114,15,206,0
125810,57,12,230,0
125821,24,12,240,0
125832,-3,16,258,0
125843,-26,21,277,0
125854,-36,17,283,0
125865,-37,11,277,0
125877,-26,2,265,0
125887,-15,0,249,0
125898,-5,0,234,0
125909,1,4,224,0
125920,7,8,219,0
125931,10,1,210,0
125942,20,0,201,0
125953,29,2,195,0
125964,34,1,193,0
125975,41,-1,191,0
125987,43,-1,192,0
125997,42,-3,191,0
126008,38,0,192,0
126019,32,0,193,0
126030,20,-1,193,0
126041,10,-1,196,0
126052,2,-5,202,0
126063,-3,-9,203,0
126074,-5,-13,198,0
126085,-10,-11,195,0
126096,-12,-11,193,0
126107,-14,-12,193,0
126119,-17,-9,197,0
126129,-21,-3,205,0
126140,-23,-4,231,0
126152,-16,6,233,0
126162,-19,30,239,0
126173,-26,29,257,0
126184,-29,19,271,0
126195,-25,10,271,0
126206,-23,5,260,0
126217,-24,5,254,0
126228,-25,4,258,0
126239,-27,2,260,0
126251,-33,-2,260,0
126261,-38,-4,265,0
126272,-47,-1,267,0
126283,-42,-5,272,0
126294,18,-25,341,0
126305,33,16,350,0
126316,59,-21,317,0
126327,47,-22,281,0
126339,54,-23,272,0
126351,106,-14,323,0
126361,113,12,335,0
126373,85,17,294,1
126383,55,11,234,0
126394,27,-16,196,0
126405,25,-23,174,0
126417,24,-47,150,0
126427,27,-54,131,0
126438,37,-52,135,0
126450,42,-33,159,0
126461,36,-26,175,0
126472,35,-25,192,0
126483,45,-17,207,0
126494,59,-12,220,0
126505,70,-12,225,0
126516,78,-15,225,0
126527,82,-17,227,0
126538,79,-14,223,0
126549,76,-13,213,0
126560,69,-15,198,0
126571,59,-10,198,0
126582,54,-9,200,0
126593,47,-11,205,0
126604,44,-9,208,0
126615,48,-8,207,0
126627,40,0,215,0
126637,32,-1,222,0
126648,30,-6,227,0
126659,27,-5,232,0
126670,22,-2,229,0
126681,20,-4,224,0
126692,16,-3,222,0
126703,12,-3,218,0
126714,10,-4,216,0
126725,7,-4,216,0
126736,3,-1,221,0
126747,-2,0,227,0
126758,0,1,230,0
126769,-3,3,232,0
126780,0,3,233,0
126792,3,3,230,0
126802,5,0,228,0
126813,9,-4,226,0
126824,11,-3,224,0
126835,14,-5,220,0
126848,14,-9,215,0
126858,16,-13,215,0
126869,19,-18,212,0
126880,18,-21,211,0
126892,19,-20,213,0
126902,17,-19,213,0
126913,16,-17,218,0
126925,11,-12,222,0
126936,9,-10,223,0
126947,4,-11,225,0
126958,1,-10,228,0
126969,-8,-8,232,0
126980,-23,-9,232,0
126992,-32,-7,233,0
127002,-22,3,233,0
127013,1,22,253,0
127024,-9,-18,294,0
127036,-6,-37,297,1
127046,-15,-19,281,0
127057,-25,-21,277,0
127068,-17,-22,303,0
127079,9,-17,299,0
127091,33,-6,292,0
127102,58,10,294,0
127112,89,29,289,0
127123,111,36,283,0
127134,132,43,269,0
127145,143,34,245,0
127156,153,10,209,0
127167,150,-14,172,0
127178,142,-24,148,0
127190,125,-32,130,0
127200,107,-35,125,0
127211,83,-28,131,0
127222,61,-17,149,0
127233,21,-1,203,0
127244,8,7,233,0
127255,1,15,263,0
127266,1,14,283,0
127277,2,9,281,0
127288,2,9,275,0
127299,1,7,265,0
127310,2,8,256,0
127321,6,5,249,0
127332,10,4,242,0
127343,11,3,237,0
127354,14,1,226,0
127365,20,-1,223,0
127377,28,-5,223,0
127387,37,-8,219,0
127398,42,-6,218,0
127409,34,-2,222,0
127420,27,2,224,0
127431,26,1,219,0
127442,25,2,216,0
127453,22,4,214,0
127464,11,6,212,0
127475,5,9,212,0
127486,0,10,215,0
127497,-7,5,218,0
127508,-3,-6,221,0
127519,0,15,225,0
127530,-6,26,230,0
127541,-15,21,242,0
127552,-17,36,258,0
127563,-8,66,273,0
127574,1,57,254,0
127585,0,64,236,0
127596,-4,47,234,0
127607,1,41,232,0
127618,1,38,213,0
127629,0,29,207,0
127640,3,32,205,0
127652,6,28,206,0
127662,12,24,214,0
127673,16,26,222,0
127684,18,29,230,0
127695,22,31,236,0
127706,25,33,240,0
127717,26,36,244,0
127729,41,34,253,1
127739,48,40,257,0
127751,52,46,254,0
127761,81,55,290,0
127772,89,74,322,0
127783,77,69,312,0
127794,84,25,283,0
127805,69,3,243,0
127816,47,-11,205,0
127827,33,-22,193,0
127838,24,-21,181,0
127849,25,-23,175,0
127860,33,-19,178,0
127871,40,-4,180,0
127882,50,11,191,0
127893,59,42,224,0
127904,68,52,238,0
127916,75,61,246,0
127927,86,59,240,0
127937,90,50,229,0
127948,88,37,214,0
127959,85,26,202,0
127970,79,27,190,0
127981,70,27,177,0
127992,60,23,178,0
128003,50,22,189,0
128014,43,23,209,0
128025,36,19,228,0
128036,30,23,252,0
128047,30,31,266,0
128058,30,22,255,0
128069,34,29,250,0
128080,38,40,236,0
128092,38,37,225,0
128102,38,34,221,0
128113,41,36,220,0
128124,39,37,218,0
128135,40,36,219,0
128146,38,36,221,0
128157,38,34,225,0
128168,40,30,228,0
128179,40,25,230,0
128191,42,20,233,0
128202,42,20,234,0
128212,41,23,232,0
128223,42,22,229,0
128234,38,21,229,0
128245,36,18,229,0
128256,30,18,231,0
128267,24,18,229,0
128278,21,21,227,0
128290,20,26,226,0
128300,22,27,228,0
128311,23,26,227,0
128322,22,23,231,0
128333,22,16,231,0
128344,23,19,231,0
128355,23,23,230,0
128366,20,25,232,0
128377,16,30,228,0
128388,8,38,226,0
128399,4,39,223,0
128411,2,39,219,1
128421,0,41,217,0
128432,-4,48,217,0
128443,-1,56,216,0
128454,6,74,221,0
128465,18,80,236,0
128477,28,58,252,0
128487,28,41,258,0
128498,20,36,254,0
128509,7,28,259,0
128520,-7,25,277,0
128531,-16,23,288,0
128542,-11,32,289,0
128553,41,58,287,0
128564,68,52,284,0
128575,83,43,276,0
128586,90,39,265,0
128597,97,35,250,0
128608,103,24,235,0
128619,106,12,223,0
128630,105,3,213,0
128641,101,2,204,0
128652,96,4,190,0
128663,91,3,186,0
128674,95,0,180,0
128685,91,-5,178,0
128696,88,-5,186,0
128707,87,-4,194,0
128718,87,5,198,0
128729,85,9,216,0
128740,81,14,242,0
128752,78,14,249,0
128762,70,15,259,0
128773,60,21,264,0
128784,58,20,264,0
128795,57,13,254,0
128806,52,9,237,0
128817,48,6,222,0
128828,46,7,218,0
128839,41,10,220,0
128851,37,10,218,0
128861,36,8,216,0
128872,38,8,213,0
128883,40,10,220,0
128894,40,10,224,0
128905,39,8,226,0
128917,38,3,225,0
128927,35,1,227,0
128938,30,0,225,0
128949,26,-3,225,0
128960,23,-3,227,0
128971,20,-1,226,0
128982,20,1,224,0
128993,20,4,221,0
129004,19,8,216,0
129015,17,9,214,0
129027,14,12,208,0
129037,15,14,202,0
129048,17,21,199,0
129059,13,34,198,0
129070,7,36,202,0
129081,3,35,209,0
129092,2,35,218,0
129103,2,36,227,0
129114,1,32,233,0
129125,0,29,240,0
129136,1,27,244,0
129148,2,25,251,0
129158,2,28,255,0
129169,-2,32,259,0
129180,-5,34,253,0
129192,-15,53,236,1
129202,-48,56,245,0
129213,-48,50,228,0
129224,-37,35,236,0
129235,27,-23,277,0
129246,102,23,371,0
129257,69,74,366,0
129268,120,3,407,0
129279,155,27,434,0
129291,145,45,420,0
129302,115,-14,339,0
129312,70,-29,254,0
129323,36,-42,200,0
129334,7,-66,151,0
129346,6,-2,80,1
129356,12,-124,118,0
129367,29,-73,108,0
129378,34,-71,123,0
129390,52,-54,157,0
129400,71,-55,175,0
129411,90,-48,196,0
129422,108,-48,210,0
129433,118,-35,223,0
129444,124,-37,225,0
129455,114,-36,210,0
129466,95,-44,195,0
129477,69,-42,194,0
129488,49,-38,195,0
129499,33,-33,196,0
129510,23,-31,204,0
129521,22,-25,208,0
129532,20,-20,218,0
129543,19,-17,219,0
129554,26,-21,216,0
129565,36,-22,212,0
129577,46,-24,207,0
129587,54,-21,202,0
129598,57,-15,204,0
129609,55,-14,206,0
129620,51,-16,211,0
129631,46,-13,214,0
129642,38,-11,217,0
129653,36,-13,223,0
129664,28,-10,230,0
129675,16,-5,230,0
129686,7,-3,234,0
129697,1,0,234,0
129708,0,2,231,0
129719,4,1,231,0
129731,7,2,224,0
129742,8,-2,219,0
129753,10,-3,216,0
129764,11,-9,215,0
129775,9,-10,213,0
129786,8,-13,216,0
129797,4,-11,221,0
129808,3,-17,222,0
129819,2,-17,228,0
129830,-3,-18,233,0
129841,-12,-19,235,0
129852,-16,-13,238,0
129863,-17,-8,234,0
129874,1,0,223,0
129885,-4,-13,246,0
129897,-23,-65,269,1
129907,-23,-46,260,0
129918,-25,-24,250,0
129929,-24,1,273,0
129940,-27,-16,311,0
129952,-8,-27,331,0
129962,16,-5,338,0
129973,48,14,343,0
129984,85,35,345,0
129995,113,47,323,0
130007,139,30,245,1
130017,149,13,204,0
130028,148,5,175,0
130039,139,0,151,0
130051,126,-8,139,0
130061,111,-12,147,0
130072,90,-1,166,0
130083,72,-3,187,0
130094,59,2,213,0
130105,42,7,233,0
130116,14,18,239,0
130127,3,29,257,0
130138,4,17,260,0
130149,7,18,262,0
130160,12,16,265,0
130171,8,10,244,0
130182,7,9,229,0
130193,7,6,216,0
130204,10,3,209,0
130215,14,-1,198,0
130227,18,-4,187,0
130237,21,-1,185,0
130248,20,1,190,0
130259,18,-1,190,0
130270,16,-1,193,0
130281,13,-1,198,0
130292,10,-3,205,0
130303,7,-6,210,0
130314,6,-9,212,0
130325,3,-10,214,0
130336,-13,-5,214,0
130347,-21,-3,211,0
130358,-27,-3,211,0
130369,-32,-3,209,0
130380,-33,-3,212,0
130392,-35,-5,214,0
130402,-37,-10,219,0
130413,-40,-11,223,0
130424,-40,-11,231,0
130435,-41,-11,239,0
130446,-33,-12,245,0
130457,-34,6,252,0
130468,-42,16,260,0
130479,-44,-3,276,0
130491,-39,-21,277,0
130502,-13,-34,277,0
130512,-2,-32,276,0
130523,0,-22,281,0
130534,-8,-29,277,0
130545,8,-40,291,0
130556,42,-17,380,0
130568,29,10,331,1
130578,39,-45,295,0
130590,39,-37,293,0
130600,24,-19,275,0
130611,36,-3,284,0
130622,67,10,314,0
130633,55,6,273,0
130644,55,5,236,0
130655,45,-12,214,0
130666,44,-31,168,0
130677,43,-40,154,0
130688,44,-33,148,0
130699,42,-33,144,0
130710,47,-32,154,0
130721,58,-32,168,0
130732,69,-24,186,0
130743,80,-16,192,0
130754,87,-8,202,0
130765,95,-11,210,0
130777,97,-13,213,0
130787,91,-10,212,0
130799,81,-9,212,0
130809,71,-2,216,0
130820,61,-1,219,0
130831,41,-1,217,0
130842,35,-2,215,0
130853,34,-3,219,0
130864,28,2,216,0
130875,24,4,216,0
130886,22,1,217,0
130897,17,1,211,0
130908,12,0,213,0
130919,7,0,215,0
130930,3,-1,214,0
130941,-3,0,215,0
130952,-8,-1,214,0
130963,-12,0,216,0
130974,-14,1,222,0
130985,-14,3,226,0
130996,-10,5,235,0
131007,-9,6,234,0
131018,-9,6,232,0
131029,-9,6,232,0
131040,-8,5,227,0
131052,-8,1,225,0
131062,-1,0,222,0
131073,0,-1,216,0
131084,2,-6,213,0
131095,6,-11,210,0
131106,8,-15,210,0
131117,6,-17,209,0
131128,4,-18,212,0
131139,3,-16,215,0
131151,3,-11,221,0
131161,4,0,230,0
131172,2,1,233,0
131183,0,9,231,0
131194,-10,5,233,0
131205,-17,-4,235,0
131216,-24,-7,229,0
131228,-26,-1,225,1
131238,4,14,215,0
131249,-21,-28,278,0
131260,-34,-60,294,0
131271,-47,-29,272,0
131282,-62,-28,279,0
131293,-60,-19,297,0
131304,-42,1,294,0
131315,-14,-17,289,0
131327,61,-16,300,0
131337,106,-3,297,0
131348,134,0,275,0
131359,154,1,242,0
131371,170,1,212,1
131381,170,2,193,0
131392,165,5,186,0
131403,156,9,182,0
131414,135,13,180,0
131425,106,9,194,0
131436,76,2,215,0
131447,45,0,227,0
131458,14,-3,238,0
131469,-10,1,253,0
131480,-24,3,264,0
131492,-12,11,271,0
131502,-1,9,262,0
131514,2,3,244,0
131524,7,1,221,0
131535,13,7,210,0
131546,19,10,213,0
131557,18,4,205,0
131568,18,0,204,0
131579,19,0,201,0
131591,22,2,203,0
131602,24,4,199,0
131612,25,5,196,0
131623,26,6,193,0
131634,23,5,193,0
131645,23,3,193,0
131656,16,-1,193,0
131667,11,-5,194,0
131678,6,-12,192,0
131690,3,-10,190,0
131700,0,-8,184,0
131711,-3,-6,189,0
131722,-5,-6,190,0
131733,-9,-3,193,0
131744,-13,-1,199,0
131755,-14,2,207,0
131766,-16,6,219,0
131777,-15,10,232,0
131788,-15,12,239,0
131799,-17,12,246,0
131810,-13,11,252,0
131821,-28,33,276,0
131832,-34,12,283,0
131843,-32,-3,278,0
131854,-30,1,277,0
131865,-30,7,281,0
131877,-36,4,275,1
131887,-38,-1,274,0
131898,-31,-14,278,0
131909,22,-30,328,0
131920,61,-1,401,0
131931,79,19,372,0
131942,85,1,348,0
131953,84,-24,322,0
131964,112,-13,319,0
131975,116,-1,308,0
131986,65,-35,208,0
131997,59,-50,176,0
132008,62,-49,162,0
132019,64,-51,155,0
132030,59,-50,142,0
132042,45,-11,124,0
132053,49,-90,218,0
132064,66,-59,156,0
132075,59,8,185,0
132086,71,-27,194,0
132097,74,-12,198,0
132108,89,-4,206,0
132119,104,-17,206,0
132130,115,-12,215,0
132141,111,-5,214,0
132152,98,-9,210,0
132163,81,-13,206,0
132174,74,-12,207,0
132185,68,-9,210,0
132196,63,-8,212,0
132207,62,-6,215,0
132218,55,-1,215,0
132229,49,3,219,0
132240,47,2,223,0
132252,44,4,222,0
132262,41,-5,216,0
132273,40,5,212,0
132284,33,7,208,0
132295,23,-7,215,0
132306,25,2,222,0
132317,20,3,219,0
132328,11,9,228,0
132340,3,5,234,0
132351,-5,13,238,0
132361,-12,12,236,0
132372,-14,9,232,0
132385,-16,5,229,0
132395,-17,1,226,0
132406,-15,0,224,0
132417,-13,-4,221,0
132428,-13,-2,221,0
132439,-16,-8,222,0
132452,-10,-12,215,0
132462,-5,-21,204,0
132473,-7,-18,205,0
132484,-8,-10,211,0
132495,-10,-10,217,0
132506,-12,-13,225,0
132517,-14,-12,232,0
132528,-18,-13,236,0
132539,-22,-13,238,0
132551,-24,-13,241,0
132561,-32,-22,247,0
132573,-33,-26,250,0
132584,-31,-26,249,1
132594,-7,-9,248,0
132605,21,7,262,0
132616,-7,-64,303,0
132627,-4,-63,295,0
132638,1,-32,275,0
132649,8,-15,274,0
132660,9,-9,296,0
132671,19,-27,306,0
132682,40,-33,294,0
132693,65,-23,280,0
132704,96,-11,258,0
132715,124,1,230,0
132727,147,11,204,0
132737,163,32,179,0
132748,165,45,154,0
132759,142,59,161,0
132770,120,52,165,0
132781,89,47,192,0
132792,62,36,232,0
132803,33,19,253,0
132814,-2,22,266,0
132825,-21,24,275,0
132836,-28,18,280,0
132847,-25,9,264,0
132858,-20,8,258,0
132869,-20,12,253,0
132880,-16,18,249,0
132892,-13,16,240,0
132902,-5,16,236,0
132913,0,13,224,0
132924,0,1,196,0
132935,1,-2,190,0
132946,4,-5,187,0
132957,7,-10,185,0
132968,9,-14,188,0
132979,10,-16,190,0
132991,9,-20,192,0
133002,7,-26,201,0
133012,6,-28,201,0
133023,3,-22,196,0
133034,-2,-22,193,0
133045,-9,-21,193,0
133056,-16,-20,198,0
133067,-23,-18,202,0
133078,-29,-15,209,0
133090,-34,-9,221,0
133100,-31,-10,226,0
133111,-34,-3,218,0
133122,-39,0,219,0
133133,-40,-2,224,0
133144,-41,-1,229,0
133155,-37,-1,232,0
133166,-35,-3,234,0
133177,-31,-5,237,0
133188,-28,-5,241,0
133199,-25,-12,243,0
133210,-21,-17,245,0
133221,-18,-18,242,0
133232,-18,-20,236,0
133243,-18,-22,245,0
133255,-13,-28,268,0
133266,-13,-31,277,0
133277,-19,-28,282,0
133288,-32,-17,284,1
133298,-39,-26,285,0
133309,1,-48,316,0
133320,37,-4,421,0
133331,17,41,345,0
133342,32,-45,301,0
133353,31,-38,270,0
133364,28,-38,275,0
133375,63,-25,313,0
133386,61,-3,290,0
133397,47,34,224,0
133408,45,-97,273,0
133419,40,-14,176,0
133430,36,-28,149,0
133441,40,-30,139,0
133452,45,-26,136,0
133463,52,-18,144,0
133474,59,-13,154,0
133485,64,-10,167,0
133496,74,-14,187,0
133507,84,-15,209,0
133518,84,-14,222,0
133529,76,-15,227,0
133540,70,-17,227,0
133552,70,-25,229,0
133562,68,-28,228,0
133573,63,-25,225,0
133584,46,-30,205,0
133595,38,-25,201,0
133606,32,-20,201,0
133617,36,-16,206,0
133628,36,-12,213,0
133639,35,-9,217,0
133651,39,-3,222,0
133661,25,-1,213,0
133672,15,-4,212,0
133683,8,-4,212,0
133694,0,-2,213,0
133705,-5,-2,214,0
133716,-13,-1,219,0
133727,-17,0,221,0
133738,-19,-2,222,0
133749,-22,0,228,0
133760,-21,-1,230,0
133771,-16,-2,231,0
133782,-15,-2,229,0
133793,-15,-3,228,0
133804,-14,-4,224,0
133815,-11,-5,222,0
133827,-9,-2,218,0
133837,-8,-1,220,0
133848,-4,-4,217,0
133859,-2,-7,217,0
133870,1,-15,216,0
133881,5,-17,213,0
133892,8,-18,210,0
133903,7,-18,209,0
133914,1,-12,208,0
133925,-1,-10,214,0
133937,-5,-8,214,0
133948,-12,-2,216,0
133959,-24,-4,219,0
133971,-35,-9,220,1
133981,-47,-8,220,0
133992,-42,-3,214,0
134003,-5,13,221,0
134014,-30,-31,285,0
134025,-17,-43,292,0
134036,-26,-4,281,0
134047,-47,-10,296,0
134058,-9,11,313,0
134069,-3,-15,318,0
134080,9,-19,323,0
134092,29,-8,320,1
134102,57,10,317,0
134113,85,20,304,0
134124,109,19,279,0
134135,130,23,256,0
134146,131,16,213,0
134157,130,3,169,0
134168,130,1,143,0
134179,119,-3,127,0
134191,105,-7,127,0
134202,86,-7,142,0
134212,70,-10,159,0
134223,49,-9,194,0
134234,39,-3,211,0
134245,31,6,235,0
134256,26,12,253,0
134267,25,6,268,0
134278,29,3,270,0
134290,27,3,268,0
134300,23,6,265,0
134311,15,8,259,0
134322,10,4,250,0
134333,7,3,241,0
134344,2,2,237,0
134355,2,3,229,0
134366,10,1,229,0
134377,10,0,223,0
134388,13,1,216,0
134399,12,0,211,0
134410,11,-1,211,0
134421,11,-5,211,0
134432,7,-9,214,0
134443,5,-11,220,0
134454,3,-7,217,0
134465,-1,-7,210,0
134477,-3,-7,202,0
134487,-7,-7,194,0
134498,-7,-5,191,0
134509,-7,-5,189,0
134520,-3,-5,193,0
134531,-2,-9,190,0
134542,0,-7,189,0
134553,0,-5,210,0
134564,-1,3,212,0
134575,-5,7,217,0
134586,-8,14,224,0
134597,-17,30,233,0
134608,-29,21,242,0
134619,-32,5,250,0
134630,-29,1,251,0
134641,-27,1,256,0
134652,-22,-2,257,0
134664,-21,2,259,1
134674,-25,6,255,0
134685,-26,-2,263,0
134696,35,-34,321,0
134707,65,25,403,0
134718,60,-8,372,0
134729,55,-18,323,0
134740,79,-16,349,0
134752,85,6,380,0
134762,43,7,330,0
134773,28,-8,257,0
134785,10,-23,212,1
134795,3,-33,181,0
134806,2,-52,146,0
134817,13,-64,132,0
134828,32,-61,131,0
134839,38,-48,143,0
134851,46,-32,151,0
134861,54,-22,166,0
134872,58,-10,181,0
134883,69,2,217,0
134894,77,1,229,0
134905,85,-2,228,0
134917,87,-13,219,0
134927,90,-14,220,0
134938,86,-14,215,0
134949,77,-15,215,0
134960,68,-15,209,0
134971,61,-14,209,0
134982,55,-14,207,0
134993,47,-11,204,0
135004,41,-4,211,0
135015,43,-4,220,0
135027,42,-2,225,0
135037,34,-3,228,0
135048,27,-5,229,0
135059,24,-7,225,0
135070,19,-9,218,0
135081,18,-9,216,0
135092,17,-9,213,0
135103,13,-10,209,0
135114,11,-11,211,0
135125,8,-9,216,0
135136,3,-9,223,0
135148,1,-7,228,0
135158,-2,-5,232,0
135169,-5,-2,234,0
135180,-6,0,233,0
135192,-5,0,231,0
135202,-3,1,229,0
135213,1,-1,225,0
135224,8,-1,226,0
135235,16,-6,226,0
135246,18,-11,221,0
135257,19,-14,218,0
135268,17,-16,218,0
135279,16,-19,216,0
135291,14,-18,216,0
135302,10,-16,217,0
135312,6,-10,221,0
135323,3,-4,221,0
135334,0,0,223,0
135345,-2,-1,219,0
135357,-2,1,216,0
135368,-5,2,217,1
135378,-13,0,218,0
135391,-16,3,219,0
135402,-19,6,221,0
135412,7,4,217,0
135423,16,-15,255,0
135434,3,-56,267,0
135445,5,-34,257,0
135456,-13,-20,252,0
135467,-26,-19,262,0
135478,-12,4,264,0
135490,-1,2,267,0
135500,8,-21,275,0
135511,25,-16,289,0
135522,37,-2,300,0
135533,77,29,318,0
135544,109,33,323,0
135555,122,25,305,0
135566,126,9,276,0
135577,126,-6,247,0
135588,125,-27,215,0
135599,121,-43,192,0
135610,107,-52,169,0
135621,95,-55,158,0
135632,83,-56,154,0
135643,70,-53,156,0
135654,58,-40,163,0
135665,51,-26,180,0
135677,43,-15,200,0
135687,36,-15,218,0
135698,33,3,253,0
135709,21,6,263,0
135720,16,8,274,0
135731,15,4,281,0
135742,17,1,273,0
135753,22,9,257,0
135764,23,0,244,0
135775,26,-10,239,0
135786,26,-17,230,0
135797,31,-15,222,0
135808,34,-19,222,0
135819,40,-23,224,0
135830,42,-21,227,0
135841,40,-18,227,0
135852,39,-16,230,0
135863,37,-21,222,0
135874,33,-15,224,0
135885,24,-11,222,0
135896,13,-14,215,0
135907,4,-10,203,0
135918,0,-13,197,0
135929,-1,-16,195,0
135940,-1,-21,199,0
135952,-1,-22,203,0
135962,1,-22,204,0
135973,4,-21,205,0
135984,8,-19,208,0
135995,8,-17,212,0
136006,9,-14,218,0
136017,7,-8,221,0
136028,-2,-1,233,0
136039,-3,0,235,0
136051,-1,-4,230,0
136061,3,-9,228,0
136072,14,-14,234,0
136083,27,-19,250,0
136094,39,-18,263,0
136105,45,-14,268,0
136116,54,-14,265,0
136128,57,-16,262,1
136138,57,-22,264,0
136149,54,-22,256,0
136160,46,-21,232,0
136171,35,-22,216,0
136182,27,-22,207,0
136193,25,-17,204,0
136204,28,-16,209,0
136215,32,-18,212,0
136227,36,-21,219,0
136237,39,-21,224,0
136248,39,-22,223,0
136259,41,-26,220,0
136270,44,-25,212,0
136281,41,-24,209,0
136292,41,-26,214,0
136303,42,-19,218,0
136314,43,-14,225,0
136325,44,-14,233,0
136337,47,-17,236,0
136348,47,-14,239,0
136359,48,-13,239,0
136370,49,-13,240,0
136381,50,-14,240,0
136392,53,-13,237,0
136404,56,-14,234,0
136414,59,-18,229,0
136425,60,-16,222,0
136436,58,-18,217,0
136447,57,-17,211,0
136458,57,-19,211,0
136469,53,-18,209,0
136480,50,-16,216,0
136492,47,-16,223,0
136502,44,-13,233,0
136513,44,-12,235,0
136524,45,-11,237,0
136536,44,-10,236,0
136546,44,-10,233,0
136557,43,-11,231,0
136568,41,-13,230,0
136579,39,-17,228,0
136591,40,-17,225,0
136602,39,-15,226,0
136612,39,-15,228,0
136623,38,-15,229,0
136634,39,-14,229,0
136645,40,-13,228,0
136656,40,-14,227,0
136667,41,-14,228,0
136678,42,-13,230,0
136690,40,-12,232,0
136700,40,-11,233,0
136711,41,-13,234,0
136722,40,-11,229,0
136733,40,-11,227,0
136744,42,-12,225,0
136755,41,-11,223,0
136766,44,-10,224,0
136777,42,-13,223,0
136788,42,-13,226,0
136799,44,-13,227,0
136810,45,-11,227,0
136821,45,-11,230,0
136833,43,-10,231,0
136843,42,-12,231,0
136854,41,-11,231,0
136865,39,-10,233,0
136877,37,-11,234,0
136887,37,-14,233,0
136898,38,-14,231,0
136910,37,-14,230,0
136920,37,-13,227,0
136931,37,-10,227,0
136942,38,-10,227,0
136953,37,-9,229,0
136964,36,-10,228,0
136975,37,-11,228,0
136986,37,-9,231,0
136997,35,-10,227,0
137008,35,-8,227,0
137019,35,-8,227,0
137030,35,-9,229,0
137041,36,-8,230,0
137052,35,-9,230,0
137063,35,-9,232,0
137074,36,-10,230,0
137085,37,-11,230,0
137096,37,-12,228,0
137107,37,-10,226,0
137118,36,-10,227,0
137129,36,-11,230,0
137140,35,-11,230,0
137152,37,-10,231,0
137162,37,-10,227,0
137173,38,-11,229,0
137184,38,-12,231,0
137195,37,-9,231,0
137206,36,-10,229,0
137217,37,-12,231,0
137228,36,-12,229,0
137239,36,-11,229,0
137251,34,-9,229,0
137261,34,-10,229,0
137272,35,-11,230,0
137283,35,-12,230,0
137294,34,-12,230,0
137305,34,-12,231,0
137316,32,-13,229,0
137328,33,-13,228,0
137339,32,-14,228,0
137351,32,-13,229,0
137361,32,-12,230,0
137372,32,-11,230,0
137383,32,-12,229,0
137394,34,-12,230,0
137405,33,-11,229,0
137417,34,-11,230,0
137427,34,-11,229,0
137438,35,-13,229,0
137449,34,-12,229,0
137460,35,-13,228,0
137471,35,-13,228,0
137482,35,-13,230,0
137493,36,-14,228,0
137504,35,-11,232,0
137515,35,-10,230,0
137527,35,-12,231,0
137537,34,-11,229,0
137548,33,-12,229,0
137559,33,-10,228,0
137570,31,-11,229,0
137581,30,-12,228,0
137592,29,-12,229,0
137603,31,-12,229,0
137614,32,-12,231,0
137625,31,-12,231,0
137636,32,-11,230,0
137647,30,-11,230,0
137658,28,-11,229,0
137669,28,-11,229,0
137680,27,-10,228,0
137692,28,-10,228,0
137702,30,-11,229,0
137713,29,-11,229,0
137724,29,-11,227,0
137735,29,-11,227,0
137746,28,-10,227,0
137757,26,-9,229,0
137768,26,-11,229,0
137779,25,-9,231,0
137791,25,-10,231,0
137802,25,-11,232,0
137812,28,-13,231,0
137823,27,-11,229,0
137834,29,-12,231,0
137845,30,-12,228,0
137856,30,-11,228,0
137867,31,-11,228,0
137878,32,-11,226,0
137890,32,-11,226,0
137900,32,-12,229,0
137912,34,-12,230,0
137923,34,-10,230,0
137934,34,-14,231,0
137945,35,-13,232,0
137956,37,-14,228,0
137967,38,-15,229,0
137978,36,-15,228,0
137990,35,-16,230,0
138000,35,-17,230,0
138011,32,-16,227,0
138022,31,-18,230,0
138033,29,-16,228,0
138044,29,-13,227,0
138055,28,-16,229,0
138066,28,-17,229,0
138077,28,-14,230,0
138088,28,-14,229,0
138099,27,-14,229,0
138110,26,-15,232,0
138121,24,-22,230,0
138132,20,-18,228,0
138143,19,-19,228,0
138154,18,-21,229,0
138165,20,-19,228,0
138177,21,-17,229,0
138187,21,-17,229,0
138198,22,-20,229,0
138209,23,-21,229,0
138220,24,-18,228,0
138231,23,-15,225,0
138242,23,-14,227,0
138253,21,-15,229,0
138264,19,-16,229,0
138275,18,-16,229,0
138286,15,-15,228,0
138297,12,-17,228,0
138308,11,-16,229,0
138319,12,-15,230,0
138330,12,-16,231,0
138341,13,-12,231,0
138352,14,-9,233,0
138363,14,-11,231,0
138374,14,-8,226,0
138385,15,-4,227,0
138396,15,-3,226,0
138407,14,-2,229,0
138418,13,1,231,0
138429,13,3,232,0
138440,13,4,231,0
138452,9,6,230,0
138462,9,6,229,0
138474,11,6,228,0
138484,11,4,226,0
138495,10,3,228,0
138506,9,1,231,0
138517,10,1,234,0
138528,11,0,234,0
138539,8,0,233,0
138551,6,0,232,0
138561,6,0,232,0
138572,6,1,232,0
138583,6,1,235,0
138594,8,3,236,0
138605,7,5,235,0
138616,6,0,229,0
138627,6,0,228,0
138638,6,-1,226,0
138649,5,0,227,0
138660,3,0,228,0
138671,2,0,230,0
138682,3,-2,231,0
138693,3,-3,232,0
138705,6,-1,231,0
138716,5,0,231,0
138727,2,0,231,0
138738,1,1,232,0
138749,1,1,231,0
138760,1,0,232,0
138771,1,-1,231,0
138782,1,-4,229,0
138793,1,-3,229,0
138804,2,-1,227,0
138815,0,0,229,0
138827,0,0,230,0
138837,-1,0,229,0
138848,-4,1,230,0
138859,-9,1,227,0
138870,-14,1,228,0
138881,-17,2,228,0
138892,-17,3,230,0
138903,-15,6,229,0
138914,-13,6,231,0
138925,-12,7,231,0
138936,-9,2,229,0
138947,-7,4,228,0
138958,-6,4,227,0
138969,-9,5,227,0
138980,-10,4,225,0
138991,-14,5,226,0
139003,-13,5,226,1
139013,-8,11,230,0
139024,13,20,226,0
139035,18,11,263,0
139046,17,-42,276,0
139057,20,-21,250,0
139068,-16,-18,235,0
139079,-37,-17,237,0
139091,-21,-3,255,0
139102,-13,-19,255,0
139112,-19,-11,256,0
139123,-28,-8,257,0
139134,-22,-2,258,0
139145,-6,11,258,0
139156,13,22,257,0
139167,39,30,258,0
139178,55,31,257,0
139190,63,25,253,0
139200,62,17,249,0
139211,54,7,243,0
139222,47,1,236,0
139233,39,-10,227,0
139244,39,-21,220,0
139255,47,-15,216,0
139266,57,-13,195,0
139277,62,-12,189,0
139288,65,-6,184,0
139299,70,-3,185,0
139310,75,0,189,0
139321,83,0,195,0
139332,91,5,205,0
139343,95,4,214,0
139354,93,3,227,0
139365,80,2,236,0
139377,67,4,252,0
139387,54,6,262,0
139398,41,4,265,0
139409,33,1,267,0
139420,25,-6,265,0
139431,22,-8,258,0
139443,19,-6,253,0
139453,16,-4,246,0
139464,18,-5,243,0
139475,24,-1,237,0
139486,26,0,222,0
139497,30,3,217,0
139508,32,6,216,0
139519,35,6,218,0
139530,35,5,215,0
139541,34,4,208,0
139552,34,2,202,0
139563,33,2,207,0
139574,30,4,209,0
139585,22,5,215,0
139596,21,7,223,0
139607,21,9,224,0
139618,20,13,224,0
139629,20,15,230,0
139640,19,13,231,0
139652,18,12,235,0
139662,23,12,239,0
139673,24,13,234,0
139684,23,14,239,0
139695,25,17,238,0
139706,19,18,234,0
139717,17,15,236,0
139728,10,18,238,0
139739,5,16,236,0
139751,0,13,232,0
139761,4,11,230,0
139772,-3,22,231,0
139783,1,12,223,0
139794,5,13,220,0
139805,7,11,221,0
139816,6,10,221,0
139827,8,14,222,0
139838,10,16,218,0
139849,8,14,217,0
139860,9,11,219,0
139871,9,16,222,0
139882,7,18,222,0
139893,4,20,224,0
139904,2,22,222,0
139916,6,11,214,0
139927,17,7,212,0
139938,43,13,225,1
139948,71,41,254,0
139959,89,64,289,0
139970,88,75,303,0
139981,97,57,309,0
139992,102,35,302,0
140003,89,22,267,0
140014,69,25,238,0
140025,47,23,206,0
140036,30,7,179,0
140047,34,3,163,0
140058,44,6,157,0
140069,43,2,163,0
140080,54,11,181,0
140092,55,17,199,0
140102,60,27,216,0
140113,70,41,234,0
140124,78,46,247,0
140135,83,44,249,0
140146,85,39,246,0
140157,87,31,243,0
140168,85,24,231,0
140179,84,20,217,0
140191,81,25,215,0
140202,81,30,215,0
140212,75,33,218,0
140223,65,32,219,0
140234,61,28,221,0
140245,53,35,227,0
140256,51,37,233,0
140267,48,38,235,0
140278,44,40,236,0
140290,42,38,238,0
140300,43,36,239,0
140311,46,40,231,0
140322,47,44,223,0
140333,49,44,222,0
140344,51,44,219,0
140355,54,43,221,0
140367,56,37,221,0
140377,58,35,226,0
140388,63,32,228,0
140399,66,32,230,0
140410,72,27,227,0
140421,70,24,225,0
140432,70,22,224,0
140443,67,26,225,0
140454,63,27,226,0
140465,61,28,226,0
140477,57,30,225,0
140487,50,34,224,0
140498,44,36,224,0
140509,41,38,222,0
140520,39,38,224,0
140531,42,39,224,0
140542,41,42,223,0
140553,41,41,224,0
140564,40,43,223,0
140575,39,47,224,0
140586,37,45,224,0
140597,41,44,224,0
140608,41,46,226,0
140619,39,47,229,0
140630,39,47,228,0
140641,38,47,230,0
140652,37,48,231,0
140663,36,50,229,0
140675,34,53,226,0
140686,34,53,225,0
140697,36,54,226,0
140708,35,58,225,0
140720,32,57,221,1
140730,27,63,217,0
140741,21,67,213,0
140752,19,74,216,0
140763,16,81,220,0
140774,20,84,222,0
140785,22,85,220,0
140796,19,85,221,0
140807,21,79,214,0
140818,37,66,208,0
140829,47,50,219,0
140840,52,49,218,0
140852,48,39,212,0
140862,46,16,210,0
140873,51,19,216,0
140884,59,36,234,0
140895,72,70,266,0
140906,82,64,267,0
140917,96,64,270,0
140928,117,63,281,0
140939,130,59,284,0
140951,136,46,284,0
140961,140,27,276,0
140972,127,7,264,0
140983,102,-14,248,0
140994,80,-34,232,0
141005,70,-44,219,0
141016,63,-41,211,0
141027,54,-34,211,0
141038,46,-30,218,0
141049,37,-22,233,0
141060,43,-14,248,0
141071,51,-11,244,0
141082,57,-15,236,0
141093,64,-20,230,0
141104,73,-28,224,0
141115,81,-31,215,0
141127,80,-32,207,0
141137,80,-33,202,0
141148,72,-34,196,0
141159,65,-34,193,0
141170,56,-31,193,0
141181,48,-21,196,0
141192,45,-13,202,0
141203,39,-12,211,0
141214,33,-7,224,0
141225,30,-6,222,0
141236,27,-8,218,0
141247,24,-6,220,0
141258,21,-3,221,0
141269,22,-1,221,0
141280,17,-2,220,0
141292,14,0,225,0
141302,9,2,232,0
141313,4,1,230,0
141324,0,0,227,0
141335,-8,1,225,0
141346,-6,17,228,0
141357,-12,17,217,0
141368,-21,14,213,0
141379,-13,10,210,0
141391,-12,7,205,0
141402,-13,7,201,0
141412,-17,6,204,0
141423,-16,5,209,0
141434,-16,8,209,0
141445,-19,10,216,0
141456,-14,6,225,0
141467,-13,13,226,0
141478,-13,12,228,0
141490,-4,8,236,0
141500,-1,5,239,0
141511,1,-2,244,0
141522,2,-10,251,0
141533,3,-7,258,0
141544,-6,-2,278,0
141555,-7,0,285,0
141566,-12,1,279,0
141577,-20,-5,271,0
141588,-21,-17,262,0
141599,-12,-17,256,0
141610,57,0,333,0
141622,38,66,334,1
141632,19,9,291,0
141643,43,-15,271,0
141654,26,-14,230,0
141665,53,-4,284,0
141677,53,-4,314,0
141687,49,-5,301,0
141698,49,-28,268,0
141709,38,-52,207,0
141720,45,-59,179,0
141732,50,-55,163,1
141742,48,-49,151,0
141754,45,-32,146,0
141764,44,-23,154,0
141775,45,-13,167,0
141786,58,-7,190,0
141797,70,2,209,0
141808,80,1,216,0
141819,83,3,217,0
141830,81,0,216,0
141841,76,-3,213,0
141853,71,-5,211,0
141864,48,-9,202,0
141875,40,-15,202,0
141886,39,-11,211,0
141897,38,-5,221,0
141908,35,-6,222,0
141919,36,-6,222,0
141930,37,-6,222,0
141941,37,-4,216,0
141952,36,-9,211,0
141963,31,-10,206,0
141974,31,-9,206,0
141985,28,-7,205,0
141996,24,-6,208,0
142007,19,-5,211,0
142018,16,-7,214,0
142029,7,0,225,0
142040,5,1,227,0
142052,4,4,233,0
142062,2,5,236,0
142073,2,5,235,0
142084,1,3,236,0
142095,4,1,232,0
142106,9,1,227,0
142117,9,1,223,0
142128,11,1,219,0
142139,11,1,216,0
142151,10,-1,215,0
142161,13,-4,218,0
142172,10,-6,219,0
142183,10,-8,223,0
142194,9,-3,237,0
142205,6,3,242,0
142216,1,7,243,0
142227,-1,17,240,0
142238,-6,26,238,0
142249,-12,34,236,0
142260,-19,37,235,0
142271,-28,34,231,0
142282,-39,36,226,0
142294,-40,30,218,1
142304,-20,25,226,0
142315,-40,-8,272,0
142327,-40,-12,284,0
142337,-53,0,281,0
142348,-54,2,288,0
142359,-18,25,319,0
142370,-3,2,341,0
142381,16,-1,342,0
142392,48,9,325,0
142403,87,17,300,0
142414,126,15,274,0
142425,161,8,243,0
142436,179,9,227,0
142447,180,-1,202,0
142458,172,-9,183,0
142469,161,-17,168,0
142480,142,-19,168,0
142492,117,-20,178,0
142502,92,-21,186,0
142513,69,-26,185,0
142524,28,-27,202,0
142535,12,-22,219,0
142546,1,-16,237,0
142557,1,-8,243,0
142568,1,-6,249,0
142579,1,-1,252,0
142591,5,-4,245,0
142602,8,-4,239,0
142612,20,-1,236,0
142623,29,-1,228,0
142634,34,-1,221,0
142645,35,-6,212,0
142656,38,-4,204,0
142667,47,-10,202,0
142680,57,-12,206,0
142691,56,-5,209,0
142702,51,-3,213,0
142712,45,-4,212,0
142723,40,-9,206,0
142734,36,-11,203,0
142745,29,-10,200,0
142756,23,-9,202,0
142767,17,-11,198,0
142778,12,-9,198,0
142790,5,-7,199,0
142800,1,-10,193,0
142811,-1,-12,189,0
142822,-5,-11,189,0
142833,-11,-9,197,0
142844,-14,-6,204,0
142855,-18,-3,213,0
142866,-20,-4,223,0
142877,-22,-2,229,0
142888,-25,3,234,0
142899,-29,8,244,0
142910,-35,14,254,0
142921,-42,12,263,0
142932,-48,-3,270,0
142943,-51,-16,274,0
142954,-52,-13,273,0
142966,-49,-7,271,1
142977,-25,-9,290,0
142988,68,25,421,0
142999,73,14,429,0
143010,83,-3,395,0
143021,93,6,379,0
143032,102,3,373,0
143043,80,-18,314,0
143054,61,-24,246,0
143065,34,-34,192,0
143077,27,-50,150,0
143087,23,-62,131,0
143098,33,-49,133,0
143109,38,-37,139,0
143120,36,-23,144,0
143131,38,-21,154,0
143142,48,-26,169,0
143153,48,-20,191,0
143164,56,-13,202,0
143175,63,-9,218,0
143186,77,-13,227,0
143197,80,-13,231,0
143208,81,-13,226,0
143219,79,-14,216,0
143230,69,-9,202,0
143242,55,-14,193,0
143252,38,-7,194,0
143263,33,-3,203,0
143274,28,2,210,0
143285,23,8,212,0
143296,20,9,213,0
143307,19,3,220,0
143318,20,-1,220,0
143329,13,-2,219,0
143340,11,-1,215,0
143352,11,0,210,0
143362,9,-1,211,0
143373,8,-1,213,0
143384,7,-1,212,0
143395,2,0,215,0
143406,0,-2,216,0
143417,-2,-2,221,0
143428,-9,0,226,0
143439,-10,-1,229,0
143450,-6,0,232,0
143461,0,-1,230,0
143472,12,-9,225,0
143483,16,-8,223,0
143494,18,-10,222,0
143505,19,-12,218,0
143516,19,-14,216,0
143527,17,-16,212,0
143538,14,-17,213,0
143549,13,-15,216,0
143560,8,-11,219,0
143571,4,-7,222,0
143582,0,-8,222,0
143593,-7,-6,223,0
143604,-18,-6,226,0
143615,-28,-2,229,0
143627,-39,1,237,0
143637,-66,19,253,0
143648,-76,26,258,0
143660,-65,32,252,1
143672,-37,37,283,0
143682,-63,-44,323,0
143693,-55,-27,313,0
143704,-62,-15,285,0
143715,-61,-12,300,0
143727,-57,-15,324,0
143737,-30,-5,330,0
143748,6,5,317,0
143759,60,13,309,0
143770,97,14,280,0
143782,126,9,241,1
143792,155,1,187,0
143803,152,3,173,0
143814,142,1,163,0
143825,130,7,162,0
143836,111,11,181,0
143847,80,3,198,0
143858,54,6,214,0
143869,25,5,227,0
143880,0,7,243,0
143892,-14,16,255,0
143902,-21,20,257,0
143913,-7,18,261,0
143924,4,11,267,0
143935,19,14,260,0
143946,27,16,250,0
143957,31,11,216,0
143968,29,9,210,0
143979,33,0,197,0
143991,37,-5,194,0
144002,39,-7,194,0
144012,37,-8,196,0
144023,35,-9,200,0
144034,35,-9,193,0
144045,30,-11,192,0
144056,29,-8,199,0
144067,26,-7,202,0
144078,17,-10,202,0
144090,10,-11,204,0
144100,2,-14,204,0
144111,-5,-10,201,0
144122,-14,-13,191,0
144133,-19,-10,192,0
144144,-23,-10,202,0
144155,-25,-12,207,0
144166,-23,-7,203,0
144177,-26,0,203,0
144188,-31,4,211,0
144199,-37,10,222,0
144210,-41,11,232,0
144221,-46,14,249,0
144232,-49,15,262,0
144243,-50,6,258,0
144254,-47,3,257,0
144265,-37,-3,255,0
144277,-24,-4,261,0
144287,-6,-15,265,0
144298,3,-9,264,0
144309,6,-1,257,0
144320,26,-5,268,0
144332,75,28,359,1
144342,57,50,373,0
144353,61,35,342,0
144364,80,0,320,0
144375,70,-9,269,0
144386,77,10,299,0
144397,71,11,333,0
144408,44,13,296,0
144419,35,-24,234,0
144430,22,-48,203,0
144442,24,-65,151,0
144452,24,-67,140,0
144463,31,-60,149,0
144474,36,-45,165,0
144485,37,-26,176,0
144496,41,-9,188,0
144507,52,3,193,0
144518,58,15,202,0
144529,59,26,218,0
144540,63,24,229,0
144552,68,14,223,0
144562,66,5,217,0
144573,63,2,217,0
144584,60,0,217,0
144595,50,-3,213,0
144606,35,-8,211,0
144617,26,-1,212,0
144628,27,0,217,0
144639,29,-1,216,0
144650,33,-6,217,0
144661,37,-2,219,0
144672,34,-3,222,0
144683,27,-2,222,0
144696,20,0,222,0
144706,15,3,221,0
144717,7,4,216,0
144728,1,4,217,0
144739,0,7,215,0
144750,-1,6,213,0
144761,1,9,224,0
144772,-3,10,223,0
144783,0,10,226,0
144794,2,11,226,0
144805,5,13,227,0
144816,6,15,226,0
144827,9,11,225,0
144838,12,10,222,0
144850,13,5,220,0
144861,12,1,217,0
144872,15,-1,217,0
144883,18,-5,218,0
144894,22,-7,219,0
144905,24,-9,223,0
144917,22,-11,231,0
144927,19,-3,234,0
144938,17,5,236,0
144949,12,14,238,0
144961,5,21,240,1
144971,-6,24,242,0
144982,-9,23,238,0
144993,13,40,230,0
145004,11,14,273,0
145015,6,-33,283,0
145027,-16,-11,273,0
145037,-39,-8,270,0
145048,-40,8,289,0
145059,-32,4,306,0
145070,-15,0,313,0
145081,1,15,298,0
145092,31,29,288,0
145103,72,42,268,0
145114,115,38,248,0
145125,143,27,221,0
145136,162,15,194,0
145148,170,1,175,0
145158,159,-17,156,0
145169,146,-27,157,0
145180,131,-26,163,0
145192,110,-20,167,0
145202,79,-18,183,0
145213,53,-19,200,0
145224,27,-10,226,0
145235,3,6,279,0
145247,6,10,278,0
145257,9,11,263,0
145268,15,8,250,0
145279,17,10,248,0
145291,21,14,245,0
145302,28,17,237,0
145312,32,14,223,0
145323,36,10,216,0
145334,38,9,218,0
145345,37,7,219,0
145356,36,5,219,0
145367,35,10,217,0
145378,35,13,214,0
145390,34,13,210,0
145400,33,6,218,0
145412,30,4,220,0
145423,30,5,219,0
145434,30,7,215,0
145445,31,4,215,0
145456,28,7,210,0
145467,26,2,210,0
145478,24,1,208,0
145490,26,1,214,0
145502,26,4,219,0
145512,28,0,222,0
145523,36,0,219,0
145534,32,11,209,0
145545,27,5,217,0
145556,24,4,218,0
145567,10,6,220,0
145578,-4,2,223,0
145590,-14,0,222,0
145602,-22,1,227,0
145612,-28,1,232,0
145624,-29,-4,239,1
145634,-26,-8,245,0
145645,-22,-12,248,0
145656,-22,-12,243,0
145667,-27,-4,241,0
145678,-26,-3,240,0
145690,40,2,315,0
145700,37,45,349,0
145711,42,40,360,0
145722,63,30,356,0
145733,75,20,350,0
145744,73,14,367,0
145755,61,6,328,0
145766,39,-17,258,0
145777,14,-39,204,0
145788,-4,-60,178,0
145799,1,-69,163,0
145810,6,-74,146,0
145821,11,-66,147,0
145832,18,-52,157,0
145843,24,-29,169,0
145854,39,2,191,0
145865,42,11,199,0
145877,54,16,213,0
145887,63,18,227,0
145898,67,16,230,0
145909,69,3,220,0
145920,73,-2,215,0
145931,73,-8,212,0
145942,68,-10,209,0
145953,61,-11,206,0
145964,45,-9,209,0
145975,33,-6,210,0
145986,30,-2,213,0
145997,28,1,214,0
146008,30,1,215,0
146019,27,2,224,0
146030,23,3,223,0
146042,17,3,223,0
146052,12,3,220,0
146063,13,2,218,0
146074,12,2,214,0
146085,10,0,208,0
146096,10,-1,207,0
146107,11,-2,209,0
146118,11,-1,216,0
146129,12,0,221,0
146140,10,3,223,0
146152,4,5,230,0
146162,0,11,238,0
146174,-6,15,236,0
146184,-4,11,233,0
146195,-1,13,227,0
146206,2,14,224,0
146217,7,11,223,0
146228,14,7,220,0
146239,19,3,220,0
146250,20,-4,219,0
146261,25,-12,224,0
146272,29,-14,227,0
146283,25,-10,228,0
146294,19,-4,235,0
146305,15,3,237,0
146316,7,14,239,0
146327,-1,25,240,0
146339,-19,25,236,0
146350,-32,23,229,0
146361,-45,18,223,0
146373,-41,15,219,1
146383,1,29,211,0
146394,-9,8,283,0
146405,-6,-26,301,0
146417,-14,-4,298,0
146427,-27,-12,296,0
146438,-12,12,301,0
146449,1,45,316,0
146460,13,13,321,0
146471,26,-8,324,0
146482,45,-17,309,0
146493,93,-4,259,0
146505,118,-9,232,1
146515,130,-12,207,0
146527,133,-22,182,0
146537,134,-20,166,0
146548,129,-15,165,0
146559,114,-6,169,0
146570,92,-5,177,0
146581,72,-6,181,0
146592,55,-10,186,0
146603,39,-11,198,0
146614,20,-5,220,0
146625,4,5,244,0
146636,-9,6,261,0
146647,-8,3,281,0
146658,0,8,266,0
146669,0,6,254,0
146680,6,2,238,0
146692,15,5,222,0
146702,16,1,212,0
146713,17,1,213,0
146724,19,-2,216,0
146735,26,-3,217,0
146746,34,-5,220,0
146757,45,-9,219,0
146768,52,-11,216,0
146779,53,-11,215,0
146791,50,-12,213,0
146802,45,-12,211,0
146812,34,-11,212,0
146823,18,-13,209,0
146834,10,-14,208,0
146845,3,-14,206,0
146856,-1,-11,202,0
146867,-3,-11,202,0
146878,-3,-10,200,0
146890,-4,-7,200,0
146900,-1,-3,197,0
146911,0,0,195,0
146922,3,4,195,0
146933,7,6,200,0
146944,9,5,209,0
146955,8,4,219,0
146966,6,3,227,0
146977,1,0,231,0
146988,-1,0,245,0
146999,-3,0,250,0
147010,-4,1,250,0
147021,-9,10,247,0
147032,-22,16,248,0
147043,-36,17,256,0
147054,-50,20,264,0
147066,-62,16,270,1
147077,-68,9,272,0
147087,-62,-4,269,0
147098,14,-42,339,0
147109,33,-2,376,0
147120,44,16,356,0
147131,70,-11,347,0
147142,93,-30,326,0
147153,142,0,361,0
147164,108,12,272,0
147175,64,59,181,0
147187,56,-147,240,1
147197,65,-20,147,0
147208,46,-26,133,0
147219,40,-43,109,0
147230,48,-32,124,0
147242,46,-30,135,0
147252,36,-34,151,0
147263,35,-31,176,0
147274,49,-27,200,0
147285,62,-29,225,0
147296,69,-29,240,0
147307,81,-31,246,0
147318,96,-27,235,0
147329,81,-31,221,0
147340,65,-30,208,0
147352,48,-29,200,0
147362,40,-24,195,0
147373,37,-21,199,0
147384,35,-16,202,0
147395,31,-8,206,0
147406,32,-5,212,0
147417,32,-6,216,0
147428,30,-7,220,0
147439,19,0,218,0
147450,17,-6,218,0
147461,14,-2,219,0
147472,8,-2,221,0
147483,-1,-3,222,0
147494,-3,-2,224,0
147505,-10,-2,229,0
147516,-14,-6,230,0
147527,-22,-6,227,0
147538,-22,-13,225,0
147549,-20,-12,225,0
147560,-17,-15,219,0
147571,-13,-12,220,0
147582,-10,-9,223,0
147593,-8,-9,223,0
147604,-6,-11,224,0
147615,-5,-15,218,0
147627,-1,-17,212,0
147637,3,-19,213,0
147648,9,-26,207,0
147659,13,-23,212,0
147670,16,-22,216,0
147681,16,-17,216,0
147693,15,-13,215,0
147703,10,-8,216,0
147715,2,-5,214,1
147725,-3,-6,216,0
147736,-11,-7,217,0
147747,1,-4,212,0
147758,11,-4,238,0
147769,-8,-43,266,0
147780,-12,-29,260,0
147792,-34,-19,264,0
147802,-54,-21,287,0
147813,-33,-1,302,0
147824,-18,-6,309,0
147835,1,-12,315,0
147846,25,-12,315,0
147857,50,0,319,0
147868,70,15,317,0
147879,87,23,305,0
147891,102,24,285,0
147902,118,20,258,0
147912,123,13,223,0
147923,122,2,188,0
147934,122,-10,158,0
147945,115,-23,135,0
147956,105,-31,130,0
147967,95,-38,132,0
147978,64,-33,165,0
147990,58,-20,186,0
148000,48,-7,206,0
148011,30,-11,219,0
148022,27,-1,244,0
148033,25,1,261,0
148044,20,1,273,0
148055,23,-1,277,0
148066,17,-1,266,0
148077,13,-2,255,0
148088,12,-1,245,0
148099,8,1,235,0
148110,7,1,222,0
148121,9,1,214,0
148132,10,3,203,0
148143,11,0,212,0
148154,8,-1,222,0
148165,5,-1,231,0
148177,1,0,232,0
148187,-4,-2,228,0
148198,-10,-1,228,0
148209,-15,-3,224,0
148220,-18,-4,225,0
148231,-22,-5,220,0
148242,-27,-8,220,0
148253,-31,-9,218,0
148264,-31,-15,213,0
148275,-30,-15,208,0
148286,-26,-17,207,0
148297,-20,-17,207,0
148308,-10,-9,209,0
148319,-8,-6,209,0
148330,-8,-2,208,0
148342,-8,0,212,0
148352,-11,1,215,0
148363,-16,1,220,0
148374,-16,1,222,0
148385,-23,0,216,0
148396,-24,-1,217,0
148408,-23,-12,219,0
148418,-18,-17,224,0
148429,-11,-20,234,0
148440,-4,-23,249,0
148452,1,-25,262,0
148463,4,-28,274,1
148473,-12,-19,279,0
148484,-9,-25,283,0
148495,31,-5,353,0
148506,4,66,369,0
148517,22,6,326,0
148528,53,-26,338,0
148539,49,-9,324,0
148550,69,-15,321,0
148561,72,-3,369,0
148573,56,3,334,1
148583,49,8,282,0
148594,46,-7,244,0
148605,25,-37,197,0
148616,4,-47,142,0
148627,-5,-43,105,0
148638,1,-51,113,0
148649,7,-47,121,0
148660,18,-35,142,0
148671,30,-19,175,0
148682,42,3,199,0
148693,58,23,226,0
148704,67,39,245,0
148715,68,45,256,0
148727,68,40,260,0
148737,70,38,259,0
148748,66,23,240,0
148759,61,15,226,0
148770,59,10,215,0
148781,56,7,209,0
148792,60,-6,200,0
148804,64,-2,205,0
148815,65,-4,205,0
148827,59,-9,212,0
148837,52,-3,222,0
148848,42,-2,232,0
148859,36,2,235,0
148870,30,2,235,0
148881,23,-1,229,0
148892,22,-2,231,0
148903,19,-7,224,0
148914,12,-7,218,0
148925,12,-6,214,0
148936,12,-10,215,0
148947,5,-1,214,0
148958,4,1,217,0
148969,5,7,221,0
148980,7,9,231,0
148992,7,12,233,0
149002,5,10,233,0
149013,7,10,237,0
149024,10,18,237,0
149035,9,18,232,0
149046,9,20,229,0
149057,8,18,226,0
149068,7,18,223,0
149079,6,15,227,0
149091,7,16,229,0
149102,9,18,225,0
149112,19,14,226,0
149123,24,6,229,0
149134,28,1,231,0
149145,28,-8,227,0
149156,29,-11,227,0
149167,27,-2,226,0
149178,24,4,226,0
149190,25,5,226,0
149200,22,4,227,0
149211,15,2,223,0
149223,6,2,216,1
149233,10,7,206,0
149244,23,26,223,0
149255,26,12,255,0
149266,30,-13,275,0
149277,-2,-8,307,0
149288,-13,-6,316,0
149299,-24,-2,311,0
149310,-23,16,303,0
149321,-17,41,302,0
149332,-1,57,301,0
149343,18,62,291,0
149354,44,62,273,0
149365,61,57,250,0
149377,77,42,221,0
149387,95,23,190,0
149398,107,10,160,0
149409,109,-1,124,0
149420,106,-16,108,0
149431,92,-18,117,0
149442,55,-8,147,0
149453,44,-1,181,0
149464,41,0,210,0
149475,41,-1,250,0
149486,37,8,289,0
149497,35,15,304,0
149508,36,13,301,0
149519,37,12,302,0
149530,39,11,295,0
149542,41,7,283,0
149552,43,13,277,0
149563,39,13,264,0
149574,34,13,248,0
149585,29,14,229,0
149596,26,13,218,0
149607,20,15,211,0
149618,20,19,213,0
149629,22,24,219,0
149640,26,30,226,0
149652,30,36,225,0
149662,36,34,227,0
149673,43,34,226,0
149684,51,34,224,0
149695,61,32,226,0
149706,64,28,225,0
149717,68,23,223,0
149728,67,15,225,0
149739,64,5,222,0
149750,56,-4,227,0
149761,51,-14,234,0
149772,34,-16,250,0
149783,28,18,242,0
149794,24,51,244,0
149805,45,48,240,0
149816,50,43,211,0
149827,30,44,201,0
149838,38,27,206,0
149849,42,25,206,0
149860,37,19,206,0
149871,34,12,204,0
149882,31,6,206,0
149893,29,5,213,0
149904,28,5,217,0
149916,24,8,220,0
149927,25,7,223,0
149937,21,12,234,0
149948,17,18,242,0
149959,9,18,249,0
149970,3,14,254,0
149981,-5,16,248,0
149992,-13,15,247,0
150004,-4,5,253,1
150014,13,15,282,0
150025,8,47,283,0
150036,18,48,273,0
150047,32,26,293,0
150058,29,52,293,0
150069,26,50,281,0
150080,22,33,258,0
150092,19,23,231,0
150102,27,3,206,0
150113,30,0,192,0
150124,38,-9,184,0
150135,46,-19,173,0
150146,52,-17,174,0
150157,53,-13,182,0
150168,56,-11,190,0
150179,61,-3,205,0
150191,62,0,214,0
150202,68,-2,227,0
150212,73,2,234,0
150223,76,2,240,0
150234,82,2,239,0
150245,80,3,232,0
150256,74,-2,216,0
150267,67,6,212,0
150278,65,6,218,0
150290,56,7,224,0
150300,46,7,229,0
150311,36,4,228,0
150322,27,2,224,0
150333,19,0,223,0
150344,13,1,220,0
150355,13,4,217,0
150366,12,8,217,0
150377,14,10,219,0
150388,19,9,221,0
150399,22,14,221,0
150410,29,14,223,0
150421,32,13,225,0
150432,36,20,224,0
150443,35,25,229,0
150455,31,28,232,0
150465,28,29,229,0
150477,22,30,227,0
150487,17,27,228,0
150498,10,26,232,0
150509,8,26,233,0
150520,9,27,233,0
150531,10,26,232,0
150542,12,28,231,0
150553,17,27,232,0
150564,20,21,234,0
150575,22,21,229,0
150586,23,17,227,0
150597,24,16,228,0
150608,22,21,229,0
150619,17,29,231,0
150630,8,35,232,0
150642,3,41,235,0
150653,0,41,237,0
150664,-3,40,238,0
150675,-8,40,233,0
150686,-16,41,228,0
150697,-20,38,226,0
150708,-14,35,221,0
150720,7,44,224,1
150731,15,35,258,0
150742,13,28,285,0
150752,1,21,283,0
150763,1,37,296,0
150774,15,50,302,0
150785,31,48,301,0
150796,38,30,307,0
150807,49,18,295,0
150818,62,5,282,0
150829,81,-7,262,0
150840,98,-15,241,0
150852,110,-19,220,0
150862,116,-25,199,0
150873,114,-29,181,0
150884,111,-34,167,0
150895,110,-31,164,0
150906,105,-21,174,0
150917,87,-10,190,0
150928,78,-7,198,0
150939,75,-9,210,0
150950,72,-6,227,0
150961,64,-4,243,0
150972,60,2,261,0
150983,53,9,275,0
150994,47,15,276,0
151005,43,17,272,0
151016,42,12,263,0
151027,37,7,252,0
151038,30,4,238,0
151049,25,3,234,0
151060,23,4,224,0
151071,32,3,213,0
151082,37,5,214,0
151093,42,10,226,0
151104,42,11,227,0
151115,43,5,222,0
151127,44,3,213,0
151137,38,2,209,0
151148,31,3,212,0
151159,25,4,215,0
151170,17,8,213,0
151181,8,4,205,0
151192,1,9,202,0
151203,-1,19,206,0
151214,-10,12,197,0
151225,-15,19,198,0
151236,-13,16,196,0
151247,-9,15,194,0
151258,-6,13,193,0
151269,-2,15,192,0
151280,0,17,195,0
151292,-2,21,204,0
151302,-6,17,216,0
151313,-9,12,225,0
151324,-14,10,228,0
151335,-18,7,234,0
151346,-21,11,238,0
151357,-18,7,249,0
151368,-18,1,263,0
151379,-16,-7,274,0
151391,-12,6,278,1
151402,-15,16,271,0
151413,-15,12,274,0
151424,30,-13,318,0
151435,58,37,382,0
151446,33,59,362,0
151457,37,-15,342,0
151468,24,-15,292,0
151479,8,-10,259,0
151491,33,-9,307,0
151502,31,-9,309,0
151512,25,-13,273,0
151523,27,-29,239,0
151534,30,-33,212,0
151545,42,-51,188,0
151556,58,-50,157,0
151567,56,-38,151,0
151578,54,-32,153,0
151590,57,-31,161,0
151600,60,-21,172,0
151611,70,-14,187,0
151622,80,-8,207,0
151633,84,-6,218,0
151644,87,-8,221,0
151655,91,-11,219,0
151666,91,-14,218,0
151677,89,-19,216,0
151688,83,-21,211,0
151699,69,-19,207,0
151710,58,-16,205,0
151721,42,-10,216,0
151732,40,-3,228,0
151743,38,-1,230,0
151754,39,-5,230,0
151765,37,-6,227,0
151777,31,-8,221,0
151787,27,-8,218,0
151798,20,-8,214,0
151809,13,-6,211,0
151820,9,-3,211,0
151831,5,-2,214,0
151842,-1,-1,217,0
151853,-9,0,224,0
151864,-12,0,229,0
151875,-18,2,233,0
151886,-28,7,237,0
151897,-31,6,234,0
151908,-32,7,230,0
151919,-31,7,228,0
151930,-29,6,225,0
151942,-25,3,218,0
151952,-21,0,213,0
151963,-15,0,213,0
151974,-13,-4,217,0
151985,-10,-13,216,0
151996,-4,-20,214,0
152007,-2,-20,211,0
152018,0,-16,211,0
152029,1,-12,211,0
152040,2,-3,210,0
152052,4,7,211,0
152062,2,11,211,0
152074,-7,10,213,1
152084,-17,7,214,0
152095,-23,4,216,0
152106,-12,2,211,0
152117,11,1,222,0
152128,-19,-49,265,0
152139,-6,-34,257,0
152150,-22,-6,269,0
152161,-55,-1,302,0
152172,-46,7,306,0
152183,-32,27,305,0
152194,-27,13,317,0
152205,-16,-25,329,0
152216,14,-14,323,0
152227,42,0,314,0
152238,68,11,298,0
152249,83,15,266,0
152260,97,11,234,0
152271,103,1,197,0
152282,108,-8,159,0
152293,110,-16,136,0
152304,104,-29,125,0
152315,100,-33,131,0
152327,91,-33,154,0
152337,81,-29,179,0
152348,73,-31,202,0
152359,72,-25,224,0
152370,65,-11,246,0
152381,37,6,281,0
152392,17,6,294,0
152403,7,4,300,0
152414,-3,11,292,0
152425,-9,10,276,0
152436,-11,6,265,0
152447,-12,4,244,0
152460,-9,1,221,0
152470,-1,1,205,0
152481,4,1,197,0
152492,5,1,196,0
152503,12,5,196,0
152514,22,5,202,0
152525,30,2,199,0
152536,29,1,203,0
152547,27,0,206,0
152558,24,-4,209,0
152570,22,-2,213,0
152580,19,-6,213,0
152592,13,-10,211,0
152602,7,-13,206,0
152613,2,-15,204,0
152624,-1,-20,201,0
152635,-1,-22,199,0
152646,1,-23,195,0
152657,5,-17,193,0
152668,2,-10,196,0
152679,-1,-7,205,0
152691,-6,-6,205,0
152702,-10,-5,206,0
152712,-14,-3,214,0
152723,-17,0,225,0
152734,-20,2,238,0
152745,-19,7,249,0
152756,-25,27,257,0
152767,-33,30,253,0
152778,-33,15,257,0
152790,-30,3,260,0
152800,-26,-6,265,0
152811,-20,-12,262,0
152822,-19,-15,257,0
152833,-22,-18,256,0
152844,-20,-23,256,0
152855,47,-35,352,0
152866,35,33,362,0
152877,40,-3,338,0
152888,58,-37,319,0
152899,62,-36,314,0
152911,71,-27,334,1
152922,68,1,325,0
152933,60,-10,307,0
152944,52,-22,264,0
152955,45,-21,228,0
152966,29,-31,194,0
152977,13,-35,160,0
152988,2,-47,143,0
152999,12,-43,136,0
153010,38,-28,155,0
153021,49,-7,165,0
153032,58,10,177,0
153043,64,21,198,0
153054,63,20,219,0
153065,66,19,234,0
153077,64,13,242,0
153087,62,3,239,0
153098,65,-5,231,0
153109,68,-12,219,0
153120,70,-17,216,0
153131,64,-18,203,0
153142,56,-20,196,0
153153,40,-16,202,0
153165,38,-8,209,0
153177,37,-2,218,0
153187,38,1,224,0
153198,36,8,228,0
153209,35,12,231,0
153220,34,12,231,0
153231,31,8,229,0
153242,24,7,222,0
153253,18,4,218,0
153264,12,5,214,0
153275,8,7,213,0
153286,5,8,211,0
153297,2,7,213,0
153308,3,7,221,0
153319,2,6,230,0
153330,3,6,234,0
153342,3,5,234,0
153352,2,5,235,0
153363,3,4,232,0
153374,2,2,228,0
153385,2,-1,230,0
153396,-2,0,228,0
153407,-1,0,229,0
153418,-2,-3,222,0
153429,-2,-7,218,0
153440,0,-7,216,0
153452,1,-8,217,0
153462,2,-5,220,0
153473,5,-3,224,0
153484,11,0,226,0
153495,12,1,226,0
153506,13,3,229,0
153517,11,6,232,0
153528,7,4,233,0
153540,3,0,234,0
153550,-1,-2,234,0
153561,-9,-8,233,0
153572,-14,-12,233,0
153584,-17,-7,235,1
153594,-15,-1,235,0
153605,11,3,219,0
153616,-3,-38,256,0
153627,16,-56,274,0
153638,4,0,259,0
153649,-30,-9,278,0
153660,-24,4,286,0
153671,-17,3,301,0
153682,-14,-3,309,0
153693,-9,2,312,0
153704,5,15,316,0
153715,33,23,310,0
153727,54,33,294,0
153737,68,33,262,0
153748,77,29,231,0
153759,82,23,195,0
153770,84,11,156,0
153781,79,0,130,0
153792,72,-17,126,0
153803,65,-22,138,0
153814,47,-13,201,0
153825,35,-12,222,0
153836,20,-8,242,0
153847,21,-1,261,0
153858,26,3,272,0
153869,25,-1,269,0
153880,29,-7,264,0
153892,30,-19,253,0
153902,31,-21,242,0
153913,36,-21,229,0
153924,42,-24,216,0
153935,44,-26,208,0
153946,42,-26,202,0
153957,37,-21,206,0
153968,37,-19,206,0
153979,43,-7,207,0
153991,41,-8,204,0
154002,34,-8,207,0
154012,27,-2,211,0
154023,18,-2,213,0
154034,11,-8,213,0
154045,5,-11,213,0
154056,1,-12,213,0
154067,0,-14,211,0
154078,0,-14,204,0
154089,-1,-13,195,0
154100,-2,-17,188,0
154111,-6,-18,185,0
154122,-7,-18,186,0
154133,-8,-16,193,0
154144,-10,-15,205,0
154155,-11,-19,210,0
154166,-11,-20,218,0
154177,-10,-18,227,0
154188,-12,-11,239,0
154199,-10,-7,249,0
154210,-26,26,257,0
154221,-48,15,259,0
154232,-53,-8,260,0
154243,-49,-19,258,0
154254,-41,-20,257,0
154265,-37,-14,253,0
154277,-32,-16,255,0
154288,18,-45,287,0
154298,77,-36,396,0
154309,97,-6,382,0
154321,100,-36,351,1
154331,105,-34,340,0
154342,98,-16,325,0
154353,67,-18,289,0
154364,38,-28,248,0
154375,35,-19,207,0
154386,24,29,126,0
154397,24,-143,202,0
154408,32,4,131,0
154419,46,-20,159,0
154430,57,-34,157,0
154442,58,-7,167,0
154452,67,-22,177,0
154463,65,-2,199,0
154474,74,-5,221,0
154485,91,-12,226,0
154496,100,-16,224,0
154507,107,-15,226,0
154518,111,-7,220,0
154530,101,-7,210,0
154540,84,-3,198,0
154552,67,1,192,0
154562,55,9,193,0
154573,49,19,205,0
154584,47,24,217,0
154595,43,27,225,0
154606,41,26,229,0
154617,37,23,233,0
154628,36,15,231,0
154639,33,6,227,0
154650,27,5,222,0
154661,28,6,219,0
154672,28,6,220,0
154683,28,4,224,0
154694,27,6,224,0
154705,25,8,230,0
154716,28,7,231,0
154727,26,12,232,0
154738,21,13,233,0
154749,14,13,231,0
154760,9,12,228,0
154771,2,12,230,0
154782,-1,8,228,0
154793,-5,4,226,0
154804,-9,5,224,0
154815,-10,6,222,0
154827,-9,8,225,0
154837,-9,6,223,0
154848,-10,6,219,0
154859,-11,2,217,0
154870,-11,1,214,0
154881,-13,2,213,0
154892,-12,2,219,0
154903,-11,1,227,0
154914,-15,0,235,0
154925,-19,-4,239,0
154936,-22,-10,236,0
154947,-27,-8,232,0
154958,-32,-5,234,0
154969,-41,-7,230,0
154980,-39,-5,230,0
154992,-20,0,225,0
155002,3,2,239,0
155013,-14,-68,269,0
155024,4,-67,261,0
155036,1,-25,239,1
155046,-2,-4,246,0
155057,1,-13,276,0
155068,11,-30,296,0
155079,20,-28,300,0
155091,34,-10,305,0
155102,59,6,310,0
155112,90,31,308,0
155123,114,45,295,0
155134,136,33,229,0
155145,143,16,190,0
155156,139,3,156,0
155168,125,-7,138,1
155178,105,-12,143,0
155189,83,-8,164,0
155200,59,-1,192,0
155211,35,1,218,0
155222,14,-1,232,0
155233,-6,2,246,0
155244,-14,4,264,0
155255,-14,6,270,0
155266,-5,6,283,0
155277,-2,4,284,0
155288,0,-2,267,0
155299,20,-12,239,0
155310,29,-15,227,0
155321,34,-15,211,0
155332,34,-13,201,0
155343,33,-10,202,0
155354,32,-7,202,0
155365,34,-11,200,0
155377,33,-10,201,0
155388,28,-9,207,0
155399,23,-10,206,0
155410,16,-10,206,0
155421,11,-9,207,0
155432,3,-9,213,0
155443,-7,-10,220,0
155454,-8,-14,217,0
155465,-9,-19,210,0
155477,-11,-20,198,0
155487,-7,-21,194,0
155498,-6,-12,188,0
155509,-11,-11,188,0
155520,-13,-11,200,0
155531,-15,-18,202,0
155542,-16,-12,211,0
155553,-19,-8,219,0
155564,-23,-6,222,0
155575,-24,-4,222,0
155586,-25,-1,223,0
155597,-26,-3,224,0
155608,-23,-19,238,0
155619,-21,-8,233,0
155630,-25,-2,235,0
155642,-27,-7,238,0
155652,-26,-10,242,0
155663,-29,-1,248,0
155674,-33,-4,250,0
155685,-32,-12,253,0
155696,-28,-19,250,0
155707,-25,-24,248,0
155718,-22,-23,253,0
155729,-17,-22,259,0
155740,15,-36,288,0
155752,60,-35,385,0
155762,66,19,351,0
155773,93,-41,322,0
155784,99,-49,335,0
155795,108,-28,369,0
155807,76,21,333,1
155817,28,53,247,0
155828,20,-70,273,0
155839,12,-33,180,0
155850,-2,1,173,0
155861,0,-46,137,0
155872,2,-43,132,0
155883,17,-36,143,0
155894,25,-39,149,0
155905,37,-27,165,0
155917,51,-14,184,0
155927,62,-2,205,0
155938,78,0,217,0
155949,82,-5,218,0
155960,81,-14,210,0
155971,78,-17,215,0
155982,80,-14,222,0
155993,83,-14,216,0
156004,87,-17,210,0
156015,91,-20,203,0
156027,91,-18,199,0
156037,85,-16,203,0
156048,72,-16,207,0
156059,64,-16,210,0
156070,58,-12,215,0
156081,55,-8,221,0
156092,44,-4,225,0
156103,27,-2,228,0
156114,19,-1,227,0
156125,11,-2,227,0
156136,3,-1,224,0
156148,-2,-2,223,0
156158,-4,-3,220,0
156169,-5,-2,220,0
156180,-6,-1,223,0
156192,-8,-1,229,0
156202,-9,0,233,0
156213,-6,2,236,0
156224,-6,5,240,0
156235,-4,7,239,0
156246,0,4,238,0
156257,0,3,234,0
156268,3,-3,229,0
156279,7,-6,223,0
156291,8,-9,216,0
156302,10,-13,213,0
156312,9,-14,212,0
156323,8,-19,213,0
156334,8,-21,214,0
156345,11,-22,217,0
156356,13,-21,219,0
156367,12,-18,221,0
156378,15,-12,227,0
156389,13,-6,229,0
156400,12,-6,230,0
156412,5,-5,228,1
156422,0,-5,225,0
156433,-13,0,228,0
156446,-22,0,229,0
156456,-24,0,229,0
156467,-23,2,232,0
156478,1,13,221,0
156489,11,21,256,0
156500,5,-19,281,0
156511,10,-18,277,0
156522,-4,-18,263,0
156533,-17,-17,265,0
156544,-10,1,279,0
156555,-5,-10,295,0
156566,2,-33,298,0
156577,33,-3,293,0
156588,57,4,285,0
156599,77,9,271,0
156610,89,12,251,0
156621,100,12,228,0
156632,111,3,199,0
156643,123,-3,174,0
156654,129,-12,147,0
156665,127,-20,133,0
156677,119,-20,131,0
156687,102,-19,141,0
156698,82,-22,162,0
156709,69,-19,188,0
156720,57,-14,207,0
156731,43,-11,227,0
156742,29,7,282,0
156753,26,14,304,0
156764,20,18,308,0
156775,20,13,292,0
156786,19,6,270,0
156797,18,4,252,0
156808,18,1,241,0
156819,15,2,229,0
156830,17,1,226,0
156842,21,0,225,0
156852,28,0,227,0
156863,26,-4,227,0
156874,25,1,228,0
156885,23,3,217,0
156896,17,2,215,0
156907,4,2,205,0
156918,4,2,206,0
156929,3,3,205,0
156940,7,5,205,0
156952,10,2,198,0
156962,12,1,196,0
156973,11,0,195,0
156984,8,1,196,0
156995,6,3,196,0
157006,2,1,197,0
157017,3,3,202,0
157028,3,7,207,0
157039,3,8,213,0
157050,3,9,215,0
157061,2,11,220,0
157072,2,11,230,0
157083,-2,13,234,0
157094,-7,11,235,0
157105,-11,5,239,0
157116,-14,0,246,0
157127,-14,-1,251,0
157138,-13,2,253,0
157150,-16,7,256,1
157160,-19,8,263,0
157171,-22,9,263,0
157182,-27,15,257,0
157193,-14,8,266,0
157204,54,14,362,0
157215,56,66,392,0
157227,40,31,370,0
157237,83,-23,326,0
157248,94,-7,338,0
157259,67,9,294,0
157270,43,36,218,0
157281,37,-133,241,0
157292,45,-24,195,0
157303,27,-60,154,0
157314,35,-60,154,0
157325,47,-49,152,0
157336,54,-40,156,0
157347,51,-26,165,0
157358,49,-21,166,0
157369,49,-14,183,0
157380,59,-10,200,0
157392,66,-10,218,0
157402,69,-17,228,0
157413,74,-23,220,0
157424,73,-21,221,0
157435,68,-19,217,0
157446,54,-21,216,0
157457,36,-18,204,0
157468,23,-15,199,0
157479,21,-11,205,0
157491,25,-11,208,0
157502,21,-6,216,0
157512,21,-2,223,0
157523,25,0,223,0
157534,25,-2,225,0
157545,26,-5,224,0
157556,22,-7,222,0
157567,20,-11,215,0
157578,19,-10,211,0
157589,18,-10,211,0
157600,22,-8,211,0
157611,21,-5,213,0
157622,18,-2,222,0
157633,13,-2,232,0
157644,7,-1,235,0
157655,1,0,233,0
157666,-4,-1,230,0
157677,-5,-2,226,0
157688,-5,-6,221,0
157699,-2,-4,220,0
157710,-4,-3,217,0
157721,7,-3,225,0
157732,15,-15,214,0
157743,17,-17,218,0
157754,18,-18,216,0
157765,16,-16,214,0
157777,13,-10,215,0
157787,10,-1,220,0
157798,5,0,220,0
157809,-1,2,218,0
157820,-10,5,217,0
157831,-15,5,220,0
157843,-16,1,226,0
157853,-24,1,233,0
157864,-25,3,237,0
157875,-7,7,243,0
157886,-19,-30,280,0
157898,-30,-11,265,1
157909,-41,-11,275,0
157919,-33,-1,291,0
157930,-29,-4,298,0
157941,-15,-11,298,0
157952,0,-5,295,0
157963,19,3,298,0
157974,42,12,301,0
157985,67,21,294,0
157996,87,30,285,0
158007,105,31,268,0
158018,115,28,245,0
158029,127,17,217,0
158040,129,3,190,0
158052,128,-13,167,0
158062,107,-34,139,0
158073,90,-39,146,0
158084,74,-43,158,0
158095,60,-36,175,0
158106,49,-27,193,0
158117,39,-15,209,0
158128,34,-1,234,0
158139,21,11,253,0
158150,16,13,276,0
158161,11,22,289,0
158172,5,21,291,0
158183,3,13,285,0
158194,3,3,272,0
158205,6,-3,259,0
158216,8,-10,239,0
158227,7,-13,216,0
158238,3,-3,212,0
158249,3,-3,212,0
158260,8,-6,214,0
158271,12,0,220,0
158282,17,0,222,0
158294,17,0,222,0
158305,14,0,216,0
158316,8,2,214,0
158327,1,7,212,0
158339,-6,2,204,0
158350,-15,4,204,0
158361,-22,-2,194,0
158372,-25,0,193,0
158383,-25,1,199,0
158394,-23,3,207,0
158405,-19,2,213,0
158417,-16,1,222,0
158427,-14,11,227,0
158440,-16,20,228,0
158450,-16,26,234,0
158461,-17,33,237,0
158472,-19,38,242,0
158483,-5,35,251,0
158494,6,29,253,0
158505,10,27,251,0
158516,16,9,252,0
158527,-14,25,253,0
158538,-1,-11,241,0
158549,5,4,246,0
158560,-1,13,240,0
158571,-6,2,236,0
158582,-1,9,238,0
158593,1,12,228,0
158604,0,7,220,0
158616,2,3,216,1
158627,5,-1,211,0
158637,16,-1,212,0
158648,17,-4,211,0
158659,14,-16,209,0
158670,11,-26,207,0
158681,127,-15,273,0
158692,135,84,348,0
158703,149,50,344,0
158714,178,8,358,0
158725,165,0,291,0
158736,130,-1,262,0
158747,97,-4,255,0
158758,50,15,245,0
158769,-1,14,217,0
158781,-17,-3,196,0
158792,-10,-19,181,0
158803,8,-14,191,0
158814,24,-3,214,0
158825,46,7,252,0
158836,59,18,263,0
158847,65,34,259,0
158858,79,33,251,0
158869,89,27,234,0
158880,94,25,212,0
158892,95,24,200,0
158902,91,23,200,0
158913,84,18,202,0
158924,79,20,202,0
158935,77,18,198,0
158946,78,18,191,0
158957,76,25,185,0
158968,77,24,187,0
158980,84,23,182,0
158991,89,21,185,0
159002,91,25,190,0
159012,94,26,196,0
159023,97,28,198,0
159034,93,37,204,0
159046,93,39,214,0
159056,99,37,226,0
159067,107,35,233,0
159078,108,35,237,0
159089,102,33,235,0
159100,92,33,233,0
159111,82,31,221,0
159122,73,35,214,0
159133,64,30,215,0
159144,61,24,212,0
159155,60,24,213,0
159166,62,26,220,0
159177,69,33,224,0
159188,75,38,222,0
159199,84,40,221,0
159210,89,38,219,0
159221,93,39,218,0
159232,95,43,216,0
159243,95,50,216,0
159254,93,48,218,0
159265,94,43,218,0
159277,93,43,218,0
159287,92,41,217,0
159298,88,46,217,0
159309,88,47,214,0
159320,84,46,210,0
159331,84,45,214,0
159343,82,43,216,0
159353,78,48,218,0
159364,75,48,222,0
159375,70,45,226,0
159386,68,42,228,0
159397,68,43,228,0
159408,67,43,226,0
159419,68,45,223,0
159430,72,42,220,0
159441,77,40,221,0
159452,81,41,216,0
159463,82,41,213,0
159474,84,44,214,0
159485,84,44,219,0
159496,88,43,219,0
159507,89,47,219,0
159518,88,46,216,0
159529,89,43,216,0
159540,90,44,217,0
159552,91,44,216,0
159562,91,43,217,0
159573,91,44,218,0
159584,91,45,217,0
159595,90,48,218,0
159606,90,47,220,0
159617,89,47,217,0
159628,87,45,217,0
159639,89,44,214,0
159650,89,45,217,0
159661,90,44,215,0
159672,91,43,212,0
159683,90,44,213,0
159694,92,44,212,0
159705,91,46,211,0
159716,91,45,212,0
159727,92,47,214,0
159738,94,48,215,0
159749,93,47,214,0
159760,91,43,214,0
159771,93,38,219,0
159782,93,42,216,0
159793,91,43,214,0
159804,89,42,213,0
159815,81,44,214,0
159827,79,43,216,0
159837,78,43,215,0
159848,78,43,218,0
159859,81,43,217,0
159870,85,44,215,0
159881,88,45,214,0
159892,89,45,212,0
159903,91,44,212,0
159914,92,46,213,0
159925,91,47,212,0
159936,89,47,214,0
159947,89,46,215,0
159958,88,45,215,0
159969,87,45,214,0
159981,85,45,216,0
159992,86,45,217,0
160002,85,46,214,0
160013,86,47,216,0
160024,87,46,216,0
160035,86,46,214,0
160046,85,46,214,0
160057,84,47,215,0
160068,84,47,217,0
160079,84,48,218,0
160091,86,47,217,0
160102,84,47,216,0
160112,84,48,217,0
160123,84,49,216,0
160134,84,49,217,0
160145,82,47,216,0
160156,81,47,215,0
160167,81,48,214,0
160178,80,48,216,0
160189,80,49,215,0
160200,80,49,215,0
160211,81,48,216,0
160222,79,46,216,0
160233,79,47,216,0
160244,79,48,216,0
160255,77,48,216,0
160266,77,49,216,0
160278,79,49,218,0
160288,81,47,218,0
160299,81,51,217,0
160310,84,51,216,0
160321,83,51,215,0
160332,82,50,214,0
160343,81,51,214,0
160354,79,50,215,0
160365,77,48,217,0
160377,77,48,217,0
160387,75,48,220,0
160398,71,49,221,0
160409,69,48,223,0
160420,68,49,221,0
160431,69,50,221,0
160443,69,50,219,0
160453,71,49,220,0
160464,73,50,218,0
160475,77,51,218,0
160486,79,51,218,0
160497,79,51,216,0
160508,80,50,217,0
160520,81,50,216,0
160531,80,48,218,0
160543,79,47,219,0
160553,78,48,217,0
160564,77,47,217,0
160575,76,49,218,0
160586,77,49,218,0
160597,81,49,217,0
160608,82,50,215,0
160619,82,50,215,0
160630,80,50,217,0
160641,78,50,217,0
160652,77,51,217,0
160663,78,50,216,0
160674,77,52,218,0
160685,77,52,216,0
160696,77,51,216,0
160707,77,51,217,0
160718,78,49,218,0
160729,74,49,220,0
160740,75,51,220,0
160752,74,49,220,0
160762,77,49,220,0
160773,78,49,220,0
160784,82,49,217,0
160795,84,54,211,0
160806,83,55,216,0
160817,78,51,217,0
160828,76,53,218,0
160839,76,54,220,0
160850,73,53,220,0
160861,70,52,219,0
160872,70,53,220,0
160883,71,53,217,0
160894,73,54,216,0
160905,73,54,215,0
160917,73,50,215,0
160927,70,52,216,0
160938,68,52,217,0
160949,61,55,220,0
160960,58,54,223,0
160971,59,53,225,0
160982,60,51,223,0
160993,63,52,222,0
161005,64,51,220,0
161015,64,52,218,0
161027,64,55,217,0
161037,64,54,218,0
161048,63,54,218,0
161059,63,54,219,0
161070,63,51,221,0
161081,64,51,220,0
161092,64,49,222,0
161103,64,48,221,0
161114,65,49,222,0
161125,64,50,220,0
161136,65,49,219,0
161148,64,50,222,0
161158,65,49,221,0
161169,64,50,221,0
161180,65,47,222,0
161192,65,46,224,0
161202,65,46,222,0
161213,66,48,220,0
161224,64,49,219,0
161235,63,49,221,0
161246,64,47,222,0
161257,61,48,221,0
161268,59,49,222,0
161279,57,48,221,0
161291,52,49,222,0
161302,52,47,223,0
161312,52,48,223,0
161323,54,46,223,0
161334,55,45,223,0
161345,57,47,225,0
161356,58,46,224,0
161367,57,46,224,0
161378,56,48,223,0
161389,56,47,222,0
161400,57,49,222,0
161411,55,49,223,0
161422,53,50,224,0
161433,52,50,224,0
161444,48,52,224,0
161455,46,52,223,0
161467,42,52,222,0
161477,39,52,223,0
161488,39,51,222,0
161499,40,50,221,0
161510,40,49,221,0
161521,40,49,221,0
161532,39,50,221,0
161543,37,52,223,0
161554,35,53,222,0
161565,32,57,221,0
161577,29,57,219,0
161587,23,60,216,0
161598,19,58,216,0
161609,10,63,213,0
161620,9,68,217,0
161631,7,70,217,0
161643,7,71,219,0
161653,2,75,218,0
161665,0,79,219,1
161675,0,74,216,0
161686,11,68,206,0
161697,32,71,201,0
161708,48,48,204,0
161719,55,37,190,0
161730,46,25,173,0
161741,40,10,173,0
161752,29,-5,187,0
161763,27,13,204,0
161775,60,59,251,0
161786,81,64,278,0
161797,103,62,305,0
161808,119,59,322,0
161819,124,58,334,0
161830,124,43,324,0
161841,111,19,302,0
161852,95,-1,284,0
161863,79,-12,279,0
161874,66,-15,286,0
161885,60,-17,288,0
161896,51,-18,278,0
161907,44,-20,268,0
161918,47,-18,253,0
161929,52,-18,242,0
161940,62,-12,230,0
161952,72,-10,216,0
161962,80,-11,199,0
161973,78,-12,186,0
161985,77,-14,176,0
161996,70,-20,166,0
162007,61,-15,163,0
162018,50,-9,162,0
162029,46,-1,176,0
162040,46,3,192,0
162052,42,1,207,0
162062,37,0,212,0
162073,26,0,217,0
162084,21,1,221,0
162095,16,4,224,0
162106,13,2,228,0
162117,12,3,232,0
162128,12,4,230,0
162139,12,8,231,0
162150,9,10,231,0
162161,5,14,229,0
162172,0,15,227,0
162183,-2,15,229,0
162194,-6,14,224,0
162205,-6,11,222,0
162216,-4,11,218,0
162227,-2,9,214,0
162238,-1,7,205,0
162249,0,2,203,0
162260,1,-1,201,0
162271,1,-5,201,0
162282,0,-4,200,0
162293,-2,-2,205,0
162304,-6,-4,212,0
162315,-5,-4,220,0
162327,-5,0,232,0
162337,-4,3,242,0
162348,-6,7,253,0
162359,-5,9,259,0
162370,-7,11,265,0
162381,-13,9,263,0
162392,-18,15,259,0
162403,-22,8,252,0
162414,-16,2,253,0
162426,51,-15,333,1
162436,76,68,388,0
162447,25,64,351,0
162458,47,-2,325,0
162469,61,-1,287,0
162480,67,0,317,0
162492,70,-14,314,0
162502,56,-56,307,0
162513,73,-63,253,0
162524,38,-53,222,0
162535,35,-60,178,0
162546,31,-59,163,0
162557,34,-59,143,0
162568,20,-32,148,0
162581,25,-23,166,0
162592,42,-14,183,0
162602,62,-12,194,0
162613,82,-17,203,0
162624,96,-19,209,0
162635,102,-21,214,0
162646,95,-22,209,0
162657,80,-24,206,0
162668,68,-24,205,0
162679,56,-20,205,0
162691,46,-15,207,0
162702,38,-12,209,0
162712,17,-12,215,0
162723,12,-9,222,0
162734,11,0,223,0
162746,17,-3,217,0
162756,22,-6,213,0
162767,27,-8,209,0
162778,28,-6,205,0
162789,31,-5,204,0
162800,29,-7,205,0
162811,27,-9,207,0
162823,27,-10,211,0
162834,27,-8,215,0
162845,22,-3,217,0
162856,16,0,223,0
162867,7,3,229,0
162878,5,4,229,0
162889,3,1,229,0
162900,4,4,229,0
162911,2,4,228,0
162922,2,1,231,0
162933,6,0,225,0
162944,11,-2,219,0
162955,10,-4,213,0
162966,9,-4,216,0
162977,10,-1,220,0
162988,12,0,226,0
162999,14,1,231,0
163010,11,5,230,0
163021,10,13,229,0
163032,-2,24,224,0
163044,-10,23,218,0
163054,-14,17,213,0
163065,2,11,204,0
163077,-9,7,243,0
163087,-21,-13,280,0
163099,-25,-8,292,1
163109,-23,-12,294,0
163120,-3,3,299,0
163131,1,0,321,0
163142,8,-31,358,0
163153,20,-26,373,0
163164,37,-5,358,0
163176,64,4,328,0
163186,100,9,297,0
163197,149,13,239,0
163208,156,7,212,0
163219,148,-2,192,0
163230,138,-15,175,0
163241,124,-16,169,0
163252,101,-17,164,0
163263,63,-16,167,0
163274,30,-13,179,0
163285,5,-13,205,0
163296,-12,-13,228,0
163307,-26,-19,249,0
163318,-28,-6,268,0
163329,-20,0,269,0
163340,-15,-2,268,0
163352,-7,-13,246,0
163362,18,-9,219,0
163373,29,-9,212,0
163384,40,-10,201,0
163395,45,-12,189,0
163406,46,-14,182,0
163417,47,-16,185,0
163428,48,-13,190,0
163439,48,-11,190,0
163450,46,-16,191,0
163461,44,-18,193,0
163472,40,-18,197,0
163483,34,-17,202,0
163494,23,-16,213,0
163505,17,-18,219,0
163516,9,-20,219,0
163527,1,-23,212,0
163538,-1,-25,210,0
163549,-3,-28,203,0
163560,-8,-29,200,0
163571,-9,-29,198,0
163582,-13,-31,197,0
163593,-13,-30,196,0
163604,-18,-26,203,0
163615,-20,-23,206,0
163627,-23,-17,214,0
163637,-24,-14,221,0
163648,-24,-10,228,0
163659,-24,-8,229,0
163670,-23,-9,231,0
163681,-20,-4,240,0
163692,-14,-8,246,0
163703,-10,-9,248,0
163714,-4,-10,245,0
163725,-1,-9,249,0
163736,-4,-3,255,0
163747,-17,3,260,0
163758,-30,3,271,0
163770,-40,-3,275,0
163781,-49,-11,272,0
163792,-40,-28,269,0
163803,28,-56,346,1
163813,43,2,370,0
163824,50,2,349,0
163835,75,-9,311,0
163846,85,-16,293,0
163857,115,9,296,0
163868,102,52,215,0
163879,102,-125,276,0
163891,106,-13,185,0
163902,82,-28,159,0
163912,64,-28,155,0
163923,58,-35,148,0
163934,50,-40,151,0
163945,39,-35,161,0
163956,27,-30,163,0
163967,33,-28,169,0
163978,56,-28,190,0
163989,87,-24,210,0
164000,108,-17,222,0
164011,111,-17,229,0
164022,82,-17,230,0
164034,65,-4,224,0
164045,52,1,215,0
164056,48,1,217,0
164067,42,8,219,0
164078,35,9,218,0
164089,31,11,216,0
164100,28,8,210,0
164111,21,3,211,0
164122,15,2,210,0
164133,8,1,214,0
164144,6,3,214,0
164155,5,1,215,0
164166,7,-3,218,0
164177,13,-8,220,0
164188,15,-1,229,0
164199,14,-2,230,0
164210,14,-5,235,0
164221,11,0,237,0
164232,8,0,235,0
164244,10,-2,236,0
164254,12,-2,231,0
164265,9,-2,228,0
164277,11,-6,226,0
164287,13,-5,220,0
164298,12,-1,218,0
164309,12,-4,216,0
164320,9,0,218,0
164331,1,5,218,0
164342,-7,8,220,0
164353,-16,8,221,0
164364,-26,10,218,0
164375,-37,9,216,0
164386,-45,4,214,0
164397,-46,0,215,0
164408,-46,-1,217,0
164419,-46,-5,220,0
164430,-48,-7,225,0
164441,-49,-4,232,0
164452,-47,-8,239,0
164464,-41,-10,245,1
164474,-33,-14,254,0
164485,-21,-17,263,0
164496,30,-4,266,0
164507,17,-67,287,0
164518,13,-64,291,0
164529,7,-17,282,0
164540,21,4,310,0
164552,70,5,319,0
164562,105,5,320,0
164573,128,5,300,0
164584,137,-2,263,0
164595,131,3,221,0
164606,133,8,215,0
164617,121,16,208,0
164628,105,25,198,0
164639,90,35,199,0
164650,61,42,213,0
164661,0,40,230,0
164672,-25,35,247,0
164683,-40,19,256,0
164694,-46,6,251,0
164705,-40,8,249,0
164717,-27,8,241,0
164728,-7,6,238,0
164739,13,4,236,0
164750,35,2,226,0
164761,51,1,210,0
164772,62,4,205,0
164783,67,1,206,0
164794,66,1,208,0
164805,55,1,198,0
164816,48,3,193,0
164827,43,5,191,0
164838,38,4,188,0
164849,35,0,194,0
164860,22,-13,204,0
164871,32,-23,224,0
164882,24,-1,222,0
164893,13,3,222,0
164904,6,3,224,0
164916,2,15,227,0
164927,4,13,232,0
164937,16,3,223,0
164948,17,13,199,0
164959,12,18,196,0
164970,18,8,196,0
164981,11,8,203,0
164992,6,4,209,0
165003,2,7,213,0
165014,-2,9,223,0
165025,-8,6,231,0
165036,-7,2,232,0
165047,-9,-1,242,0
165058,-8,-6,250,0
165069,-4,0,257,0
165080,-8,5,263,0
165092,-13,4,263,0
165102,-20,2,252,0
165113,-7,3,252,0
165125,39,25,323,1
165135,25,37,329,0
165146,38,12,327,0
165157,31,10,282,0
165168,63,4,319,0
165179,58,10,340,0
165191,42,-15,285,0
165202,38,-48,240,0
165212,41,-59,210,0
165223,47,-55,191,0
165234,50,-58,178,0
165245,49,-45,165,0
165256,47,-29,160,0
165267,50,-12,158,0
165278,52,2,165,0
165289,54,14,178,0
165300,63,29,214,0
165311,71,25,222,0
165322,76,17,218,0
165333,76,14,217,0
165344,71,10,216,0
165355,66,6,217,0
165366,54,8,212,0
165377,40,11,210,0
165388,30,11,211,0
165399,25,11,211,0
165410,23,12,220,0
165421,26,17,224,0
165432,28,17,230,0
165444,28,16,229,0
165454,33,14,226,0
165466,30,10,222,0
165477,30,12,216,0
165487,28,14,216,0
165498,26,18,219,0
165509,25,18,219,0
165520,26,19,220,0
165531,30,20,221,0
165542,30,19,222,0
165553,27,20,226,0
165564,22,20,224,0
165575,19,19,225,0
165586,15,22,222,0
165597,15,23,223,0
165608,14,25,224,0
165619,14,19,225,0
165630,14,24,229,0
165641,18,23,233,0
165652,21,21,233,0
165663,24,18,231,0
165674,29,18,229,0
165685,30,19,229,0
165696,33,20,231,0
165707,32,21,236,0
165718,27,21,238,0
165729,18,23,240,0
165740,6,26,240,0
165752,1,28,235,0
165762,-4,32,233,0
165773,-13,33,230,0
165784,-20,38,228,0
165795,-24,39,222,0
165807,15,55,222,1
165818,25,40,271,0
165828,21,-1,302,0
165839,-4,4,298,0
165850,-18,4,290,0
165861,-15,24,290,0
165872,10,48,288,0
165883,27,31,294,0
165894,38,26,282,0
165905,54,13,266,0
165917,71,-3,254,0
165927,96,-16,235,0
165938,120,-25,219,0
165949,126,-31,205,0
165960,129,-25,190,0
165971,121,-13,196,0
165982,103,-1,196,0
165993,87,5,193,0
166004,74,6,198,0
166015,63,1,211,0
166027,54,-2,226,0
166037,41,0,246,0
166049,36,5,266,0
166060,43,8,280,0
166071,50,13,276,0
166082,57,8,259,0
166093,61,4,242,0
166104,54,-1,211,0
166115,48,0,204,0
166127,42,4,209,0
166137,37,4,208,0
166148,36,1,210,0
166159,38,1,216,0
166170,43,2,219,0
166181,45,5,213,0
166192,47,4,211,0
166203,48,6,208,0
166214,45,5,209,0
166225,37,2,210,0
166236,28,1,213,0
166247,19,2,213,0
166258,8,3,214,0
166269,-2,0,212,0
166280,-9,-5,211,0
166292,-6,-8,210,0
166302,-5,2,208,0
166313,-9,-1,208,0
166324,-6,0,215,0
166335,-4,3,231,0
166346,12,-23,213,0
166357,23,9,188,0
166368,8,32,195,0
166379,2,14,223,0
166391,1,0,223,0
166402,-5,0,220,0
166412,-15,-4,226,0
166423,-20,-2,230,0
166434,-25,-3,248,0
166445,-29,1,254,0
166456,-36,9,252,0
166467,-41,14,255,0
166479,-14,0,283,1
166491,51,25,375,0
166502,39,68,376,0
166512,38,25,382,0
166523,51,-8,350,0
166534,55,-5,299,0
166545,91,1,352,0
166556,80,3,356,0
166567,57,2,297,0
166578,42,-13,243,0
166589,25,-43,177,0
166600,30,-59,149,0
166611,34,-53,137,0
166622,38,-46,137,0
166633,39,-35,137,0
166644,38,-23,150,0
166655,40,-14,162,0
166666,48,-8,179,0
166677,62,-3,199,0
166688,76,1,217,0
166699,83,0,226,0
166710,91,0,234,0
166721,91,-2,231,0
166732,90,-5,226,0
166744,73,-12,215,0
166754,37,-16,211,0
166765,26,-10,212,0
166777,22,-12,212,0
166787,24,-9,213,0
166798,24,-7,216,0
166809,21,1,218,0
166820,21,2,220,0
166831,18,2,220,0
166842,12,1,221,0
166853,14,-1,223,0
166864,14,-1,221,0
166875,13,0,219,0
166886,12,0,216,0
166897,15,-1,215,0
166908,16,-3,212,0
166919,18,-2,219,0
166930,19,0,224,0
166941,16,2,226,0
166952,13,4,231,0
166963,10,10,234,0
166974,8,12,235,0
166985,7,12,236,0
166996,7,9,233,0
167007,8,6,225,0
167018,6,0,211,0
167029,15,-6,216,0
167040,23,-8,220,0
167052,26,-13,220,0
167062,28,-17,223,0
167073,29,-17,230,0
167084,28,-15,235,0
167095,23,-12,232,0
167106,18,-12,230,0
167117,12,-9,225,0
167128,11,-9,222,0
167139,7,-6,220,0
167150,4,-2,222,0
167161,0,3,225,0
167172,-9,3,231,0
167183,-14,3,237,0
167194,-14,9,239,0
167205,11,24,224,0
167216,11,16,274,0
167228,1,-48,293,1
167238,-10,-22,279,0
167249,-50,-9,264,0
167260,-44,9,282,0
167271,-30,-12,306,0
167282,-10,-21,308,0
167293,1,-6,301,0
167304,26,3,298,0
167315,67,15,288,0
167327,106,27,280,0
167337,127,25,261,0
167348,143,18,238,0
167359,146,7,204,0
167370,141,-1,171,0
167381,130,-15,142,0
167392,114,-22,133,0
167403,92,-28,135,0
167414,67,-25,183,0
167425,53,-18,195,0
167436,31,-12,218,0
167447,13,-7,239,0
167458,2,-2,258,0
167469,2,0,275,0
167480,9,-1,272,0
167491,15,0,259,0
167502,17,-2,250,0
167513,17,-6,248,0
167524,19,-11,245,0
167535,23,-10,237,0
167546,29,-14,226,0
167557,32,-15,218,0
167569,36,-16,199,0
167579,40,-16,192,0
167591,43,-15,194,0
167602,40,-12,203,0
167612,35,-13,207,0
167623,29,-12,213,0
167636,24,-11,217,0
167646,14,-9,219,0
167657,9,-8,217,0
167668,5,-8,215,0
167679,7,-10,212,0
167691,6,-11,208,0
167702,4,-13,204,0
167712,2,-15,203,0
167723,-1,-12,203,0
167734,-4,-12,205,0
167745,-6,-11,206,0
167756,-8,-5,210,0
167767,-9,-3,217,0
167778,-11,0,225,0
167789,-15,1,235,0
167800,-18,3,241,0
167811,-22,3,241,0
167822,-24,1,241,0
167833,-24,-5,239,0
167844,-24,-7,237,0
167855,-25,-2,235,0
167867,-32,2,233,0
167877,-36,0,237,0
167888,-46,-7,241,0
167900,-22,-29,265,1
167910,51,-30,381,0
167921,56,30,412,0
167932,55,3,392,0
167943,66,-32,346,0
167954,71,-42,308,0
167965,112,-29,356,0
167977,107,3,356,0
167987,78,4,268,0
167998,35,16,209,0
168009,36,-89,272,0
168020,34,-8,187,0
168031,29,-26,170,0
168042,34,-49,148,0
168053,46,-33,142,0
168064,51,-21,149,0
168075,54,-19,158,0
168086,54,-10,174,0
168097,61,-5,191,0
168108,76,-6,213,0
168119,91,-12,217,0
168131,100,-13,225,0
168141,108,-11,227,0
168152,113,-14,229,0
168163,110,-15,230,0
168174,98,-15,223,0
168185,81,-19,209,0
168196,65,-14,208,0
168207,55,-7,210,0
168218,50,1,213,0
168229,54,0,223,0
168240,53,3,223,0
168252,41,4,224,0
168262,36,3,228,0
168273,29,3,228,0
168284,23,0,228,0
168295,17,-1,225,0
168306,12,-1,223,0
168317,9,-1,223,0
168328,7,-1,221,0
168340,6,-3,222,0
168350,5,-4,224,0
168361,5,-2,226,0
168372,5,1,226,0
168383,5,0,226,0
168394,6,1,225,0
168405,7,-1,225,0
168417,8,-1,225,0
168427,8,-2,224,0
168438,14,-3,225,0
168449,24,-5,221,0
168460,24,-9,220,0
168471,28,-10,222,0
168482,35,-13,223,0
168493,40,-12,225,0
168504,40,-12,226,0
168515,40,-11,227,0
168527,38,-8,228,0
168537,35,-7,225,0
168548,21,0,223,0
168559,16,-4,222,0
168570,12,2,219,0
168581,6,7,220,0
168592,3,6,221,0
168603,2,7,227,0
168614,2,2,230,0
168625,3,1,233,0
168636,1,-2,234,0
168647,-3,-7,232,0
168658,-4,-5,230,0
168670,-9,-5,229,1
168680,0,-6,212,0
168692,25,1,224,0
168702,8,-43,261,0
168713,2,-15,225,0
168724,5,4,220,0
168735,8,-1,238,0
168746,8,-34,256,0
168757,18,-40,257,0
168768,28,-15,262,0
168779,50,-13,273,0
168791,78,-11,285,0
168802,95,-1,288,0
168812,108,6,287,0
168823,121,7,282,0
168834,126,9,272,0
168845,124,2,255,0
168856,115,-7,230,0
168867,101,-19,210,0
168878,71,-37,179,0
168889,58,-36,175,0
168900,46,-32,169,0
168911,40,-32,172,0
168922,38,-32,184,0
168933,38,-28,193,0
168944,41,-23,205,0
168955,49,-17,212,0
168966,62,-11,219,0
168977,70,-6,226,0
168988,79,-6,229,0
168999,85,-7,230,0
169011,89,-14,231,0
169021,94,-11,227,0
169032,91,-1,227,0
169043,82,0,226,0
169054,74,3,226,0
169065,66,2,229,0
169077,53,1,226,0
169087,44,4,227,0
169098,37,6,227,0
169109,32,11,226,0
169120,31,18,226,0
169131,32,21,230,0
169142,34,20,228,0
169153,36,18,232,0
169164,39,19,232,0
169175,39,17,231,0
169186,39,19,234,0
169198,40,17,232,0
169208,43,17,230,0
169219,48,15,226,0
169231,52,13,225,0
169241,55,12,224,0
169252,56,12,225,0
169263,57,10,227,0
169274,59,8,230,0
169285,58,8,230,0
169296,56,8,229,0
169307,55,6,230,0
169318,54,5,230,0
169329,52,7,229,0
169340,52,4,227,0
169352,51,4,224,0
169362,50,1,220,0
169373,51,1,220,0
169384,53,0,220,0
169395,58,1,223,0
169406,62,3,224,0
169417,63,5,227,0
169428,63,7,233,0
169439,63,10,236,0
169450,63,10,237,0
169461,64,7,235,0
169472,63,3,228,0
169483,62,0,226,0
169494,60,0,220,0
169505,56,-2,219,0
169516,54,-2,220,0
169527,48,2,223,0
169538,48,7,223,0
169549,52,12,226,0
169560,51,13,227,0
169571,49,9,230,0
169582,45,9,234,0
169593,38,3,237,0
169604,28,-1,235,0
169616,20,-1,228,0
169627,16,-1,229,0
169637,17,1,232,0
169648,18,2,235,0
169659,22,5,239,0
169670,31,7,241,0
169681,40,8,238,0
169692,62,-1,228,0
169703,71,-1,222,0
169714,80,-4,220,0
169725,88,-5,220,0
169736,94,-5,221,0
169747,94,-6,222,0
169758,95,-2,223,0
169769,91,0,223,0
169780,88,2,225,0
169792,82,6,225,0
169802,78,8,223,0
169813,72,11,221,0
169824,72,9,220,0
169835,74,7,222,0
169846,79,5,226,0
169857,83,1,228,0
169868,83,1,229,0
169879,84,1,232,0
169891,82,5,237,0
169902,80,9,235,0
169912,76,14,233,0
169923,72,18,232,0
169934,68,19,229,0
169945,65,20,227,0
169956,64,18,225,0
169967,62,16,224,0
169978,61,15,223,0
169989,59,15,221,0
170000,58,15,222,0
170011,57,16,220,0
170022,54,15,221,0
170033,52,15,219,0
170044,50,14,220,0
170055,47,11,220,0
170066,46,12,219,0
170077,46,11,222,0
170088,44,12,223,0
170099,43,11,223,0
170110,42,11,222,0
170121,39,8,221,0
170132,38,3,220,0
170143,39,3,223,0
170154,41,3,222,0
170165,42,6,221,0
170177,43,4,223,0
170187,45,3,227,0
170198,43,2,228,0
170209,43,1,229,0
170220,41,1,230,0
170231,40,1,230,0
170242,38,2,230,0
170253,38,2,229,0
170264,39,1,228,0
170275,41,0,230,0
170286,43,1,231,0
170297,48,0,233,0
170308,51,1,232,0
170319,52,0,233,0
170331,54,0,232,0
170341,56,0,233,0
170352,59,3,232,0
170363,61,3,233,0
170374,63,3,231,0
170385,64,6,228,0
170396,65,6,226,0
170407,64,6,226,0
170418,64,8,225,0
170429,61,8,224,0
170440,55,6,223,0
170452,52,3,224,0
170462,48,2,227,0
170473,46,0,231,0
170484,46,0,233,0
170495,48,-2,237,0
170506,49,-7,235,0
170517,50,-10,235,0
170529,49,-12,231,0
170539,49,-10,228,0
170550,48,-8,225,0
170561,46,-6,226,0
170572,43,-1,227,0
170583,38,0,232,0
170594,33,0,234,0
170605,29,4,237,0
170616,26,12,239,0
170627,22,15,241,0
170638,19,14,239,0
170649,16,15,237,0
170660,15,14,239,0
170671,14,14,235,0
170682,22,14,232,0
170693,25,15,234,0
170704,32,16,232,0
170715,35,15,233,0
170727,39,15,233,0
170737,43,15,233,0
170748,47,12,231,0
170759,51,11,232,0
170770,56,8,230,0
170781,59,7,227,0
170792,62,8,229,0
170803,64,8,229,0
170814,64,8,229,0
170825,65,10,231,0
170836,67,11,229,0
170847,63,13,232,0
170858,62,12,233,0
170869,60,9,233,0
170880,57,8,232,0
170892,54,4,233,0
170902,50,4,234,0
170913,48,3,236,0
170924,46,2,233,0
170935,45,2,234,0
170946,42,0,228,0
170957,39,-1,224,0
170968,36,0,224,0
170979,36,-1,220,0
170991,35,0,219,0
171002,31,0,217,0
171012,25,-1,223,0
171023,18,-2,222,0
171034,15,-1,226,0
171045,13,-4,227,0
171056,11,-3,227,0
171067,7,-2,226,0
171078,2,-1,226,0
171089,0,-2,224,0
171100,-1,-1,226,0
171111,-6,-1,225,0
171122,-8,-2,228,0
171133,-11,-2,225,0
171144,-16,-1,226,0
171155,-18,0,224,0
171166,-16,1,222,0
171177,-13,2,220,0
171188,-12,2,217,0
171199,-10,3,218,0
171210,-7,2,217,0
171221,-6,2,218,0
171232,-5,0,220,0
171243,-1,-3,220,0
171254,1,0,216,0
171265,-1,-1,216,0
171277,-2,-7,219,0
171288,-4,-6,226,0
171299,-5,-1,230,0
171310,-8,6,231,0
171321,-13,-1,229,0
171332,-8,0,226,0
171343,-11,2,221,0
171354,-15,5,218,0
171365,-20,4,227,0
171377,-20,2,234,0
171387,-23,11,239,0
171398,-29,20,247,0
171409,-29,18,254,0
171420,-28,17,253,0
171432,-27,17,253,0
171442,-27,17,253,0
171453,-29,12,253,0
171464,-30,15,253,0
171475,-31,15,247,0
171486,-39,16,239,0
171497,-41,15,238,0
171508,-42,11,234,0
171520,-43,5,232,1
171531,-1,-4,264,0
171541,36,31,322,0
171553,25,38,296,0
171563,60,15,295,0
171574,81,9,285,0
171585,62,19,256,0
171597,89,3,277,0
171608,96,1,299,0
171619,83,33,294,0
171631,71,-2,248,0
171641,57,-16,212,0
171652,44,-22,187,0
171663,37,-30,164,0
171674,32,-37,159,0
171685,29,-41,165,0
171696,27,-37,178,0
171707,25,-34,191,0
171718,29,-28,202,0
171729,33,-26,213,0
171740,35,-19,221,0
171752,42,-15,224,0
171762,52,-13,221,0
171773,57,-2,224,0
171784,62,5,232,0
171795,66,2,230,0
171806,68,0,218,0
171817,65,-1,214,0
171828,60,3,215,0
171839,56,2,212,0
171850,53,7,213,0
171861,52,12,213,0
171872,54,13,216,0
171883,55,14,220,0
171894,59,18,221,0
171905,59,17,219,0
171917,58,17,220,0
171927,59,15,226,0
171938,63,14,230,0
171949,63,16,226,0
171960,65,20,226,0
171971,61,15,224,0
171982,56,13,220,0
171993,53,10,221,0
172005,50,13,220,0
172016,47,14,223,0
172027,49,16,227,0
172038,48,13,227,0
172049,50,9,226,0
172061,51,14,225,0
172072,51,12,224,0
172083,49,15,224,0
172094,49,11,227,0
172105,49,8,226,0
172116,47,8,223,0
172127,43,10,224,0
172138,38,11,225,0
172149,35,12,227,0
172160,31,17,228,0
172171,27,28,229,0
172182,22,26,230,0
172193,18,27,229,0
172204,13,28,229,0
172215,8,26,230,0
172227,7,31,231,0
172237,5,31,229,0
172248,4,31,229,0
172259,3,33,226,0
172270,10,31,224,0
172281,13,32,226,0
172292,14,31,227,0
172303,16,26,227,0
172314,15,20,224,0
172325,16,18,223,0
172337,12,20,220,1
172347,16,21,218,0
172358,36,33,211,0
172369,61,67,230,0
172380,62,42,264,0
172392,59,15,283,0
172402,43,20,276,0
172413,22,24,286,0
172424,5,5,302,0
172435,-2,10,294,0
172446,15,32,280,0
172457,42,48,273,0
172468,66,48,269,0
172479,90,38,257,0
172491,106,33,239,0
172502,112,19,220,0
172512,112,7,204,0
172523,110,0,186,0
172534,104,-5,164,0
172545,83,-12,154,0
172556,64,-18,147,0
172567,48,-24,150,0
172578,37,-19,165,0
172589,33,-6,187,0
172600,33,20,227,0
172611,32,29,254,0
172622,32,38,275,0
172633,36,46,290,0
172644,43,46,296,0
172655,54,40,292,0
172666,64,36,281,0
172677,72,28,262,0
172688,71,25,243,0
172699,66,20,231,0
172710,61,18,227,0
172721,57,18,226,0
172732,51,15,222,0
172743,47,15,222,0
172754,41,16,228,0
172765,32,31,226,0
172777,30,32,226,0
172787,33,29,230,0
172798,35,27,231,0
172809,33,28,231,0
172820,30,29,231,0
172831,28,27,232,0
172842,28,29,233,0
172853,29,29,231,0
172864,33,23,228,0
172875,37,20,228,0
172886,35,16,224,0
172897,31,7,223,0
172908,37,2,233,0
172920,22,17,218,0
172931,20,27,223,0
172942,13,38,227,0
172953,18,33,225,0
172964,24,29,227,0
172975,32,18,215,0
172986,24,31,205,0
172997,25,17,208,0
173008,28,6,207,0
173019,23,4,204,0
173031,22,0,208,0
173041,23,0,209,0
173052,25,1,209,0
173063,24,4,212,0
173074,14,11,218,0
173086,6,14,228,1
173096,-9,27,226,0
173107,-22,28,231,0
173118,12,17,269,0
173130,38,47,330,0
173140,12,92,312,0
173152,31,43,324,0
173162,30,24,294,0
173173,47,12,317,0
173184,51,8,321,0
173195,47,-12,293,0
173206,50,-45,252,0
173217,50,-57,227,0
173228,47,-59,206,0
173239,48,-54,171,0
173250,45,-44,164,0
173261,48,-28,168,0
173272,54,-8,175,0
173283,57,-1,187,0
173294,62,2,203,0
173305,66,2,216,0
173316,78,-4,224,0
173327,82,-2,221,0
173338,87,-1,223,0
173349,83,-2,219,0
173361,69,-8,213,0
173371,53,-11,206,0
173382,39,-7,205,0
173393,29,1,211,0
173404,24,7,222,0
173416,27,7,224,0
173427,31,11,225,0
173437,35,6,227,0
173448,40,4,222,0
173459,36,6,219,0
173470,34,6,216,0
173481,31,7,212,0
173492,27,3,213,0
173503,25,2,215,0
173514,25,2,218,0
173525,24,2,224,0
173536,28,4,224,0
173547,29,9,228,0
173558,26,6,232,0
173569,19,11,234,0
173581,12,12,232,0
173592,9,13,230,0
173602,3,14,230,0
173613,2,14,228,0
173624,1,18,226,0
173635,0,8,225,0
173646,0,2,223,0
173657,2,4,219,0
173668,5,0,217,0
173680,10,-9,220,0
173692,16,-13,221,0
173702,18,-5,221,0
173713,21,0,224,0
173724,23,10,231,0
173735,18,22,238,0
173746,12,27,234,0
173757,3,28,231,0
173768,-6,19,224,0
173779,-12,12,223,0
173791,-6,14,214,1
173802,16,17,219,0
173812,-7,-10,274,0
173823,-9,-20,277,0
173834,-31,-2,256,0
173845,-40,-10,253,0
173856,-27,14,262,0
173867,-4,28,289,0
173878,10,11,326,0
173889,38,2,339,0
173900,56,1,324,0
173911,78,6,298,0
173922,97,4,264,0
173933,115,-1,235,0
173944,121,-10,204,0
173955,123,-21,173,0
173966,122,-14,166,0
173977,119,-5,174,0
173988,111,2,190,0
173999,97,-1,194,0
174011,82,-11,211,0
174022,68,-19,225,0
174033,34,-12,258,0
174044,20,3,271,0
174055,8,7,277,0
174066,3,5,277,0
174077,7,-1,266,0
174088,9,-2,254,0
174100,21,-2,238,0
174110,30,1,214,0
174121,35,4,199,0
174132,39,6,191,0
174143,41,7,184,0
174154,42,7,187,0
174165,45,3,195,0
174177,48,2,197,0
174187,48,1,195,0
174198,37,4,198,0
174209,30,5,197,0
174220,20,1,201,0
174231,15,0,208,0
174242,12,0,209,0
174253,6,0,209,0
174264,1,-3,205,0
174275,-2,-3,201,0
174286,-7,-2,198,0
174297,-13,0,195,0
174308,-17,-1,196,0
174319,-17,-4,199,0
174331,-15,-3,206,0
174341,-20,4,204,0
174352,-28,6,210,0
174363,-37,-2,219,0
174374,-40,-4,222,0
174385,-41,2,229,0
174396,-42,3,239,0
174407,-34,6,260,0
174418,-49,38,263,0
174429,-58,11,271,0
174440,-53,-16,276,0
174452,-42,-30,276,0
174462,-31,-20,271,0
174473,-26,-8,273,0
174484,-27,-11,276,0
174495,-9,-22,299,0
174507,35,-19,371,1
174517,54,10,381,0
174528,56,-22,317,0
174539,46,-28,300,0
174550,67,-29,321,0
174563,83,2,345,0
174573,63,7,299,0
174584,48,-12,242,0
174595,33,-21,211,0
174606,26,-16,189,0
174617,29,-36,170,0
174628,36,-36,159,0
174639,38,-37,155,0
174650,43,-30,158,0
174661,49,-25,160,0
174672,50,-22,167,0
174683,59,-10,200,0
174694,66,-10,209,0
174705,80,-13,212,0
174716,93,-13,212,0
174727,104,-13,216,0
174738,105,-9,217,0
174749,98,-5,210,0
174760,89,-3,206,0
174771,72,-1,201,0
174782,62,1,204,0
174793,54,0,207,0
174804,44,1,211,0
174815,39,2,214,0
174827,35,6,217,0
174837,29,8,220,0
174848,16,5,220,0
174859,11,6,221,0
174870,9,6,218,0
174881,8,5,214,0
174892,5,5,214,0
174903,2,9,215,0
174914,0,4,216,0
174925,-1,4,218,0
174936,-5,6,222,0
174947,-7,3,228,0
174958,-9,4,231,0
174969,-7,2,229,0
174980,-3,1,228,0
174991,-2,0,224,0
175002,1,0,222,0
175013,4,-1,223,0
175024,6,0,224,0
175035,8,0,226,0
175046,10,-5,225,0
175057,13,-8,222,0
175068,12,0,223,0
175079,9,0,217,0
175091,7,-1,216,0
175102,5,-1,217,0
175112,6,-2,217,0
175123,3,-1,218,0
175134,-1,1,217,0
175145,-9,1,219,0
175156,-11,-2,224,0
175167,-17,-2,228,0
175178,-33,-9,229,0
175189,-44,-5,231,0
175201,-45,-3,225,1
175211,-6,16,216,0
175222,-25,-31,282,0
175233,-14,-73,285,0
175244,-28,-15,259,0
175255,-41,-5,255,0
175266,-25,12,286,0
175277,2,-12,307,0
175288,25,-24,315,0
175299,44,-4,318,0
175310,70,10,311,0
175321,102,14,296,0
175332,142,14,238,0
175343,145,7,198,0
175354,147,5,178,0
175365,142,10,169,0
175377,125,16,170,0
175387,95,15,188,0
175398,67,11,210,0
175409,41,10,236,0
175420,11,11,253,0
175431,-15,18,266,0
175442,-29,20,271,0
175453,-34,16,264,0
175464,-28,15,256,0
175475,-19,16,253,0
175486,-8,9,242,0
175497,10,11,225,0
175508,24,6,220,0
175519,30,10,218,0
175531,36,3,211,0
175541,44,2,206,0
175552,47,3,200,0
175563,43,-2,188,0
175574,41,-2,185,0
175585,41,1,187,0
175596,37,6,191,0
175607,28,4,192,0
175618,21,4,192,0
175629,17,1,197,0
175640,12,-2,201,0
175652,7,-4,203,0
175662,2,-3,205,0
175673,-1,-3,202,0
175684,-6,0,201,0
175695,-13,0,201,0
175706,-19,4,209,0
175717,-23,7,215,0
175728,-29,14,217,0
175739,-32,18,222,0
175750,-31,16,225,0
175761,-29,21,234,0
175772,-25,24,246,0
175783,-29,41,256,0
175794,-34,34,257,0
175805,-29,10,263,0
175816,-22,-2,263,0
175827,-14,-1,267,0
175839,-23,-6,259,1
175849,-29,-2,272,0
175860,-22,-17,276,0
175871,29,-24,323,0
175882,59,19,382,0
175893,70,16,351,0
175904,91,-1,333,0
175916,112,-24,328,0
175927,143,-6,369,0
175937,136,14,364,0
175948,98,2,295,0
175959,68,-19,230,0
175970,40,-32,190,0
175981,18,-54,169,0
175992,5,-61,154,0
176003,9,-60,156,0
176014,18,-52,164,0
176025,29,-37,170,0
176036,35,-22,172,0
176047,42,-8,186,0
176059,54,-2,199,0
176069,66,-2,205,0
176080,82,-2,210,0
176092,93,-7,207,0
176102,99,-11,204,0
176113,100,-11,210,0
176124,99,-14,216,0
176135,96,-15,219,0
176146,93,-13,216,0
176157,65,-13,205,0
176168,57,-9,207,0
176179,49,-7,215,0
176191,45,-2,215,0
176202,45,0,217,0
176212,46,4,223,0
176223,40,8,227,0
176234,37,7,226,0
176245,32,7,227,0
176256,33,2,226,0
176267,32,9,216,0
176278,31,6,214,0
176289,31,2,214,0
176300,33,3,214,0
176311,32,3,217,0
176322,26,3,223,0
176333,25,7,229,0
176344,26,8,233,0
176355,25,6,232,0
176366,21,6,231,0
176377,16,7,231,0
176388,14,6,231,0
176399,10,5,230,0
176410,10,1,230,0
176421,10,-3,224,0
176432,10,-4,222,0
176443,10,-12,215,0
176454,16,-15,209,0
176465,21,-7,217,0
176477,26,-2,226,0
176487,27,0,226,0
176498,22,1,227,0
176509,14,1,226,0
176520,5,0,229,0
176531,0,-2,226,0
176542,-6,-5,229,0
176553,-13,-3,233,0
176564,-18,0,240,0
176575,-21,-2,245,0
176586,-16,3,246,0
176598,5,6,235,1
176608,-1,-46,269,0
176619,19,-78,264,0
176631,20,-29,241,0
176641,5,-22,239,0
176652,9,-23,267,0
176663,19,-23,285,0
176674,30,3,302,0
176685,40,26,314,0
176696,58,30,321,0
176707,79,30,303,0
176718,96,29,266,0
176730,109,31,231,1
176740,115,20,200,0
176752,111,13,171,0
176762,102,4,146,0
176773,90,-3,143,0
176784,76,-8,157,0
176795,61,-10,182,0
176806,43,-6,206,0
176817,6,1,240,0
176828,-1,5,262,0
176839,-5,4,281,0
176850,-4,13,297,0
176861,-7,4,283,0
176872,-12,-11,255,0
176883,-4,-14,247,0
176894,5,-18,237,0
176905,7,-20,222,0
176917,14,-21,214,0
176927,18,-16,207,0
176938,20,-15,196,0
176949,20,-16,190,0
176960,23,-13,194,0
176971,29,-14,194,0
176982,29,-12,194,0
176993,26,-14,198,0
177004,21,-16,202,0
177015,15,-17,207,0
177027,12,-18,211,0
177037,3,-18,208,0
177048,-2,-19,212,0
177059,-7,-20,210,0
177070,-7,-27,206,0
177081,-6,-30,202,0
177092,-3,-28,203,0
177103,0,-26,208,0
177114,1,-28,209,0
177125,2,-26,216,0
177136,1,-17,222,0
177148,-6,-5,222,0
177158,-10,5,240,0
177169,-16,16,257,0
177180,-24,16,264,0
177191,-29,8,260,0
177202,-31,1,258,0
177213,-36,-7,256,0
177225,-43,-7,253,1
177235,-46,-12,253,0
177246,-31,-28,274,0
177257,4,-50,348,0
177268,20,-43,354,0
177279,17,-39,322,0
177291,10,-55,276,0
177302,17,-55,257,0
177312,59,-52,274,0
177323,55,-44,248,0
177334,60,-46,217,0
177345,60,-21,174,0
177356,42,-114,235,0
177367,87,-46,178,0
177378,80,3,187,0
177390,79,-40,180,0
177400,73,-17,188,0
177411,75,-13,192,0
177422,68,-13,193,0
177433,63,-12,207,0
177444,66,-18,217,0
177455,71,-14,228,0
177466,70,-15,227,0
177477,77,0,225,0
177488,72,-7,221,0
177499,61,-12,212,0
177510,46,-10,205,0
177521,35,-6,206,0
177532,25,0,213,0
177543,19,0,224,0
177554,22,1,228,0
177566,23,2,233,0
177577,23,3,233,0
177587,21,3,235,0
177598,19,1,233,0
177609,19,-1,230,0
177620,18,-1,226,0
177631,19,-3,223,0
177642,12,0,215,0
177653,11,-2,216,0
177664,10,-2,218,0
177675,9,0,221,0
177686,9,3,223,0
177697,8,3,225,0
177708,2,4,222,0
177719,-2,1,220,0
177731,-11,-1,219,0
177741,-18,2,221,0
177752,-18,0,232,0
177763,-19,2,230,0
177774,-19,-1,226,0
177785,-13,-1,224,0
177796,-8,0,227,0
177808,-10,4,228,0
177819,-12,7,233,0
177831,-11,13,236,0
177841,-12,16,234,0
177852,-15,13,233,0
177864,-19,14,230,0
177874,-20,12,225,0
177885,-22,6,221,0
177896,-23,3,214,0
177907,-24,-1,212,0
177918,-25,-11,209,0
177929,-27,-15,209,0
177940,-30,-19,211,0
177952,-33,-14,223,0
177963,-37,-14,234,0
177974,-37,-14,245,0
177985,-27,-9,245,0
177996,16,10,228,0
178008,-20,-32,289,1
178018,-10,-77,296,0
178029,-19,-8,256,0
178040,-31,12,246,0
178052,-15,-2,281,0
178062,8,-12,295,0
178073,25,-16,293,0
178084,37,-12,292,0
178095,59,-6,294,0
178106,104,16,294,0
178117,110,17,269,0
178128,111,10,229,0
178139,109,8,189,0
178150,106,4,159,0
178161,94,5,148,0
178172,81,6,160,0
178184,57,11,179,0
178194,27,13,198,0
178205,6,14,239,0
178216,-13,12,268,0
178227,-28,18,289,0
178238,-25,30,298,0
178249,-23,20,282,0
178260,-4,23,283,0
178271,36,21,260,0
178282,53,15,243,0
178293,63,8,226,0
178304,63,5,212,0
178315,60,2,201,0
178327,54,2,194,0
178337,43,3,196,0
178349,33,2,201,0
178360,25,1,198,0
178371,19,2,198,0
178382,18,0,202,0
178393,17,-1,203,0
178404,19,-1,207,0
178416,14,1,217,0
178427,9,1,221,0
178437,8,-4,232,0
178448,6,-7,233,0
178459,2,-6,226,0
178470,0,-5,220,0
178481,-1,-8,220,0
178492,0,-8,213,0
178503,0,-1,206,0
178514,1,1,200,0
178525,0,0,205,0
178536,-3,2,206,0
178547,-8,8,210,0
178558,-12,8,215,0
178569,-14,1,223,0
178580,-8,-5,228,0
178592,-2,-10,236,0
178602,1,-16,249,0
178613,2,-16,258,0
178624,2,-11,261,0
178635,2,-11,258,0
178646,1,-15,252,0
178657,6,-16,254,0
178668,57,20,295,0
178680,64,88,322,1
178691,72,63,306,0
178702,95,27,302,0
178712,92,5,289,0
178723,121,43,299,0
178734,113,92,338,0
178745,41,32,235,0
178756,28,-1,191,0
178767,15,-21,154,0
178778,10,-38,134,0
178789,10,-46,137,0
178800,11,-60,149,0
178811,7,-55,163,0
178822,4,-26,188,0
178833,16,10,219,0
178844,32,27,233,0
178855,59,31,239,0
178866,74,38,234,0
178877,88,44,227,0
178888,96,38,213,0
178899,100,27,204,0
178910,86,24,205,0
178921,69,20,211,0
178932,57,19,213,0
178943,47,22,215,0
178954,36,25,220,0
178965,32,22,223,0
178977,28,19,223,0
178987,23,13,223,0
178998,19,11,223,0
179009,18,9,222,0
179020,18,10,225,0
179031,16,4,228,0
179042,17,2,231,0
179053,20,0,229,0
179064,22,1,225,0
179075,31,-4,215,0
179086,35,-1,213,0
179097,35,0,213,0
179108,36,0,211,0
179119,36,0,209,0
179131,33,1,211,0
179141,33,9,221,0
179152,28,15,225,0
179163,23,16,231,0
179174,22,15,234,0
179185,20,12,232,0
179196,23,9,231,0
179207,26,12,235,0
179218,24,14,232,0
179229,23,10,230,0
179240,28,13,226,0
179252,30,12,225,0
179262,29,11,225,0
179273,24,14,221,0
179284,21,11,222,0
179295,20,12,224,0
179306,18,14,228,0
179317,16,16,231,0
179328,17,17,234,0
179339,17,19,236,0
179350,16,21,238,0
179361,16,26,238,0
179372,11,31,239,0
179383,9,31,239,0
179394,6,30,236,0
179405,0,27,232,0
179417,-2,25,230,0
179427,-6,27,231,0
179438,-10,28,231,0
179449,-13,31,232,0
179460,-17,35,235,0
179471,-21,39,235,0
179482,-21,46,236,0
179493,-3,48,228,0
179504,1,33,254,0
179515,5,11,274,0
179527,0,29,263,1
179537,-15,20,253,0
179548,-15,24,254,0
179559,-4,35,261,0
179570,23,24,282,0
179581,36,11,291,0
179592,47,2,296,0
179603,59,1,290,0
179614,66,-2,284,0
179625,70,-14,271,0
179636,71,-20,247,0
179647,67,-39,222,0
179658,72,-54,197,0
179669,80,-64,174,0
179680,87,-66,159,0
179692,85,-65,149,0
179702,83,-59,152,0
179713,80,-45,168,0
179724,80,-34,192,0
179735,82,-14,233,0
179746,76,-1,261,0
179757,88,24,293,0
179768,97,32,306,0
179779,84,35,291,0
179791,78,38,283,0
179802,72,34,276,0
179812,70,37,264,0
179823,62,38,254,0
179834,56,34,240,0
179845,49,27,227,0
179856,47,20,212,0
179867,44,20,198,0
179878,42,19,192,0
179889,42,16,189,0
179900,39,5,192,0
179911,34,3,191,0
179922,31,3,196,0
179933,28,1,199,0
179946,26,0,207,0
179956,20,0,201,0
179967,16,-1,207,0
179978,12,-4,209,0
179989,11,-6,210,0
180000,5,-1,212,0
180012,2,-1,207,0
180023,2,-2,209,0
180034,-1,-3,201,0
180045,0,-5,203,0
180056,-2,-5,203,0
180067,-4,-8,204,0
180078,-4,-10,207,0
180089,-1,-17,209,0
180100,3,-17,216,0
180111,1,-4,223,0
180122,0,-8,234,0
180133,2,-20,241,0
180144,8,-29,246,0
180155,17,-36,255,0
180166,26,-32,258,0
180177,29,-28,260,0
180189,5,-30,263,0
180200,5,-35,274,0
180211,45,-15,345,0
180222,37,22,351,0
180233,43,-12,319,0
180244,50,-34,304,0
180255,30,-25,302,0
180266,36,-33,308,0
180277,58,9,342,0
180288,46,18,326,0
180299,31,-2,279,0
180310,20,-16,251,0
180322,11,-15,223,1
180332,16,-28,198,0
180343,18,-40,169,0
180354,26,-33,161,0
180365,33,-20,166,0
180377,38,-11,171,0
180387,41,-3,174,0
180398,46,2,185,0
180409,56,6,205,0
180420,61,9,213,0
180431,66,14,217,0
180442,70,11,218,0
180453,78,5,219,0
180464,78,1,219,0
180475,73,1,214,0
180486,68,4,213,0
180497,66,2,213,0
180508,59,3,214,0
180519,51,3,213,0
180531,49,5,215,0
180541,40,7,218,0
180552,36,8,220,0
180563,28,7,220,0
180575,22,6,219,0
180586,16,3,219,0
180597,12,3,221,0
180608,7,3,224,0
180619,7,3,220,0
180631,7,4,216,0
180641,6,2,210,0
180652,4,3,210,0
180663,0,4,216,0
180674,-3,4,227,0
180685,-4,3,229,0
180696,-5,4,228,0
180707,-3,5,223,0
180718,-1,6,223,0
180729,-4,9,224,0
180740,0,12,225,0
180752,0,10,226,0
180762,4,4,221,0
180773,13,0,218,0
180784,17,-1,219,0
180795,17,-7,217,0
180806,18,-10,213,0
180817,19,-13,214,0
180828,20,-11,220,0
180839,23,-7,226,0
180850,20,-1,231,0
180861,16,1,232,0
180872,13,4,233,0
180883,5,8,233,0
180894,-1,9,234,0
180905,-9,8,237,0
180917,-19,15,237,0
180927,-29,24,238,0
180938,-36,28,245,0
180949,-29,25,241,0
180960,-5,17,258,0
180971,-17,-40,285,0
180983,-13,-47,275,1
180993,-39,-27,262,0
181004,-61,-4,286,0
181015,-54,-16,289,0
181027,-33,-27,286,0
181037,-7,-11,290,0
181048,21,2,301,0
181059,54,15,305,0
181070,93,31,294,0
181081,127,32,275,0
181092,159,23,262,0
181103,172,8,228,0
181114,170,-9,195,0
181125,165,-23,166,0
181136,151,-35,149,0
181148,131,-46,138,0
181158,112,-52,139,0
181169,70,-44,173,0
181180,54,-39,191,0
181192,38,-33,202,0
181202,23,-25,215,0
181213,16,-16,223,0
181224,8,-3,247,0
181235,4,3,267,0
181246,1,6,275,0
181257,1,8,273,0
181268,2,7,263,0
181279,5,2,252,0
181291,6,2,243,0
181302,10,0,233,0
181312,10,-7,222,0
181323,14,-9,217,0
181334,16,-12,216,0
181345,23,-11,215,0
181356,29,-9,222,0
181367,35,-10,216,0
181378,36,-5,207,0
181389,34,-2,202,0
181400,33,0,203,0
181411,33,-2,205,0
181422,34,-3,208,0
181433,35,-3,209,0
181444,30,0,211,0
181455,24,0,213,0
181466,16,-1,217,0
181477,8,-1,222,0
181488,3,-6,224,0
181499,-7,-1,232,0
181510,-15,1,233,0
181521,-19,5,243,0
181532,-23,7,249,0
181543,-24,10,246,0
181554,-26,17,238,0
181565,-26,20,237,0
181577,-20,14,240,0
181587,-12,8,234,0
181598,-7,8,233,0
181609,-1,11,225,0
181620,4,6,224,0
181631,12,5,228,0
181642,17,5,230,0
