timestamp,accX,accY,accZ,step
469385,28,-23,226,0
469395,26,-22,228,0
469406,29,-22,230,0
469417,28,-21,229,0
469428,28,-20,230,0
469439,27,-20,230,0
469450,27,-18,231,0
469460,27,-19,230,0
469471,25,-19,229,0
469482,24,-19,228,0
469492,24,-18,230,0
469503,25,-19,232,0
469514,27,-17,229,0
469525,29,-20,230,0
469535,29,-17,231,0
469546,25,-17,230,0
469557,28,-19,229,0
469568,31,-20,228,0
469578,32,-18,229,0
469589,31,-18,230,0
469599,32,-17,230,0
469610,29,-18,229,0
469622,28,-20,225,0
469633,26,-20,225,0
469644,27,-20,229,0
469655,25,-18,230,0
469666,26,-18,231,0
469678,28,-18,233,0
469688,25,-19,233,0
469699,25,-22,231,0
469710,24,-22,230,0
469721,24,-23,229,0
469732,22,-23,228,0
469743,22,-23,227,0
469754,23,-21,228,0
469765,24,-20,229,0
469776,23,-21,230,0
469787,23,-22,233,0
469798,21,-24,231,0
469809,18,-23,228,0
469820,15,-23,228,0
469831,15,-25,229,0
469842,16,-26,231,0
469853,15,-24,231,0
469864,15,-21,233,0
469875,15,-23,232,0
469886,11,-24,233,0
469897,10,-23,231,0
469908,7,-24,229,0
469919,5,-24,228,0
469930,2,-22,229,0
469941,1,-21,233,0
469953,1,-20,234,0
469963,2,-20,234,0
469974,6,-21,233,0
469985,7,-21,233,0
469996,5,-21,227,0
470007,2,-18,225,0
470018,3,-17,224,0
470029,2,-17,227,0
470040,3,-16,229,0
470051,2,-17,233,0
470062,5,-17,235,0
470073,8,-19,234,0
470084,10,-18,233,0
470095,12,-19,232,0
470106,13,-20,225,0
470117,11,-20,223,0
470128,11,-20,224,0
470139,13,-20,226,0
470150,17,-19,228,0
470161,20,-18,230,0
470173,23,-20,232,0
470183,27,-20,230,0
470194,28,-21,230,0
470205,29,-26,227,0
470216,28,-26,226,0
470228,27,-22,222,0
470238,28,-24,226,0
470249,30,-27,226,0
470260,29,-29,226,0
470271,33,-22,225,0
470282,33,-24,229,0
470293,33,-26,229,0
470304,35,-25,227,0
470315,40,-22,224,0
470326,45,-22,224,0
470337,48,-24,225,0
470348,50,-24,223,0
470359,52,-16,219,0
470370,50,-17,222,0
470381,46,-25,226,0
470392,47,-22,224,0
470403,46,-21,224,0
470414,40,-26,226,0
470425,39,-27,226,0
470436,36,-28,221,0
470447,34,-23,222,0
470458,33,-19,223,0
470469,30,-14,224,0
470480,33,-12,226,0
470492,35,-13,226,0
470502,34,-12,226,0
470513,36,-7,226,0
470525,33,-4,228,0
470535,32,-2,231,0
470546,30,-2,229,0
470557,26,-3,232,0
470568,23,-4,229,0
470579,20,-3,230,0
470591,22,-1,231,0
470601,20,1,230,0
470612,16,3,228,0
470623,11,1,225,0
470634,7,2,226,0
470645,4,5,230,0
470656,1,4,233,0
470667,0,1,231,0
470678,0,2,234,0
470689,-1,1,232,0
470700,-2,4,231,0
470711,-2,4,231,0
470722,0,8,230,0
470733,-1,13,230,0
470744,-3,11,231,0
470755,0,7,229,0
470766,-2,3,228,0
470777,-2,3,227,0
470788,-1,3,224,0
470799,0,4,225,0
470810,0,8,228,0
470821,0,10,229,0
470832,-1,10,233,0
470843,-2,10,230,0
470854,-1,12,234,0
470865,0,15,235,0
470876,0,15,232,0
470887,1,14,231,0
470898,1,14,231,0
470909,3,13,228,0
470920,5,12,227,0
470931,8,15,225,0
470942,10,15,225,0
470953,9,17,229,0
470964,10,15,228,0
470975,10,15,228,0
470987,10,15,228,0
470997,11,15,229,0
471008,11,15,228,0
471019,13,15,225,0
471030,15,20,224,0
471041,15,21,227,0
471052,16,23,230,0
471063,14,30,231,0
471074,8,29,229,0
471085,1,30,229,0
471096,-13,35,230,0
471107,-25,37,234,0
471118,-34,38,241,0
471129,-36,38,240,0
471140,-37,45,244,0
471151,-34,50,248,0
471163,-37,59,247,1
471173,-40,60,250,0
471184,-35,59,248,0
471195,-13,57,232,0
471206,6,51,245,0
471217,-6,5,284,0
471228,-7,20,287,0
471239,-33,21,269,0
471250,-38,2,265,0
471261,-11,29,266,0
471272,27,28,308,0
471283,33,21,315,0
471294,45,8,309,0
471305,59,8,298,0
471316,70,13,282,0
471328,80,13,260,0
471338,89,7,238,0
471349,96,-3,219,0
471360,101,-14,201,0
471371,103,-16,184,0
471382,100,-11,172,0
471393,87,-10,165,0
471404,72,-15,165,0
471416,61,-18,175,0
471426,51,-17,187,0
471437,37,-10,212,0
471448,37,-9,227,0
471459,41,-9,237,0
471470,45,-7,237,0
471481,46,-6,238,0
471492,48,-9,238,0
471503,49,-8,238,0
471514,45,-9,237,0
471525,43,-7,229,0
471536,38,-3,221,0
471547,35,-4,210,0
471558,32,-3,203,0
471569,30,-1,199,0
471580,30,2,204,0
471592,22,5,204,0
471603,18,1,216,0
471613,19,0,217,0
471624,18,-2,218,0
471635,16,-8,220,0
471646,13,-12,225,0
471657,11,-12,225,0
471669,11,-6,219,0
471679,6,-5,209,0
471691,4,-6,197,0
471701,2,-3,191,0
471712,0,1,193,0
471723,-1,-4,195,0
471734,0,-6,196,0
471745,-1,-4,193,0
471756,-9,-3,196,0
471767,-27,-3,210,0
471778,-33,-2,219,0
471789,-38,4,224,0
471800,-45,6,227,0
471811,-50,4,229,0
471822,-47,-2,237,0
471833,-35,-6,250,0
471844,-28,-7,263,0
471855,-28,-12,268,0
471866,-25,-12,268,0
471877,-25,0,272,0
471888,-29,5,273,0
471899,-29,-1,281,0
471911,15,-24,336,1
471921,66,11,423,0
471932,67,-9,383,0
471943,55,0,317,0
471954,48,-9,285,0
471965,87,-24,338,0
471976,62,-32,297,0
471988,61,-32,236,0
471998,60,-64,192,0
472009,47,-52,169,0
472021,56,-58,153,0
472031,56,-51,142,0
472042,57,-48,137,0
472053,46,-37,135,0
472064,36,-36,141,0
472075,29,-24,156,0
472086,34,-14,178,0
472097,62,-3,206,0
472108,77,-6,211,0
472119,82,-5,215,0
472130,84,-8,217,0
472141,79,-9,217,0
472152,73,-6,217,0
472163,61,-12,209,0
472174,49,-12,208,0
472185,40,-12,205,0
472196,36,-8,207,0
472207,26,-3,206,0
472218,29,-5,213,0
472229,30,-7,214,0
472240,33,-7,213,0
472251,31,-8,211,0
472262,23,-9,208,0
472273,20,-8,205,0
472284,22,-6,203,0
472295,17,-2,206,0
472307,13,0,212,0
472317,8,1,218,0
472328,9,1,225,0
472341,4,1,229,0
472353,1,3,232,0
472363,-1,6,233,0
472374,-3,7,233,0
472385,-4,8,234,0
472396,-2,5,227,0
472407,0,3,224,0
472418,3,0,221,0
472429,8,-5,217,0
472440,14,-13,219,0
472451,15,-14,220,0
472462,19,-13,224,0
472473,19,-6,227,0
472484,16,1,233,0
472495,10,10,237,0
472506,0,24,235,0
472517,-18,28,233,0
472528,-32,26,237,0
472539,-46,21,234,0
472551,-61,16,232,1
472561,-39,19,207,0
472572,-37,-2,264,0
472583,-34,-49,291,0
472594,-17,-20,283,0
472605,-22,-9,283,0
472616,1,13,298,0
472627,15,12,318,0
472638,41,-24,332,0
472649,71,-27,332,0
472660,102,-14,308,0
472671,128,-8,280,0
472682,148,-15,254,0
472693,161,-7,232,0
472704,160,0,224,0
472715,157,5,210,0
472726,125,15,204,0
472737,96,3,204,0
472748,67,-1,207,0
472759,41,6,212,0
472770,6,6,215,0
472781,-28,3,223,0
472792,-43,2,237,0
472803,-46,-3,235,0
472814,-39,-6,234,0
472825,-19,-11,234,0
472836,0,-11,227,0
472847,9,-3,220,0
472858,16,3,209,0
472870,22,5,195,0
472880,32,3,186,0
472892,35,5,187,0
472902,33,-2,185,0
472913,38,-2,195,0
472924,39,-2,207,0
472935,34,-7,204,0
472946,30,-5,211,0
472957,22,-3,217,0
472968,16,-3,220,0
472979,13,-4,226,0
472991,10,-6,226,0
473001,5,-5,225,0
473012,-2,0,227,0
473023,-10,0,226,0
473035,-15,0,228,0
473046,-27,-1,223,0
473057,-31,1,219,0
473068,-33,1,223,0
473079,-30,3,229,0
473091,-25,9,234,0
473101,-26,19,242,0
473112,-31,18,250,0
473123,-32,9,249,0
473134,-32,3,250,0
473145,-31,0,249,0
473156,-27,-3,250,0
473167,-26,-6,246,0
473178,-27,-15,246,0
473189,-25,-23,248,0
473200,-28,-23,253,0
473211,-38,-2,257,0
473222,-39,-9,265,0
473233,14,-21,330,0
473244,30,26,372,0
473256,20,5,332,1
473266,45,-27,298,0
473277,35,-6,271,0
473288,40,-9,251,0
473299,80,-12,281,0
473310,86,-26,276,0
473321,73,-1,250,0
473332,79,-19,237,0
473343,85,-29,210,0
473354,79,-16,188,0
473365,80,-27,168,0
473377,54,-36,153,1
473387,38,-37,166,0
473398,27,-30,175,0
473409,27,-25,185,0
473420,41,-25,196,0
473431,63,-25,210,0
473442,71,-23,221,0
473453,76,-24,222,0
473464,70,-12,221,0
473475,66,-10,216,0
473486,58,-8,214,0
473497,44,-5,213,0
473508,32,-7,208,0
473519,24,-8,208,0
473530,17,-4,217,0
473541,7,8,224,0
473553,10,7,225,0
473563,9,1,219,0
473574,5,0,215,0
473585,6,0,215,0
473596,1,2,213,0
473607,0,6,212,0
473618,1,5,210,0
473629,1,3,211,0
473641,-1,2,214,0
473651,-8,3,218,0
473662,-18,2,229,0
473673,-28,0,233,0
473684,-29,-3,234,0
473695,-29,-7,232,0
473706,-18,-11,224,0
473717,-10,-16,219,0
473728,0,-15,217,0
473739,3,-12,211,0
473750,8,-11,210,0
473761,12,-11,205,0
473772,15,-9,207,0
473783,12,-5,207,0
473794,8,-1,209,0
473805,3,2,212,0
473816,1,5,217,0
473828,-8,6,221,0
473838,-15,7,221,0
473849,-23,9,222,0
473860,-32,8,220,0
473871,-45,-1,227,0
473882,-50,-6,229,0
473893,-57,-1,239,0
473904,-67,0,242,0
473916,-73,2,246,0
473926,-75,6,246,0
473937,-31,14,218,0
473949,-40,0,283,1
473959,-40,-57,304,0
473970,-14,-21,289,0
473981,-37,-24,277,0
473993,-35,-11,303,0
474003,-17,-12,326,0
474014,11,-8,330,0
474025,23,1,334,0
474036,92,36,308,0
474047,121,49,281,0
474058,146,43,253,0
474070,158,45,218,0
474080,160,39,188,0
474092,155,25,165,0
474103,144,14,153,0
474113,126,6,145,0
474124,104,2,155,0
474135,82,1,174,0
474146,55,0,189,0
474157,30,0,204,0
474168,15,2,230,0
474179,5,5,249,0
474191,4,2,251,0
474201,10,1,242,0
474212,9,6,235,0
474223,6,11,233,0
474234,9,18,238,0
474245,8,18,237,0
474256,12,19,235,0
474267,21,12,229,0
474278,30,8,223,0
474289,36,1,214,0
474300,41,0,213,0
474311,35,0,201,0
474322,31,1,204,0
474333,28,4,206,0
474344,25,4,211,0
474355,20,3,213,0
474366,12,-5,212,0
474378,13,4,211,0
474388,8,-4,205,0
474399,3,-3,209,0
474410,-1,1,216,0
474421,3,13,225,0
474432,17,7,210,0
474443,8,33,195,0
474454,-3,30,191,0
474465,-1,18,206,0
474476,0,9,213,0
474487,0,2,220,0
474498,-2,5,226,0
474509,-6,10,234,0
474521,-10,13,247,0
474531,-7,1,248,0
474542,-8,-4,252,0
474553,-5,-8,250,0
474564,-9,-6,247,0
474575,-18,-2,244,0
474586,-12,-6,247,0
474598,59,15,321,1
474608,38,61,357,0
474619,43,42,357,0
474630,86,-4,366,0
474641,74,0,302,0
474653,97,9,328,0
474663,79,0,367,0
474674,66,3,318,0
474685,55,-32,267,0
474696,35,-46,188,0
474707,27,-44,158,0
474718,19,-39,140,0
474729,12,-30,133,0
474740,23,-6,142,0
474751,32,10,156,0
474762,39,19,169,0
474773,51,25,186,0
474784,71,21,198,0
474795,89,21,204,0
474806,102,20,209,0
474817,109,15,214,0
474828,104,5,215,0
474839,90,2,209,0
474850,74,-3,199,0
474861,58,2,197,0
474872,30,5,212,0
474883,26,3,218,0
474894,25,3,225,0
474905,19,6,228,0
474917,13,3,233,0
474928,11,3,233,0
474938,9,4,230,0
474949,9,2,223,0
474960,6,3,214,0
474971,6,6,208,0
474982,8,4,204,0
474993,10,4,206,0
475004,11,5,211,0
475015,17,10,220,0
475026,16,15,226,0
475037,14,22,231,0
475048,14,26,230,0
475059,13,30,230,0
475070,13,30,227,0
475081,16,32,222,0
475092,19,30,219,0
475103,22,28,217,0
475114,24,24,219,0
475125,24,16,226,0
475136,26,9,230,0
475147,30,3,235,0
475158,32,0,239,0
475170,32,2,242,0
475180,32,5,246,0
475192,29,19,254,0
475203,19,18,253,0
475213,9,19,243,0
475224,-5,27,228,0
475235,-21,29,213,0
475247,-35,29,209,0
475257,-38,34,210,0
475268,-5,48,203,0
475280,1,45,255,0
475291,11,1,289,1
475301,3,6,298,0
475312,-10,13,282,0
475323,-7,39,295,0
475334,-2,41,314,0
475345,5,11,314,0
475356,4,1,304,0
475367,54,1,269,0
475379,89,-1,250,0
475389,121,-3,235,0
475400,137,-8,217,0
475411,148,-16,198,0
475422,152,-4,193,0
475433,143,1,187,0
475444,131,5,190,0
475455,113,6,187,0
475466,92,3,183,0
475478,76,4,189,0
475488,63,6,202,0
475499,46,5,221,0
475510,31,6,241,0
475521,16,7,256,0
475532,15,3,262,0
475543,19,7,253,0
475554,23,5,239,0
475565,24,4,225,0
475576,26,5,214,0
475587,30,5,207,0
475598,31,12,210,0
475609,35,4,209,0
475620,43,3,216,0
475631,46,1,214,0
475642,49,1,215,0
475653,50,2,220,0
475664,51,3,218,0
475675,49,3,214,0
475686,42,1,213,0
475698,35,4,216,0
475709,21,7,214,0
475720,8,8,210,0
475731,-1,7,209,0
475742,-10,7,210,0
475753,-14,1,212,0
475764,-17,0,209,0
475775,-17,8,214,0
475787,-18,5,211,0
475798,-10,13,212,0
475809,-5,11,211,0
475820,4,19,208,0
475831,13,24,206,0
475842,3,19,214,0
475853,0,7,228,0
475864,0,-1,231,0
475875,-5,-7,225,0
475886,-14,-3,228,0
475897,-21,1,236,0
475908,-25,1,251,0
475919,-23,-1,259,0
475931,-20,4,257,1
475941,-28,17,254,0
475953,-23,19,267,0
475963,54,5,369,0
475974,75,87,428,0
475985,45,55,396,0
475997,63,-13,275,0
476008,68,-4,306,0
476019,74,-25,337,0
476030,74,-17,303,0
476041,70,-25,274,0
476053,61,-43,232,0
476063,44,-27,198,0
476074,41,-40,160,0
476086,42,-40,141,0
476096,41,-33,134,0
476107,31,-29,135,0
476118,27,-29,149,0
476129,31,-20,163,0
476140,37,-15,179,0
476151,66,-16,206,0
476162,83,-11,222,0
476173,94,-8,233,0
476185,92,-10,227,0
476195,74,-14,217,0
476206,61,-21,204,0
476217,49,-21,200,0
476228,40,-16,201,0
476239,33,-10,205,0
476250,22,-4,209,0
476261,17,-3,216,0
476272,11,-2,222,0
476283,12,0,223,0
476294,15,-2,216,0
476305,6,-3,210,0
476316,7,-3,206,0
476328,9,-2,204,0
476338,10,-3,203,0
476350,10,-4,208,0
476361,10,-6,211,0
476372,9,-7,216,0
476383,3,-5,221,0
476394,3,-2,223,0
476405,1,1,229,0
476417,-1,7,233,0
476428,-1,11,234,0
476438,1,9,236,0
476449,3,8,232,0
476460,5,-3,220,0
476471,6,-14,214,0
476482,8,-20,211,0
476493,14,-22,208,0
476504,20,-24,212,0
476515,24,-20,216,0
476526,27,-14,221,0
476537,25,-1,227,0
476548,21,7,230,0
476559,14,7,233,0
476570,5,3,233,0
476581,0,8,235,0
476592,-9,14,237,0
476603,-24,10,240,0
476614,-33,6,243,0
476626,-16,15,239,1
476636,-2,16,273,0
476647,-18,-44,305,0
476658,-4,-24,295,0
476670,-22,-8,280,0
476680,-30,-5,277,0
476692,-9,27,279,0
476703,8,15,281,0
476713,34,-26,283,0
476724,58,-23,276,0
476735,77,-14,269,0
476746,107,-13,263,0
476757,129,-9,240,0
476768,144,-4,209,0
476779,146,0,189,0
476791,126,6,172,0
476801,112,5,177,0
476812,93,3,187,0
476823,70,7,195,0
476834,50,13,215,0
476845,25,16,235,0
476856,-1,16,255,0
476867,-19,15,278,0
476878,-28,17,287,0
476889,-27,12,278,0
476900,-21,10,268,0
476911,-19,6,254,0
476922,-19,2,242,0
476933,-16,4,233,0
476944,-7,6,231,0
476955,9,1,219,0
476966,18,-2,209,0
476978,25,-1,204,0
476988,29,-1,198,0
477000,34,1,201,0
477010,34,-5,209,0
477021,37,-3,214,0
477032,39,0,208,0
477043,34,-2,206,0
477054,30,-11,206,0
477065,27,-1,208,0
477076,22,-5,204,0
477088,15,-5,196,0
477099,8,-4,192,0
477110,-2,-11,195,0
477121,-2,-12,197,0
477132,-7,-11,196,0
477143,-12,-5,199,0
477154,-14,-1,207,0
477165,-17,4,219,0
477176,-17,16,228,0
477187,-23,26,235,0
477198,-26,26,244,0
477209,-27,18,253,0
477220,-24,7,257,0
477231,-21,-1,260,0
477242,-17,-10,264,0
477253,-16,-12,261,0
477264,-19,-6,255,0
477275,-35,-8,247,0
477287,-43,-11,250,1
477297,-41,-17,259,0
477308,22,-23,348,0
477319,27,47,372,0
477330,26,15,335,0
477341,57,-37,321,0
477353,54,-20,287,0
477363,60,-14,273,0
477374,103,-8,333,0
477385,101,3,332,0
477396,72,6,286,0
477407,75,-10,232,0
477418,56,-15,193,0
477429,37,-28,169,0
477440,42,-34,142,0
477451,38,-31,142,0
477462,42,-25,148,0
477473,40,-19,157,0
477484,37,-13,175,0
477495,40,-14,196,0
477506,44,-11,215,0
477517,55,-8,230,0
477528,61,-11,231,0
477539,64,-14,228,0
477550,64,-22,227,0
477561,59,-18,227,0
477572,50,-18,220,0
477583,42,-18,217,0
477594,32,-14,217,0
477605,16,-11,221,0
477616,16,-8,221,0
477628,17,-1,219,0
477638,19,0,216,0
477649,16,0,220,0
477660,15,1,220,0
477671,15,0,220,0
477682,17,-2,219,0
477693,15,-1,217,0
477704,13,0,216,0
477715,12,1,217,0
477726,4,1,216,0
477737,1,-3,224,0
477748,-5,-6,226,0
477759,-12,-4,232,0
477770,-21,-2,229,0
477781,-19,-1,228,0
477792,-16,-2,226,0
477803,-14,-1,224,0
477814,-9,-1,221,0
477825,-5,-3,220,0
477836,0,-5,216,0
477847,5,-6,216,0
477858,10,-8,216,0
477870,11,-11,218,0
477880,14,-16,216,0
477892,17,-19,213,0
477903,17,-20,211,0
477913,17,-19,210,0
477924,17,-12,215,0
477935,12,-5,223,0
477946,5,-6,225,0
477957,1,-9,225,0
477969,-4,-7,223,1
477979,-14,0,222,0
477991,-23,5,221,0
478002,-32,7,225,0
478012,-31,8,228,0
478023,-8,14,225,0
478034,1,11,267,0
478045,5,-27,279,0
478056,11,-24,274,0
478067,-1,-2,277,0
478078,-21,1,297,0
478089,-35,-26,311,0
478100,-17,-24,300,0
478111,-4,0,299,0
478122,16,13,293,0
478133,49,27,286,0
478144,72,37,271,0
478155,96,35,250,0
478166,117,28,218,0
478178,136,23,186,0
478188,135,5,152,0
478199,131,-11,125,0
478211,123,-19,122,0
478221,104,-19,129,0
478232,77,-14,144,0
478243,54,-3,173,0
478254,32,-1,197,0
478265,-7,-1,250,0
478276,-22,10,281,0
478287,-27,15,301,0
478298,-22,23,303,0
478309,-13,16,284,0
478320,-8,14,271,0
478331,-1,14,261,0
478342,5,16,251,0
478353,10,20,248,0
478364,14,19,245,0
478375,24,17,236,0
478386,30,19,231,0
478397,36,18,225,0
478408,37,15,218,0
478419,32,20,215,0
478430,18,23,218,0
478441,10,24,213,0
478453,4,25,214,0
478463,5,27,215,0
478474,4,26,212,0
478485,5,31,215,0
478496,6,33,211,0
478507,7,34,209,0
478518,6,37,210,0
478529,7,43,209,0
478540,10,46,210,0
478551,13,48,213,0
478562,16,50,217,0
478573,14,31,226,0
478584,20,37,225,0
478595,17,44,215,0
478606,17,44,231,0
478617,23,44,244,0
478628,22,40,255,0
478639,23,37,256,0
478650,36,44,243,0
478661,43,37,229,0
478672,54,23,233,0
478683,65,15,239,0
478694,69,8,238,0
478705,77,6,243,0
478716,79,9,233,0
478728,77,11,215,0
478738,64,10,201,0
478750,46,7,203,1
478760,47,33,232,0
478771,38,95,292,0
478782,6,91,271,0
478793,34,68,262,0
478804,48,48,246,0
478815,73,74,253,0
478826,69,125,295,0
478837,65,119,287,0
478848,72,57,273,0
478859,75,14,238,0
478870,82,12,208,0
478882,88,13,205,1
478893,89,12,205,0
478903,86,16,202,0
478914,83,16,194,0
478925,92,19,196,0
478936,85,33,207,0
478947,73,44,214,0
478958,68,50,215,0
478970,66,57,212,0
478980,66,56,205,0
478992,69,59,206,0
479003,75,58,203,0
479013,79,58,201,0
479024,82,58,204,0
479035,87,52,204,0
479046,85,53,204,0
479057,75,57,207,0
479068,68,55,212,0
479079,65,59,218,0
479091,59,59,221,0
479101,58,58,224,0
479112,58,51,224,0
479123,59,51,229,0
479134,60,52,238,0
479145,60,52,233,0
479156,58,58,225,0
479167,51,57,220,0
479178,49,56,217,0
479189,48,55,212,0
479200,49,54,210,0
479211,49,56,210,0
479222,49,58,210,0
479233,53,58,214,0
479244,53,58,215,0
479255,54,61,225,0
479266,56,61,229,0
479278,57,60,230,0
479288,56,60,232,0
479299,56,60,230,0
479310,55,60,227,0
479321,54,58,224,0
479332,53,54,222,0
479343,50,52,220,0
479354,48,50,218,0
479365,49,49,216,0
479376,48,51,219,0
479387,46,51,221,0
479398,48,51,223,0
479409,49,48,224,0
479420,49,55,226,0
479431,46,52,228,0
479442,43,49,227,0
479454,38,54,227,0
479464,37,54,224,0
479475,35,55,220,0
479486,32,56,220,0
479497,29,60,221,0
479508,25,61,222,0
479519,22,61,221,0
479530,18,62,223,0
479541,13,63,224,0
479553,8,63,223,0
479563,4,64,222,0
479574,1,67,222,0
479586,-3,66,221,1
479596,-3,67,223,0
479607,1,67,218,0
479618,20,74,213,0
479629,45,71,209,0
479640,40,72,207,0
479651,35,44,194,0
479662,31,1,193,0
479673,23,-6,217,0
479684,10,23,255,0
479695,9,62,293,0
479706,25,88,321,0
479717,51,92,328,0
479728,71,88,323,0
479739,85,79,310,0
479750,103,37,251,0
479761,104,23,231,0
479773,98,12,215,0
479783,91,3,207,0
479794,81,1,204,0
479805,71,-2,202,0
479816,60,-10,205,0
479828,47,-11,218,0
479838,34,-3,234,0
479849,25,4,246,0
479860,26,2,251,0
479871,35,1,255,0
479882,49,3,256,0
479893,64,3,251,0
479904,77,1,241,0
479916,97,-2,213,0
479926,97,-8,200,0
479937,91,-15,191,0
479948,85,-16,187,0
479959,71,-18,182,0
479970,63,-12,182,0
479981,54,-2,190,0
479993,46,5,198,0
480003,43,9,209,0
480014,44,6,213,0
480026,37,3,213,0
480036,29,2,213,0
480047,27,4,222,0
480058,24,4,225,0
480070,21,3,227,0
480080,10,11,229,0
480092,8,15,228,0
480103,4,17,224,0
480113,-1,21,222,0
480124,-5,21,224,0
480135,-11,23,225,0
480146,-13,23,226,0
480157,-11,26,226,0
480168,-10,26,225,0
480179,-13,21,223,0
480191,-7,26,222,0
480201,-5,28,219,0
480212,-8,18,219,0
480223,-2,11,204,0
480235,1,19,201,0
480245,0,19,203,0
480256,-1,2,213,0
480267,-2,1,214,0
480278,-9,6,219,0
480289,-16,10,227,0
480300,-18,14,236,0
480311,-18,22,246,0
480322,-19,26,256,0
480333,-25,21,263,0
480344,-27,24,263,0
480356,-30,32,258,1
480366,0,31,287,0
480378,74,24,384,0
480388,64,90,383,0
480399,46,13,379,0
480410,53,-22,321,0
480421,79,11,334,0
480432,58,-2,320,0
480443,61,-23,284,0
480454,53,-28,250,0
480465,39,-38,208,0
480476,33,-53,178,0
480488,41,-64,144,1
480499,39,-57,133,0
480509,37,-44,139,0
480520,32,-39,150,0
480531,27,-27,166,0
480542,32,-24,180,0
480553,40,-14,191,0
480564,52,-13,204,0
480575,70,-11,215,0
480586,94,-16,220,0
480597,94,-17,217,0
480608,87,-17,211,0
480619,72,-21,204,0
480630,56,-21,199,0
480641,48,-16,202,0
480653,39,-15,206,0
480663,36,-15,209,0
480674,35,-11,210,0
480685,31,-7,215,0
480696,32,-6,216,0
480707,27,-5,216,0
480718,23,-2,218,0
480729,26,-1,219,0
480740,28,-2,212,0
480751,22,0,205,0
480762,25,-1,204,0
480773,27,-3,207,0
480784,24,-3,214,0
480795,17,-7,219,0
480806,14,-7,226,0
480817,9,-5,228,0
480828,7,-5,228,0
480839,7,-3,227,0
480850,7,-1,228,0
480861,8,-2,225,0
480872,10,-5,222,0
480883,12,-7,219,0
480894,13,-7,216,0
480905,15,-9,215,0
480916,18,-8,216,0
480928,17,-6,218,0
480938,16,-5,220,0
480949,13,-2,219,0
480960,10,0,219,0
480971,6,5,220,0
480982,1,5,222,0
480993,-5,3,223,0
481004,-15,2,225,0
481015,-24,4,228,0
481026,-39,2,231,0
481037,-48,-1,239,0
481049,-56,1,243,1
481059,-44,12,238,0
481070,-4,41,247,0
481081,3,-29,298,0
481093,-10,-2,280,0
481103,-18,-15,281,0
481114,-2,20,295,0
481125,5,39,301,0
481136,21,3,314,0
481147,36,-11,318,0
481158,58,0,304,0
481170,85,3,280,0
481180,114,-3,243,0
481192,133,-10,203,0
481203,148,-6,182,0
481214,152,1,168,0
481225,151,8,167,0
481236,127,21,193,0
481247,108,15,209,0
481258,86,14,229,0
481270,48,10,239,0
481280,20,7,258,0
481292,2,13,277,0
481303,-8,20,283,0
481314,-8,20,279,0
481325,-6,10,266,0
481336,-3,8,254,0
481347,3,9,239,0
481358,8,11,226,0
481370,12,13,213,0
481380,21,3,198,0
481392,32,0,195,0
481403,31,2,193,0
481414,32,1,196,0
481425,38,4,201,0
481436,42,4,202,0
481447,45,3,201,0
481458,40,3,202,0
481470,35,6,201,0
481480,34,12,209,0
481491,27,7,205,0
481503,21,6,206,0
481513,16,2,205,0
481524,12,1,196,0
481535,1,-2,185,0
481547,-4,-3,186,0
481557,-10,0,192,0
481568,-16,-3,191,0
481579,-24,0,198,0
481591,-28,0,206,0
481601,-29,2,216,0
481612,-29,4,226,0
481623,-23,10,240,0
481634,-25,35,259,0
481645,-26,27,281,0
481656,-23,10,284,0
481667,-12,2,279,0
481678,-2,6,274,0
481689,-5,15,273,0
481700,-36,-7,277,0
481712,0,-39,318,1
481722,60,-3,441,0
481733,31,37,371,0
481744,39,-11,338,0
481755,34,-35,305,0
481766,47,-41,312,0
481778,84,-10,357,0
481788,58,27,309,0
481799,12,58,221,0
481810,21,-113,293,0
481821,40,-25,178,0
481832,41,-13,172,0
481843,44,-44,139,0
481854,48,-19,150,0
481865,54,-11,158,0
481876,45,-16,158,0
481887,41,-23,165,0
481898,51,-18,181,0
481909,62,-18,192,0
481920,77,-21,200,0
481931,94,-26,206,0
481942,104,-28,206,0
481953,104,-22,212,0
481964,95,-13,213,0
481975,82,-7,210,0
481986,65,-10,202,0
481997,50,-10,198,0
482008,34,-7,203,0
482019,25,-2,211,0
482030,24,2,222,0
482041,30,2,227,0
482053,25,3,222,0
482063,16,1,219,0
482074,10,0,216,0
482085,4,0,213,0
482096,0,-1,208,0
482107,-2,-1,208,0
482118,-7,1,210,0
482129,-7,1,220,0
482140,-10,1,226,0
482151,-14,-1,230,0
482162,-14,1,236,0
482173,-10,2,240,0
482184,-6,0,237,0
482195,1,-7,225,0
482206,3,-9,217,0
482217,6,-8,216,0
482228,8,-7,216,0
482240,10,-8,215,0
482250,11,-7,215,0
482261,14,-8,212,0
482272,14,-4,212,0
482284,15,-2,211,0
482294,13,0,211,0
482305,11,0,213,0
482316,5,6,216,0
482328,-2,14,218,1
482338,-9,13,224,0
482349,-13,11,234,0
482360,-28,10,248,0
482372,-37,6,248,0
482382,-39,1,240,0
482393,1,4,209,0
482404,-11,-28,276,0
482416,-11,-59,289,0
482426,-2,-16,263,0
482437,-8,-17,259,0
482448,8,10,269,0
482459,5,20,286,0
482470,7,-29,288,0
482481,25,-47,296,0
482493,45,-23,299,0
482503,68,-10,297,0
482514,107,6,294,0
482525,138,9,230,0
482536,145,4,195,0
482547,140,2,172,0
482558,134,1,167,0
482570,123,4,173,0
482580,103,3,188,0
482591,80,0,199,0
482603,62,0,204,0
482613,39,7,219,0
482624,10,14,244,0
482635,-5,20,271,0
482646,-15,21,284,0
482657,-16,18,293,0
482668,-7,8,285,0
482679,-4,4,263,0
482691,1,1,225,0
482701,4,1,207,0
482712,9,7,202,0
482723,13,4,202,0
482734,17,3,205,0
482745,29,1,203,0
482756,37,1,201,0
482767,42,2,201,0
482778,44,2,200,0
482789,46,3,203,0
482800,40,1,204,0
482811,32,-1,202,0
482822,27,-1,205,0
482833,18,-4,209,0
482844,11,-7,209,0
482855,3,-9,202,0
482866,-9,-11,205,0
482878,-11,-11,205,0
482888,-13,-15,204,0
482899,-8,-7,204,0
482911,-10,3,205,0
482921,-14,-3,205,0
482932,-17,0,211,0
482943,-21,3,221,0
482954,-23,3,231,0
482965,-25,6,242,0
482977,-32,11,248,0
482987,-34,23,264,0
482998,-53,45,260,0
483009,-64,30,256,0
483020,-65,13,255,0
483031,-44,-5,257,0
483042,-37,-7,258,0
483053,-37,-11,262,0
483064,-38,-18,262,0
483076,-11,-27,287,1
483086,35,-34,361,0
483097,59,-7,363,0
483108,74,4,328,0
483119,74,-10,297,0
483130,85,-18,289,0
483141,124,-16,335,0
483153,141,19,340,0
483163,126,22,293,0
483174,115,15,249,0
483185,92,17,212,0
483196,65,-100,231,0
483207,81,-26,106,0
483218,71,-5,135,0
483229,75,-37,126,0
483240,59,-36,130,0
483251,56,-39,147,0
483262,56,-40,164,0
483273,59,-32,187,0
483284,69,-18,208,0
483295,84,-14,225,0
483306,99,-10,240,0
483317,102,-8,248,0
483328,95,-2,250,0
483339,78,-1,245,0
483350,59,-4,234,0
483361,35,-1,220,0
483372,39,-1,215,0
483383,41,-5,210,0
483394,39,-1,212,0
483405,32,-9,217,0
483417,30,-5,216,0
483428,30,3,213,0
483438,27,2,215,0
483449,18,10,215,0
483460,10,19,218,0
483471,5,22,220,0
483482,2,24,224,0
483493,0,23,230,0
483504,-1,21,235,0
483516,-10,21,242,0
483526,-14,22,243,0
483537,-15,17,241,0
483548,-12,12,233,0
483559,-10,10,227,0
483570,-7,9,222,0
483581,-1,5,214,0
483593,0,10,214,0
483603,11,11,223,0
483614,18,13,225,0
483625,23,10,221,0
483636,27,11,224,0
483647,33,13,223,0
483658,31,15,222,0
483670,27,14,227,0
483680,23,15,230,0
483691,6,8,227,0
483703,-1,0,224,0
483713,-6,-9,220,0
483724,-12,-12,218,0
483735,-19,-12,219,0
483746,-26,-15,220,0
483757,-29,-15,223,0
483768,-30,-17,224,0
483779,-31,-15,223,0
483791,-29,-15,225,0
483801,-29,-11,225,0
483812,-32,-9,227,0
483824,-39,-12,226,1
483834,-46,-19,225,0
483845,-52,-29,235,0
483856,-45,-41,246,0
483867,-31,-39,249,0
483878,29,-25,234,0
483889,55,17,279,0
483900,20,-52,334,0
483911,18,-60,313,0
483922,29,-44,295,0
483933,67,-10,319,0
483944,107,-2,322,0
483955,134,0,297,0
483966,153,-10,261,0
483978,169,-20,233,0
483988,173,-26,195,0
483999,171,-17,167,0
484010,160,5,156,0
484021,124,64,172,0
484032,111,79,209,0
484043,90,68,222,0
484055,64,67,237,0
484065,48,57,252,0
484076,29,48,250,0
484087,13,48,255,0
484098,1,40,258,0
484109,1,25,257,0
484120,4,18,252,0
484131,5,17,245,0
484142,10,12,231,0
484153,14,12,221,0
484164,15,17,222,0
484175,16,21,222,0
484186,19,21,226,0
484197,14,15,219,0
484208,11,8,207,0
484219,8,3,196,0
484230,10,1,190,0
484241,11,0,192,0
484253,12,-1,194,0
484263,9,-2,196,0
484274,6,-7,200,0
484286,4,-10,205,0
484297,-8,15,207,0
484308,-24,-3,213,0
484319,-25,-6,213,0
484330,-28,1,216,0
484341,-34,6,216,0
484353,-30,5,213,0
484365,-28,1,210,0
484375,-28,-1,211,0
484386,-27,-3,214,0
484397,-24,-11,209,0
484408,-20,-9,204,0
484419,-19,2,195,0
484430,-27,8,203,0
484441,-31,-3,223,0
484453,-29,-13,225,0
484463,-28,-13,215,0
484474,-31,-3,207,0
484485,-38,-9,212,0
484496,-31,-14,219,0
484507,-32,4,230,0
484518,-38,0,251,0
484529,-40,-8,255,0
484540,-36,-5,256,0
484551,21,-28,300,0
484562,89,-3,421,0
484573,79,83,367,0
484585,90,-22,340,1
484595,120,-79,339,0
484606,150,-36,389,0
484617,125,36,395,0
484628,84,29,336,0
484639,39,39,255,0
484650,-17,11,204,0
484661,-21,-35,174,0
484672,-34,-47,132,0
484683,-20,-42,131,0
484694,5,-46,140,0
484705,25,-45,148,0
484716,39,-28,169,0
484728,59,-19,185,0
484738,74,-5,193,0
484749,88,1,204,0
484760,98,8,214,0
484771,103,9,217,0
484782,107,3,209,0
484793,106,0,208,0
484804,96,-4,212,0
484815,85,-2,217,0
484827,78,-6,220,0
484837,81,-15,215,0
484848,77,-22,204,0
484859,64,-26,199,0
484870,53,-23,199,0
484883,45,-20,206,0
484893,42,-16,209,0
484904,31,-10,217,0
484916,28,-5,226,0
484926,19,3,233,0
484937,17,9,236,0
484948,8,10,233,0
484959,4,10,231,0
484970,0,10,224,0
484981,1,8,219,0
484993,0,6,217,0
485003,0,4,220,0
485014,-1,4,219,0
485025,-1,3,224,0
485036,0,6,229,0
485047,0,4,231,0
485058,3,1,233,0
485070,6,-1,234,0
485080,6,-2,234,0
485092,11,-7,229,0
485103,14,-10,227,0
485113,14,-10,223,0
485124,14,-12,221,0
485135,10,-12,218,0
485146,11,-14,219,0
485157,8,-9,219,0
485168,6,-11,221,0
485179,3,-11,219,0
485191,0,-9,218,0
485201,-1,-9,215,0
485212,-6,-7,216,0
485224,-9,-7,220,1
485234,-14,-12,220,0
485245,-20,-17,221,0
485256,-29,-21,223,0
485267,-35,-23,223,0
485278,-36,-18,223,0
485289,-38,-9,224,0
485300,-7,13,217,0
485311,-13,-9,254,0
485323,-6,-58,260,1
485333,-2,-31,248,0
485344,-17,-2,247,0
485356,-10,9,272,0
485367,0,-10,302,0
485378,8,-26,309,0
485389,15,-13,310,0
485400,30,2,319,0
485411,55,12,322,0
485422,72,18,315,0
485434,86,27,292,0
485444,93,30,261,0
485455,98,26,201,0
485466,99,21,171,0
485478,97,18,146,0
485488,95,10,130,0
485499,89,6,128,0
485510,82,1,135,0
485521,81,-1,154,0
485532,76,0,176,0
485543,77,0,195,0
485554,73,3,227,0
485565,70,5,249,0
485576,74,8,269,0
485587,76,6,275,0
485598,73,7,275,0
485609,70,8,268,0
485620,65,7,254,0
485631,61,9,249,0
485642,52,8,238,0
485653,46,6,234,0
485664,42,7,233,0
485675,37,3,229,0
485686,31,2,231,0
485697,22,4,235,0
485708,13,9,241,0
485719,8,8,234,0
485730,0,4,219,0
485741,-9,8,213,0
485753,-10,5,208,0
485763,-10,9,209,0
485774,-11,9,206,0
485785,-6,8,203,0
485796,0,8,198,0
485807,2,5,194,0
485818,1,7,193,0
485829,0,5,193,0
485840,1,4,194,0
485851,-2,4,199,0
485862,-4,5,206,0
485873,-8,7,215,0
485884,-4,8,221,0
485895,-4,9,227,0
485906,-2,13,228,0
485917,-1,12,231,0
485928,-5,7,231,0
485939,-6,3,235,0
485950,-9,4,238,0
485961,-13,7,240,0
485972,-17,10,246,0
485983,-22,13,243,0
485994,-30,22,247,0
486005,-4,14,273,0
486017,54,23,377,1
486028,33,87,367,0
486038,31,31,365,0
486049,50,-20,322,0
486060,60,-23,314,0
486071,73,-10,355,0
486082,50,25,346,0
486093,38,9,294,0
486104,19,-32,242,0
486115,-3,-33,186,0
486126,-4,-60,159,0
486137,4,-60,154,0
486149,16,-59,153,0
486159,23,-44,157,0
486170,34,-34,166,0
486181,46,-18,176,0
486193,61,-5,188,0
486203,71,3,200,0
486214,76,8,209,0
486225,79,4,214,0
486236,83,1,222,0
486247,85,0,223,0
486258,80,-7,216,0
486270,71,-12,213,0
486280,62,-15,214,0
486292,61,-16,208,0
486303,47,-25,205,0
486313,40,-20,207,0
486324,38,-16,211,0
486335,30,-14,216,0
486347,27,-9,220,0
486358,33,-2,224,0
486370,32,-1,228,0
486380,30,-1,232,0
486392,27,-1,227,0
486403,26,-2,222,0
486413,24,-4,219,0
486424,24,-3,219,0
486435,23,-2,217,0
486446,21,-2,215,0
486457,16,0,218,0
486468,15,1,224,0
486479,12,2,227,0
486491,8,3,231,0
486503,6,5,231,0
486513,3,6,233,0
486524,3,6,234,0
486535,3,5,229,0
486546,2,4,225,0
486557,1,4,223,0
486568,1,4,220,0
486579,3,0,220,0
486591,3,-9,217,0
486601,4,-14,212,0
486612,4,-7,211,0
486623,6,-3,209,0
486634,10,-2,213,0
486645,12,2,217,0
486657,11,12,224,0
486668,5,17,226,0
486679,-8,17,230,0
486691,-24,16,225,0
486701,-29,17,214,0
486712,-8,16,195,0
486723,0,-1,236,0
486735,21,-17,253,1
486745,5,-2,259,0
486756,0,6,292,0
486767,10,25,298,0
486778,20,16,296,0
486789,26,2,301,0
486800,33,1,310,0
486811,39,-1,310,0
486822,49,-5,309,0
486833,60,2,298,0
486844,66,11,279,0
486856,75,19,260,1
486867,78,22,233,0
486878,77,12,183,0
486889,78,1,167,0
486900,76,-14,156,0
486912,76,-31,149,0
486922,79,-40,153,0
486933,76,-44,163,0
486944,70,-42,178,0
486955,68,-37,195,0
486966,69,-33,206,0
486978,63,-17,215,0
486988,53,-8,233,0
486999,35,1,253,0
487010,23,7,274,0
487021,5,11,290,0
487032,-10,17,297,0
487043,-29,7,281,0
487054,-31,1,260,0
487065,-27,-4,243,0
487076,-22,-11,229,0
487087,-12,-13,213,0
487098,-2,-11,207,0
487109,6,-9,205,0
487120,15,-2,209,0
487131,20,1,211,0
487142,22,5,216,0
487153,19,6,220,0
487164,16,11,221,0
487175,10,10,219,0
487186,6,8,217,0
487197,4,8,213,0
487208,-4,3,207,0
487219,-9,0,205,0
487230,-11,-4,204,0
487241,-7,-4,207,0
487253,-4,-3,204,0
487263,-1,0,199,0
487274,2,5,196,0
487285,7,8,195,0
487296,13,12,196,0
487307,12,20,207,0
487318,8,16,218,0
487329,12,13,223,0
487340,15,13,224,0
487351,18,15,221,0
487362,21,19,228,0
487373,3,35,251,0
487384,-3,22,251,0
487395,-6,13,243,0
487406,-7,11,236,0
487418,-7,10,242,0
487428,-4,-4,250,0
487440,13,-10,259,1
487450,49,-14,279,0
487462,75,6,334,0
487472,66,32,371,0
487483,73,1,381,0
487494,93,-5,361,0
487505,86,-11,333,0
487516,80,-20,312,0
487528,74,-21,303,0
487538,17,-18,240,0
487549,-9,-23,198,0
487560,-31,-50,197,0
487572,-28,-62,166,1
487582,-15,-59,149,0
487593,-11,-65,145,0
487604,3,-65,146,0
487615,22,-56,160,0
487626,41,-50,173,0
487637,61,-39,189,0
487650,82,-33,213,0
487660,99,-21,228,0
487671,107,-14,232,0
487682,109,-7,235,0
487693,97,-20,218,0
487704,88,-29,210,0
487715,83,-29,209,0
487726,78,-26,212,0
487737,79,-23,217,0
487748,77,-26,216,0
487759,74,-31,216,0
487770,69,-29,219,0
487781,64,-25,227,0
487793,54,-21,233,0
487803,39,-16,232,0
487814,31,-14,230,0
487825,35,-8,229,0
487836,38,-7,223,0
487847,38,-7,219,0
487858,39,-2,219,0
487870,40,-2,220,0
487880,37,-1,220,0
487891,37,-2,225,0
487903,42,-4,228,0
487913,47,-7,228,0
487924,45,-8,234,0
487935,42,-7,235,0
487946,40,-4,231,0
487957,36,0,232,0
487968,31,3,235,0
487980,25,7,234,0
487991,22,10,234,0
488001,18,13,236,0
488012,17,9,234,0
488023,19,7,231,0
488034,20,6,229,0
488045,21,6,228,0
488056,23,10,228,0
488067,26,10,231,0
488078,29,14,229,0
488089,32,17,230,0
488100,34,24,230,0
488111,32,27,226,0
488122,34,30,221,0
488133,36,31,216,0
488144,36,34,210,0
488155,31,37,209,0
488167,27,34,210,1
488178,25,7,213,0
488188,33,-66,213,0
488199,33,-56,196,0
488210,21,-55,188,0
488221,7,-56,194,0
488232,6,-44,211,0
488244,9,-28,211,0
488254,14,-5,211,0
488265,20,7,224,0
488276,29,13,236,0
488287,49,28,255,0
488298,64,47,266,0
488309,67,47,261,0
488320,70,25,259,0
488331,86,4,255,0
488342,97,7,254,0
488353,91,0,242,0
488364,83,-3,245,0
488375,70,-9,243,0
488386,65,-10,243,0
488397,59,-5,237,0
488408,51,-1,234,0
488419,45,-7,234,0
488430,37,-14,228,0
488441,35,-23,226,0
488453,38,-25,223,0
488463,46,-22,221,0
488474,47,-19,219,0
488485,50,-22,216,0
488496,52,-19,212,0
488507,49,-17,207,0
488518,30,-23,209,0
488529,23,-23,211,0
488540,15,-26,213,0
488551,10,-25,215,0
488562,7,-27,223,0
488573,9,-24,233,0
488584,7,-21,241,0
488595,6,-19,250,0
488606,3,-17,254,0
488617,0,-18,253,0
488628,0,-23,254,0
488640,3,-27,256,0
488651,6,-30,252,0
488662,6,-31,252,0
488673,7,-26,258,0
488684,6,-24,257,0
488695,3,-27,253,0
488706,1,-31,253,0
488718,2,-32,247,0
488728,5,-30,240,0
488739,9,-29,232,0
488750,11,-21,222,0
488761,12,-18,214,0
488772,11,-20,207,0
488783,12,-19,204,0
488794,15,-20,206,0
488805,18,-19,207,0
488817,24,-18,212,0
488828,25,-18,213,0
488839,23,-20,215,0
488850,24,-26,221,0
488861,24,-20,221,0
488872,24,-19,221,0
488883,23,-18,226,0
488894,26,-19,230,0
488905,29,-19,234,0
488917,29,-21,233,0
488928,32,-19,233,0
488938,29,-16,240,0
488949,27,-14,240,0
488960,23,-10,244,0
488971,17,-6,244,0
488982,12,-5,244,0
488993,6,-7,245,0
489004,8,-11,246,0
489015,12,-13,247,0
489026,12,-12,245,0
489037,6,-12,241,0
489048,3,-12,242,0
489059,0,-13,237,0
489070,-8,-12,233,0
489081,-16,-15,230,0
489093,-21,-17,226,0
489103,-22,-17,222,0
489114,-22,-20,218,0
489125,-21,-19,216,0
489136,-21,-19,216,0
489147,-23,-18,217,0
489158,-27,-17,221,0
489170,-28,-18,221,0
489180,-28,-22,223,0
489192,-25,-27,221,0
489203,-21,-29,219,0
489213,-17,-30,217,0
489224,-15,-30,213,0
489235,-10,-29,213,0
489246,-6,-29,214,0
489257,-4,-28,212,0
489268,-1,-28,213,0
489279,0,-28,211,0
489291,2,-31,211,0
489301,3,-32,211,0
489312,4,-34,211,0
489323,12,-36,211,0
489335,17,-35,214,0
489345,21,-37,215,0
489356,23,-36,219,0
489368,24,-37,218,1
489378,25,-37,218,0
489389,27,-34,218,0
489400,26,-30,224,0
489411,24,-28,231,0
489422,27,-26,245,0
489433,33,-22,263,0
489444,38,-15,297,0
489455,36,-2,320,0
489466,36,2,324,0
489478,41,-18,304,0
489488,38,-28,234,0
489499,41,-21,221,0
489510,46,-18,209,0
489521,47,-20,196,0
489532,43,-20,193,0
489543,40,-20,204,0
489554,35,-23,217,0
489565,32,-29,226,0
489576,25,-28,231,0
489587,16,-25,235,0
489598,9,-26,232,0
489609,4,-32,229,0
489620,4,-39,227,0
489631,6,-47,226,0
489642,11,-49,222,0
489653,27,-48,224,0
489664,31,-49,225,0
489675,34,-48,227,0
489686,38,-46,225,0
489697,43,-44,226,0
489708,43,-45,227,0
489719,44,-45,228,0
489730,45,-42,224,0
489741,45,-39,222,0
489753,45,-39,221,0
489763,48,-41,222,0
489774,49,-41,224,0
489785,51,-39,222,0
489796,49,-38,218,0
489807,53,-40,215,0
489818,59,-30,201,0
489829,61,-31,206,0
489840,62,-31,209,0
489851,61,-33,218,0
489862,61,-29,224,0
489873,63,-25,226,0
489884,62,-20,223,0
489895,63,-19,225,0
489906,61,-17,223,0
489917,60,-15,222,0
489928,61,-10,221,0
489939,59,-13,218,0
489950,59,-12,215,0
489961,57,-7,211,0
489972,52,1,216,0
489983,52,8,228,0
489994,49,9,225,0
490005,47,11,230,0
490016,45,11,232,0
490028,41,11,234,0
490038,37,13,237,0
490049,29,12,241,0
490060,25,12,237,0
490071,15,12,238,0
490082,10,11,237,0
490093,18,11,237,0
490104,23,9,239,0
490115,20,12,242,0
490126,18,13,237,0
490137,17,13,232,0
490149,12,15,229,0
490159,8,15,231,0
490170,7,12,229,0
490181,4,11,229,0
490193,2,9,229,0
490203,1,8,231,0
490214,0,5,229,0
490225,-1,2,229,0
490236,-4,1,228,0
490247,-6,-1,229,0
490258,-8,0,229,0
490270,-8,0,229,0
490280,-8,-3,229,0
490292,-7,-6,229,0
490303,-9,-7,231,0
490313,-14,-8,228,0
490324,-20,-5,227,0
490335,-21,-3,226,0
490346,-20,1,226,0
490357,-18,2,228,0
490368,-15,2,228,0
490379,-11,4,231,0
490391,-8,1,232,0
490401,-2,0,229,0
490413,2,-4,221,0
490425,5,-5,214,1
490435,12,-2,215,0
490446,14,0,218,0
490457,14,7,228,0
490468,9,6,232,0
490479,1,5,232,0
490491,-10,7,232,0
490501,-21,11,231,0
490512,-29,9,230,0
490523,-30,12,225,0
490534,-3,29,214,0
490545,0,12,250,0
490556,-2,-43,279,0
490567,11,-8,264,0
490578,-9,-1,256,0
490589,-9,4,266,0
490600,-3,32,284,0
490611,-3,17,304,0
490622,7,-6,309,0
490633,18,-9,307,0
490644,36,2,312,0
490655,49,20,303,0
490666,59,34,290,0
490678,63,35,265,0
490688,70,28,238,0
490699,80,19,212,0
490710,87,12,188,0
490721,91,2,170,0
490732,97,-16,149,0
490743,99,-24,137,0
490754,93,-29,132,0
490765,83,-28,140,0
490776,71,-26,155,0
490787,56,-21,189,0
490798,51,-16,201,0
490809,46,-10,217,0
490820,39,-5,229,0
490831,38,3,249,0
490842,36,14,266,0
490853,32,16,277,0
490864,25,20,282,0
490875,19,22,283,0
490886,13,21,283,0
490897,7,14,270,0
490908,1,7,258,0
490919,4,-5,244,0
490930,8,-9,232,0
490941,7,-12,224,0
490953,11,-8,211,0
490963,16,-1,215,0
490974,24,3,218,0
490985,28,3,215,0
490996,26,3,217,0
491007,20,4,215,0
491018,16,2,217,0
491029,18,0,215,0
491040,18,-2,209,0
491051,13,-3,202,0
491062,12,-3,201,0
491073,10,-8,197,0
491084,11,-7,195,0
491095,10,-9,192,0
491106,9,-8,191,0
491117,12,-6,192,0
491128,10,2,204,0
491139,5,6,210,0
491150,3,7,216,0
491161,1,12,217,0
491172,1,6,219,0
491183,1,7,220,0
491194,-2,4,221,0
491205,-8,4,227,0
491216,-10,3,241,0
491228,-9,13,250,0
491238,-25,27,244,0
491249,-32,10,247,0
491260,-31,-2,247,0
491271,-25,-14,249,0
491282,-20,-15,249,0
491293,-24,-22,252,0
491304,-26,-26,257,0
491315,-31,-26,257,0
491326,-12,-36,270,0
491337,45,-25,350,0
491348,49,23,352,0
491359,48,-13,315,0
491371,59,-37,296,1
491381,62,-39,289,0
491393,108,-38,352,0
491403,122,9,372,0
491414,88,9,319,0
491425,61,0,254,0
491436,7,10,216,0
491447,-11,-29,252,0
491458,-18,-11,179,0
491470,-8,-60,155,0
491480,-1,-37,155,0
491492,16,-28,161,0
491503,24,-10,172,0
491513,31,0,183,0
491524,36,10,193,0
491535,49,5,205,0
491546,65,2,215,0
491558,78,2,215,0
491568,85,-1,206,0
491579,93,-3,207,0
491591,99,-5,208,0
491601,107,-6,210,0
491612,103,-10,209,0
491623,76,-8,211,0
491634,59,-5,212,0
491645,49,-2,218,0
491657,41,-2,221,0
491668,37,-1,223,0
491679,34,1,223,0
491691,30,2,224,0
491701,26,2,224,0
491712,22,2,222,0
491723,17,1,223,0
491734,12,0,223,0
491745,8,0,223,0
491756,7,0,219,0
491767,10,-6,213,0
491778,9,-3,214,0
491789,6,-4,218,0
491800,7,1,222,0
491811,11,0,226,0
491822,7,3,227,0
491833,11,1,228,0
491844,14,1,226,0
491855,16,-1,226,0
491866,11,0,222,0
491878,11,0,221,0
491888,11,0,220,0
491899,12,-4,220,0
491910,15,-6,217,0
491921,14,-4,218,0
491932,17,-7,215,0
491943,17,-6,216,0
491954,19,-4,219,0
491965,20,-1,222,0
491976,20,1,226,0
491987,22,4,229,0
491998,19,9,229,0
492009,14,8,227,0
492020,6,7,221,0
492031,-2,7,222,0
492042,-14,6,222,0
492053,-26,9,224,0
492065,-33,12,227,1
492075,-27,22,229,0
492086,-1,34,237,0
492097,2,-17,282,0
492108,-10,10,267,0
492119,-40,2,279,0
492130,-41,5,287,0
492141,-36,20,291,0
492153,-32,4,297,0
492163,-24,0,309,0
492174,-16,0,314,0
492185,-1,2,315,0
492196,28,13,309,0
492207,58,23,290,0
492218,83,26,267,0
492229,104,22,236,0
492240,120,14,204,0
492251,128,2,171,0
492262,128,-5,140,0
492273,119,-18,120,0
492284,108,-28,131,0
492295,89,-23,155,0
492306,71,-16,179,0
492317,48,-12,207,0
492328,38,-8,239,0
492340,29,-1,264,0
492350,19,14,291,0
492361,8,18,302,0
492372,-3,19,289,0
492383,-5,8,276,0
492394,-7,4,262,0
492405,-7,-1,244,0
492417,-10,-2,234,0
492428,-5,-4,217,0
492438,1,-6,214,0
492449,6,-7,214,0
492460,8,-1,217,0
492471,9,1,218,0
492483,10,4,222,0
492494,9,5,219,0
492505,9,1,215,0
492516,8,0,211,0
492528,6,-2,211,0
492538,6,-4,212,0
492549,3,-9,203,0
492560,-1,-9,199,0
492572,-1,-14,191,0
492582,-3,-11,188,0
492593,-5,-12,182,0
492604,-9,-9,186,0
492615,-12,-10,189,0
492626,-16,-10,189,0
492637,-19,-4,195,0
492648,-23,-1,202,0
492659,-26,2,213,0
492670,-26,4,226,0
492681,-24,6,233,0
492693,-24,12,241,0
492703,-23,11,253,0
492714,-23,15,266,0
492725,-21,18,275,0
492736,-30,10,269,0
492747,-45,8,266,0
492758,-53,11,267,0
492770,-59,6,271,1
492780,-48,-6,285,0
492791,10,-28,372,0
492803,36,18,403,0
492813,36,15,386,0
492824,56,-33,365,0
492835,46,-12,302,0
492846,57,-15,297,0
492857,87,-18,310,0
492868,69,-12,257,0
492879,39,15,196,0
492891,27,-119,250,0
492901,64,-38,154,0
492912,60,-40,148,0
492923,55,-1,157,0
492934,36,-7,163,0
492945,17,-9,176,0
492956,11,-21,188,0
492967,9,-18,198,0
492978,19,-21,204,0
492989,40,-27,207,0
493000,55,-28,216,0
493011,68,-27,222,0
493022,77,-19,218,0
493033,84,-23,214,0
493044,74,-23,208,0
493055,64,-21,200,0
493066,56,-18,200,0
493078,43,0,208,0
493088,36,4,215,0
493099,35,13,219,0
493110,30,12,221,0
493121,24,9,224,0
493132,20,3,225,0
493145,4,6,220,0
493155,2,3,220,0
493166,0,1,219,0
493178,0,0,217,0
493188,1,-4,211,0
493199,5,-6,213,0
493210,9,-3,215,0
493221,2,-1,222,0
493232,-8,0,232,0
493243,-3,1,237,0
493254,1,2,236,0
493265,3,0,229,0
493276,3,-4,223,0
493287,4,-11,221,0
493299,2,-5,222,0
493309,-1,0,215,0
493320,-5,2,210,0
493331,-6,6,208,0
493342,-8,10,208,0
493353,-12,8,212,0
493364,-10,8,214,0
493375,-5,8,217,0
493386,-1,7,223,0
493397,-1,16,231,0
493408,-7,11,239,0
493419,-12,2,241,0
493430,-18,-9,238,0
493441,-26,-29,238,0
493453,-42,-45,242,0
493463,-56,-32,224,0
493474,-45,-14,210,0
493485,-17,2,238,0
493497,-26,-36,282,0
493509,1,-18,284,1
493519,-8,-22,270,0
493530,-21,-25,280,0
493542,23,18,318,0
493553,73,3,326,0
493563,109,0,330,0
493574,135,-3,307,0
493585,144,-16,273,0
493596,138,-16,234,0
493607,126,-5,179,0
493618,117,3,152,0
493629,102,20,138,0
493640,86,27,141,0
493651,69,35,163,0
493662,45,35,185,0
493673,20,37,211,0
493684,5,39,248,0
493695,-13,43,279,0
493706,-21,43,292,0
493717,-12,14,270,0
493728,0,13,251,0
493739,9,6,241,0
493750,19,6,242,0
493761,31,11,231,0
493772,35,17,226,0
493783,44,16,223,0
493794,50,10,221,0
493805,56,5,216,0
493816,57,6,206,0
493828,57,5,194,0
493838,55,7,191,0
493849,48,8,192,0
493860,37,6,190,0
493871,31,7,196,0
493882,14,-3,202,0
493893,19,-8,202,0
493904,17,-4,203,0
493916,17,-12,204,0
493926,24,-5,208,0
493937,27,2,206,0
493948,31,16,204,0
493959,32,24,199,0
493970,28,27,195,0
493981,10,12,204,0
493993,10,11,204,0
494003,4,13,211,0
494014,2,13,230,0
494025,-2,21,239,0
494036,-8,21,249,0
494047,-23,21,263,0
494058,-28,16,255,0
494070,-28,20,248,0
494080,-31,24,238,0
494092,0,20,254,0
494103,60,48,361,0
494113,32,107,373,0
494124,52,56,381,0
494136,59,29,355,1
494146,50,24,290,0
494157,65,-2,314,0
494168,59,7,322,0
494179,47,-8,288,0
494191,48,-46,240,0
494201,51,-67,196,0
494212,51,-62,173,0
494223,50,-46,163,0
494234,47,-29,155,0
494245,44,-10,160,0
494256,49,17,176,0
494267,61,34,190,0
494278,77,33,206,0
494289,91,22,209,0
494300,100,13,205,0
494312,103,10,203,0
494323,102,10,206,0
494333,98,6,209,0
494344,83,0,204,0
494355,63,2,203,0
494366,49,9,201,0
494378,27,8,217,0
494388,18,13,222,0
494399,13,17,228,0
494410,3,16,227,0
494421,0,11,227,0
494432,0,8,230,0
494443,-3,9,228,0
494454,-5,7,222,0
494465,-8,3,219,0
494476,-8,6,217,0
494487,-7,9,210,0
494498,-1,7,207,0
494509,3,11,214,0
494521,6,18,222,0
494531,10,19,231,0
494542,14,30,231,0
494553,14,31,229,0
494564,12,31,225,0
494575,11,30,222,0
494586,11,25,218,0
494597,10,26,216,0
494608,9,22,216,0
494619,9,17,217,0
494630,9,13,221,0
494641,14,-4,227,0
494653,18,-17,230,0
494663,24,-12,227,0
494674,28,-1,227,0
494685,31,8,229,0
494696,28,11,233,0
494707,6,26,233,0
494718,-9,43,229,0
494729,-23,50,223,0
494740,-27,45,223,0
494751,-11,48,227,0
494762,7,51,255,0
494773,22,31,287,0
494785,16,26,294,1
494795,1,21,292,0
494806,-14,19,293,0
494817,-18,32,297,0
494828,-17,39,306,0
494839,-7,37,304,0
494850,5,38,298,0
494861,31,43,286,0
494872,82,13,240,0
494883,99,-4,215,0
494894,112,-25,190,0
494905,121,-37,168,0
494917,124,-33,156,0
494928,118,-19,162,0
494938,110,-10,172,0
494949,95,2,177,0
494960,80,10,181,0
494971,68,10,197,0
494982,64,7,223,0
494993,53,9,245,0
495004,40,28,269,0
495015,44,30,291,0
495026,45,31,296,0
495037,47,21,265,0
495048,45,11,252,0
495059,46,1,232,0
495070,44,0,219,0
495081,43,2,213,0
495093,49,3,213,0
495103,50,2,212,0
495114,52,2,213,0
495125,51,7,216,0
495136,52,4,213,0
495147,45,6,209,0
495158,41,9,207,0
495170,35,12,203,0
495180,28,10,199,0
495192,23,7,197,0
495203,10,6,198,0
495213,1,3,196,0
495224,-7,3,194,0
495236,-12,4,193,0
495247,-16,0,192,0
495258,-13,0,195,0
495270,-15,1,198,0
495280,-14,5,201,0
495292,-5,2,209,0
495303,2,11,218,0
495313,2,16,231,0
495324,0,8,243,0
495335,0,4,246,0
495346,-1,14,250,0
495357,-15,16,277,0
495368,-19,15,270,0
495380,-19,14,269,1
495391,-8,8,271,0
495401,49,-3,334,0
495412,77,59,389,0
495423,63,59,380,0
495434,65,0,366,0
495445,50,-10,312,0
495456,29,-21,289,0
495467,38,-24,311,0
495478,34,-12,294,0
495489,29,-28,260,0
495500,16,-50,219,0
495511,16,-41,197,0
495522,26,-37,167,0
495533,36,-26,162,0
495544,38,-12,166,0
495555,38,-4,174,0
495566,38,-8,177,0
495578,45,-8,179,0
495588,55,-8,188,0
495599,67,-8,199,0
495610,84,-6,205,0
495621,90,-7,208,0
495632,99,-11,208,0
495643,101,-10,208,0
495654,94,-13,206,0
495665,77,-11,204,0
495676,59,-12,200,0
495687,19,-1,214,0
495698,9,2,224,0
495709,5,9,228,0
495720,4,11,227,0
495731,0,7,225,0
495742,-1,4,224,0
495753,-4,1,217,0
495764,-7,-5,212,0
495775,-8,-7,211,0
495786,-8,-8,207,0
495797,-5,-9,203,0
495808,-3,-8,204,0
495819,-3,-7,208,0
495830,-2,-3,211,0
495841,-2,0,216,0
495853,-3,9,231,0
495863,0,10,233,0
495874,-1,15,230,0
495885,-1,17,228,0
495896,-1,17,224,0
495907,3,12,220,0
495918,6,7,215,0
495929,5,4,213,0
495940,8,-4,212,0
495951,13,-17,210,0
495962,11,-24,206,0
495974,14,-27,210,1
495984,19,-22,216,0
495995,23,-10,222,0
496006,17,0,224,0
496017,-8,6,233,0
496028,-28,4,230,0
496039,-42,12,226,0
496050,-48,22,225,0
496061,-27,27,218,0
496072,-18,16,266,0
496083,-11,-52,287,0
496094,-9,-29,279,0
496105,-32,-14,292,0
496116,-31,0,316,0
496128,-12,31,322,0
496138,13,20,328,0
496149,31,2,332,0
496160,40,5,326,0
496171,66,15,314,0
496182,134,26,274,0
496193,150,20,243,0
496204,159,17,207,0
496215,158,6,176,0
496226,150,-1,152,0
496237,133,-8,139,0
496248,119,-9,137,0
496259,102,-5,144,0
496270,85,1,158,0
496281,61,1,180,0
496293,42,1,199,0
496303,27,0,217,0
496314,12,6,243,0
496325,7,7,262,0
496336,8,5,268,0
496347,16,3,258,0
496358,15,2,253,0
496370,12,1,245,0
496380,11,2,243,0
496392,17,0,232,0
496403,20,1,224,0
496413,20,0,220,0
496424,22,-3,215,0
496435,26,-2,218,0
496446,27,1,220,0
496457,26,1,216,0
496468,23,-2,213,0
496480,21,-4,215,0
496492,14,-5,211,0
496503,10,-6,215,0
496513,11,-3,213,0
496524,5,-8,206,0
496535,2,-13,200,0
496546,2,-16,198,0
496557,0,-14,202,0
496568,-2,-18,198,0
496579,-2,-14,197,0
496591,-5,-8,199,0
496601,-4,-10,196,0
496612,0,-6,205,0
496623,1,-9,216,0
496634,3,-1,228,0
496645,4,9,237,0
496656,-2,13,242,0
496667,-14,9,240,0
496678,-11,8,241,0
496689,-9,5,246,0
496700,-10,5,250,0
496711,-18,6,255,0
496722,-31,3,256,0
496733,-22,-8,268,0
496744,36,-10,373,0
496755,47,34,383,0
496766,49,31,379,0
496778,59,-24,352,1
496788,43,-11,308,0
496799,44,-1,295,0
496810,55,-13,304,0
496821,45,13,269,0
496832,41,-90,227,0
496843,39,-8,195,0
496854,40,-41,166,0
496865,55,-40,155,0
496876,67,-31,145,0
496887,66,-25,148,0
496898,65,-13,156,0
496909,61,-11,164,0
496920,59,-7,185,0
496931,65,-12,203,0
496942,66,-7,220,0
496953,65,-10,227,0
496964,64,-12,232,0
496975,60,-13,229,0
496986,54,-17,227,0
496997,31,-13,212,0
497008,21,-14,204,0
497019,18,-13,199,0
497030,13,-6,204,0
497041,13,-5,206,0
497053,11,1,218,0
497063,13,2,228,0
497074,18,4,230,0
497085,19,1,227,0
497096,16,0,224,0
497107,13,-1,221,0
497118,11,0,216,0
497129,14,0,214,0
497140,17,-6,209,0
497151,15,-7,208,0
497162,13,-3,217,0
497173,11,-1,225,0
497184,7,1,232,0
497195,6,3,236,0
497207,5,2,235,0
497217,3,2,232,0
497228,1,1,231,0
497239,1,0,231,0
497250,0,-1,229,0
497261,1,-1,226,0
497272,1,-4,222,0
497283,4,-3,218,0
497295,8,-6,216,1
497305,9,-8,215,0
497316,9,-7,215,0
497328,0,-7,218,0
497338,-2,-10,219,0
497349,-4,-14,217,0
497360,-8,-15,218,0
497371,-15,-16,214,0
497382,-20,-16,221,0
497393,-25,-10,224,0
497404,-25,0,230,0
497416,-23,6,229,0
497426,-2,10,227,0
497437,-10,-11,255,0
497448,-1,-40,255,0
497459,-3,-36,247,0
497470,-26,-19,259,0
497481,-41,-1,284,0
497493,-23,-3,303,0
497503,-8,0,305,0
497514,4,0,305,0
497525,18,6,306,0
497536,38,10,302,0
497547,56,17,296,0
497558,71,27,281,0
497569,75,24,261,0
497580,80,26,239,0
497592,80,18,210,0
497603,77,3,179,0
497613,69,-10,151,0
497624,63,-16,130,0
497635,59,-17,121,0
497646,56,-13,122,0
497657,50,-7,159,0
497668,49,-4,184,0
497679,49,-2,202,0
497691,48,1,228,0
497702,40,10,250,0
497712,39,12,270,0
497723,42,12,285,0
497734,36,11,287,0
497745,33,8,286,0
497756,29,6,281,0
497767,25,6,272,0
497778,25,9,264,0
497789,18,10,253,0
497800,11,12,247,0
497811,6,14,236,0
497822,13,13,231,0
497833,11,22,230,0
497844,4,20,227,0
497855,0,13,221,0
497866,-6,14,210,0
497878,-10,15,204,0
497888,-7,15,205,0
497901,-7,15,207,0
497911,-1,13,205,0
497922,1,16,205,0
497933,4,20,205,0
497944,6,23,206,0
497955,10,24,207,0
497966,14,27,207,0
497978,18,33,207,0
497988,18,34,208,0
497999,18,37,209,0
498010,15,44,208,0
498021,13,47,211,0
498032,15,43,210,0
498043,20,37,209,0
498054,23,20,219,0
498065,29,27,228,0
498076,27,20,230,0
498087,20,8,236,0
498098,13,-5,253,0
498109,13,-1,265,0
498120,22,13,272,0
498131,37,37,285,0
498143,47,39,230,0
498153,28,21,218,0
498164,42,17,215,0
498175,106,51,234,0
498187,89,119,309,1
498197,42,100,281,0
498208,68,29,262,0
498219,83,18,247,0
498230,69,41,218,0
498241,82,59,243,0
498253,73,74,278,0
498263,50,80,264,0
498274,58,54,247,0
498285,71,23,213,0
498296,81,18,196,0
498307,90,52,204,0
498318,91,68,197,0
498329,91,82,191,0
498341,88,92,185,0
498351,85,101,184,0
498362,83,105,183,0
498373,78,106,188,0
498384,80,96,192,0
498395,86,90,193,0
498407,87,91,197,0
498417,98,83,196,0
498428,105,80,199,0
498439,105,83,202,0
498450,101,90,213,0
498461,91,90,218,0
498472,70,87,219,0
498483,64,85,212,0
498494,60,84,208,0
498505,56,84,207,0
498516,53,85,209,0
498528,53,88,206,0
498538,56,87,203,0
498549,64,93,205,0
498560,72,96,205,0
498571,78,95,202,0
498582,82,94,203,0
498593,85,93,204,0
498604,87,92,207,0
498615,92,92,210,0
498626,99,89,213,0
498637,93,81,219,0
498648,93,84,221,0
498659,94,86,217,0
498670,96,83,210,0
498681,98,81,207,0
498693,101,78,205,0
498703,101,73,205,0
498714,100,73,205,0
498726,95,71,209,0
498736,90,66,214,0
498747,84,59,217,0
498758,83,68,227,0
498769,74,82,223,0
498780,63,85,225,0
498792,52,68,229,0
498803,55,58,221,0
498813,53,62,215,0
498824,52,66,211,0
498835,48,71,205,0
498846,42,77,203,0
498857,38,75,203,0
498868,41,77,205,0
498879,42,85,208,0
498891,39,90,211,0
498901,38,81,212,0
498912,41,73,208,0
498923,48,64,199,0
498935,64,56,195,1
498945,77,38,203,0
498956,76,10,211,0
498967,35,10,223,0
498978,25,36,243,0
498989,26,65,258,0
499000,34,73,258,0
499011,46,61,249,0
499022,58,41,238,0
499033,72,37,224,0
499044,86,32,218,0
499055,88,16,215,0
499067,81,11,220,1
499078,67,18,239,0
499088,52,27,272,0
499099,38,24,300,0
499110,25,14,309,0
499121,17,5,303,0
499132,22,2,266,0
499143,32,2,257,0
499154,52,2,247,0
499165,71,2,232,0
499176,86,-1,213,0
499187,93,-4,202,0
499198,92,-9,192,0
499209,90,-13,187,0
499222,84,-12,190,0
499232,79,-11,191,0
499243,74,-9,191,0
499254,66,-8,194,0
499265,56,-7,193,0
499276,48,-2,198,0
499287,26,0,206,0
499298,18,3,211,0
499309,16,10,222,0
499320,13,10,229,0
499331,11,11,227,0
499342,9,9,222,0
499353,7,12,224,0
499364,3,10,227,0
499375,0,10,225,0
499386,-1,10,219,0
499397,-2,14,214,0
499408,0,18,214,0
499419,-4,18,214,0
499430,-7,21,214,0
499441,-8,26,214,0
499453,-15,34,225,0
499463,-14,32,228,0
499474,-15,28,229,0
499485,-18,30,230,0
499496,-20,29,233,0
499508,-19,28,239,0
499518,-13,29,242,0
499529,-5,21,238,0
499540,2,17,238,0
499551,10,15,239,0
499562,11,15,246,0
499574,10,19,245,1
499585,5,28,244,0
499595,-2,29,244,0
499606,-3,26,251,0
499617,125,50,430,0
499628,88,98,363,0
499639,70,7,311,0
499650,75,-2,287,0
499661,114,1,345,0
499672,115,-4,365,0
499683,91,25,274,0
499694,98,-140,307,0
499705,78,-35,238,0
499716,53,-68,171,0
499728,39,-58,142,0
499738,32,-55,118,0
499750,27,-46,121,0
499760,28,-37,134,0
499771,29,-19,158,0
499782,61,-10,191,0
499793,81,-15,194,0
499804,104,-14,203,0
499815,119,-12,210,0
499826,118,-12,216,0
499837,100,-16,211,0
499848,83,-20,206,0
499859,72,-18,201,0
499870,60,-13,201,0
499882,47,-10,205,0
499893,32,-9,211,0
499904,20,-6,215,0
499916,10,-7,217,0
499926,4,0,223,0
499937,1,-1,220,0
499948,2,-2,219,0
499959,0,-2,214,0
499971,1,1,213,0
499981,7,0,212,0
499993,9,0,209,0
500003,8,0,214,0
500014,11,-1,219,0
500025,4,0,221,0
500036,2,1,225,0
500047,1,3,227,0
500058,-1,5,227,0
500069,-5,6,226,0
500080,-4,4,221,0
500092,-2,4,221,0
500103,-1,1,219,0
500113,0,-3,217,0
500124,1,-9,217,0
500135,4,-13,220,0
500146,8,-16,218,0
500157,10,-16,216,0
500168,16,-13,216,0
500179,14,-4,220,0
500191,11,-3,221,0
500201,6,-5,221,0
500212,0,-6,219,0
500223,-9,-9,215,0
500234,-16,-3,215,0
500245,-23,1,220,0
500256,-30,0,224,0
500268,-35,-1,236,1
500278,-13,8,227,0
500289,9,34,255,0
500300,-18,-46,301,0
500311,6,-50,295,0
500322,-5,-22,267,0
500333,-17,-1,276,0
500344,-5,30,299,0
500355,13,24,298,0
500366,28,-13,295,0
500378,43,-28,292,0
500388,59,-14,285,0
500399,82,-4,273,0
500410,98,1,255,0
500421,114,7,224,0
500432,140,20,179,0
500443,134,26,165,0
500454,123,29,163,0
500465,106,26,173,0
500476,89,17,187,0
500487,68,10,205,0
500498,39,11,228,0
500509,17,17,254,0
500520,2,24,273,0
500531,-10,24,288,0
500542,-10,23,294,0
500555,-2,21,288,0
500565,4,20,273,0
500576,27,8,234,0
500587,31,9,219,0
500598,28,4,201,0
500609,30,1,199,0
500620,33,0,203,0
500631,40,1,202,0
500642,42,2,198,0
500653,41,6,198,0
500664,40,9,198,0
500676,37,8,198,0
500687,41,13,202,0
500698,33,13,199,0
500709,30,10,204,0
500720,26,8,205,0
500731,13,5,204,0
500742,9,5,199,0
500753,6,2,196,0
500764,4,1,192,0
500775,-1,3,194,0
500786,-10,7,197,0
500797,-9,6,206,0
500808,-7,2,224,0
500819,-13,8,234,0
500830,-21,14,229,0
500841,-27,5,229,0
500853,-30,-2,238,0
500863,-28,-6,252,0
500874,-24,2,270,0
500885,-30,24,286,0
500897,-54,7,289,1
500908,-30,0,299,0
500918,25,-9,336,0
500929,60,28,372,0
500940,70,49,382,0
500951,70,24,386,0
500962,63,18,364,0
500973,67,17,355,0
500984,62,7,317,0
500995,51,-9,262,0
501006,35,-47,203,0
501017,18,-62,167,0
501028,17,-56,152,0
501039,17,-65,145,0
501050,31,-56,151,0
501061,51,-27,164,0
501072,57,-13,167,0
501083,61,-5,183,0
501094,69,1,196,0
501105,80,1,204,0
501116,90,0,209,0
501128,98,-2,209,0
501138,100,-5,207,0
501149,100,-10,209,0
501160,95,-12,208,0
501171,85,-5,210,0
501183,72,-1,210,0
501193,56,-1,203,0
501204,36,2,204,0
501215,25,4,204,0
501226,4,6,215,0
501237,2,10,221,0
501248,4,9,226,0
501259,0,9,229,0
501270,-4,8,229,0
501281,-1,5,226,0
501293,1,5,225,0
501303,4,4,218,0
501314,5,5,212,0
501325,8,5,207,0
501336,8,3,207,0
501347,9,1,209,0
501358,7,2,212,0
501369,4,3,218,0
501380,2,8,223,0
501391,-3,15,240,0
501403,-1,12,238,0
501413,3,7,229,0
501424,5,9,224,0
501435,5,9,221,0
501446,7,4,220,0
501457,9,-6,215,0
501468,13,-14,209,0
501479,18,-15,207,0
501492,21,-15,205,0
501503,22,-12,207,0
501513,25,-7,209,0
501524,19,-2,211,0
501535,12,0,209,0
501546,-9,1,211,0
501558,-13,4,211,1
501568,-10,14,216,0
501579,15,20,217,0
501591,7,-3,273,0
501601,-2,-39,287,0
501612,-11,-17,279,0
501623,-18,-3,286,0
501634,-17,11,300,0
501645,-28,-11,313,0
501656,-27,-35,325,0
501667,-16,-29,338,0
501679,1,-9,340,1
501689,27,8,335,0
501700,58,23,320,0
501711,93,32,254,0
501722,107,21,221,0
501734,116,12,187,0
501745,121,3,155,0
501756,122,-15,133,0
501767,115,-24,126,0
501778,105,-30,132,0
501791,91,-36,148,0
501801,73,-39,167,0
501812,56,-33,192,0
501823,39,-28,214,0
501834,28,-18,243,0
501845,14,1,292,0
501856,10,4,294,0
501867,5,2,289,0
501878,5,1,279,0
501889,5,0,256,0
501900,6,1,232,0
501911,5,1,214,0
501922,8,4,204,0
501933,13,0,197,0
501944,15,-1,200,0
501955,18,-4,201,0
501967,22,-4,199,0
501978,23,-3,201,0
501989,20,-4,202,0
502000,10,-3,207,0
502011,4,-3,211,0
502022,-1,-2,213,0
502033,-7,-2,210,0
502044,-14,-2,208,0
502055,-21,-5,199,0
502066,-28,-11,195,0
502078,-34,-13,194,0
502088,-37,-21,190,0
502099,-32,-23,190,0
502110,-30,-14,194,0
502121,-27,-15,197,0
502132,-25,-7,206,0
502143,-20,-4,211,0
502154,-18,-1,212,0
502165,-32,42,249,0
502176,-46,46,272,0
502187,-53,37,268,0
502198,-54,26,256,0
502209,-52,18,245,0
502220,-50,17,241,0
502231,-53,12,250,0
502242,-47,-8,260,0
502254,-18,-40,297,1
502264,41,-68,389,0
502275,56,-15,394,0
502286,69,-17,378,0
502297,92,-40,346,0
502308,96,-34,341,0
502319,98,-18,347,0
502330,89,-11,262,0
502341,67,-36,227,0
502353,60,-53,189,0
502363,53,-56,172,0
502374,55,-51,155,0
502385,57,-51,139,0
502396,62,-42,143,0
502408,63,-24,138,0
502418,51,-73,214,0
502429,79,-53,143,0
502440,52,30,179,0
502451,69,-10,197,0
502462,70,-6,220,0
502473,84,-1,234,0
502484,98,-14,230,0
502495,109,-16,229,0
502506,113,-12,220,0
502517,101,-9,208,0
502528,90,-2,202,0
502539,79,1,200,0
502550,66,3,199,0
502561,64,5,207,0
502572,61,10,220,0
502583,61,14,226,0
502594,61,14,231,0
502605,58,13,233,0
502616,54,11,227,0
502628,48,5,224,0
502638,41,4,222,0
502649,32,9,217,0
502660,28,5,221,0
502671,29,9,223,0
502682,26,10,227,0
502693,25,10,232,0
502704,25,10,237,0
502715,16,22,236,0
502726,16,21,237,0
502737,6,17,234,0
502748,4,16,228,0
502759,4,16,224,0
502770,1,14,221,0
502781,0,12,224,0
502793,-2,14,223,0
502803,-7,9,223,0
502814,-11,7,227,0
502825,-17,9,221,0
502836,-21,9,224,0
502847,-27,10,224,0
502858,-30,7,223,0
502869,-31,12,224,0
502880,-30,13,223,0
502892,-29,5,223,0
502903,-29,0,224,0
502913,-29,-1,222,0
502924,-30,-5,220,0
502935,-30,-5,227,0
502947,-31,-6,234,1
502957,-33,-12,240,0
502968,-36,-16,241,0
502979,-40,-19,238,0
502991,-52,-14,238,0
503001,-55,-9,236,0
503012,-19,2,221,0
503023,-22,0,258,0
503034,-38,-97,280,0
503045,-18,-72,271,0
503056,-43,-55,262,0
503067,-54,-32,292,0
503078,-23,-19,299,0
503089,9,0,294,0
503101,31,4,292,1
503111,58,2,288,0
503122,87,13,281,0
503133,115,32,275,0
503144,139,50,260,0
503155,154,50,202,0
503166,151,34,168,0
503178,146,24,155,0
503188,131,17,150,0
503199,110,9,157,0
503210,90,5,174,0
503221,70,5,197,0
503232,54,6,217,0
503243,39,17,231,0
503254,34,17,240,0
503265,31,18,251,0
503277,37,22,263,0
503287,45,22,271,0
503298,44,20,270,0
503309,38,19,269,0
503320,17,16,254,0
503331,18,8,247,0
503342,14,1,235,0
503353,9,-8,233,0
503364,2,-14,236,0
503375,6,-4,241,0
503386,8,0,232,0
503397,11,1,211,0
503408,12,7,190,0
503419,12,7,184,0
503430,13,2,193,0
503442,17,-6,200,0
503453,24,-8,194,0
503464,25,-3,187,0
503475,20,-2,178,0
503486,15,-4,180,0
503497,10,-1,186,0
503508,4,-3,192,0
503520,-1,0,201,0
503530,-8,0,200,0
503541,-9,-1,203,0
503553,-7,-1,210,0
503563,-2,-3,218,0
503574,0,1,225,0
503585,-2,8,230,0
503596,-1,13,236,0
503608,0,14,237,0
503618,3,6,243,0
503629,13,1,249,0
503640,34,-10,255,0
503651,41,-14,257,0
503663,37,-13,256,0
503673,28,-4,251,0
503684,15,-4,254,0
503695,18,-20,259,0
503706,74,-35,327,0
503717,64,54,357,0
503728,35,15,307,0
503739,49,-42,269,0
503750,51,-27,236,0
503761,91,-21,294,0
503772,90,-3,316,0
503783,80,-8,281,0
503795,64,-20,262,1
503805,27,-29,216,0
503816,15,-38,188,0
503828,8,-50,175,0
503838,15,-48,169,0
503849,21,-39,166,0
503860,33,-30,168,0
503871,42,-15,170,0
503882,53,-3,179,0
503893,64,-3,188,0
503904,76,0,206,0
503916,88,1,214,0
503926,93,2,222,0
503937,94,3,224,0
503949,86,7,224,1
503959,74,7,221,0
503970,54,2,213,0
503981,48,2,220,0
503993,39,-1,216,0
504003,27,-1,217,0
504014,25,2,217,0
504025,33,1,219,0
504036,42,2,221,0
504047,42,0,223,0
504058,36,-1,223,0
504069,36,3,223,0
504080,34,6,222,0
504092,33,7,220,0
504103,30,6,219,0
504113,24,7,218,0
504124,27,10,220,0
504135,20,4,213,0
504146,14,5,210,0
504157,7,6,213,0
504168,5,7,216,0
504179,3,9,221,0
504191,2,9,223,0
504201,1,9,229,0
504212,2,9,237,0
504223,2,9,239,0
504234,2,10,237,0
504245,3,10,238,0
504256,3,7,235,0
504267,3,7,230,0
504278,6,7,227,0
504289,7,5,227,0
504300,11,-1,219,0
504311,12,-7,216,0
504322,11,-11,210,0
504333,12,-16,205,0
504344,12,-9,206,0
504355,11,-2,218,0
504366,10,4,228,0
504378,5,12,236,0
504388,0,18,239,0
504399,-8,19,242,0
504410,-13,15,238,0
504422,-5,13,225,0
504433,22,17,221,0
504444,18,-40,267,0
504455,1,-29,270,0
504466,-11,-6,288,0
504478,-8,20,321,0
504488,12,17,329,0
504499,25,3,328,0
504510,30,12,320,0
504521,44,14,311,0
504532,64,18,303,0
504543,78,26,283,0
504554,87,24,255,0
504565,99,16,219,0
504576,107,7,185,0
504587,111,1,159,0
504598,100,-2,133,0
504609,94,-6,122,0
504620,63,-11,132,0
504631,50,-5,151,0
504642,39,3,175,0
504654,21,10,198,1
504664,14,15,232,0
504675,14,21,260,0
504686,10,29,277,0
504697,6,30,286,0
504708,4,27,293,0
504719,2,20,286,0
504730,4,15,281,0
504741,4,13,273,0
504753,5,9,262,0
504764,7,4,247,1
504774,10,1,234,0
504785,19,0,214,0
504796,22,1,211,0
504808,24,3,205,0
504818,24,2,199,0
504829,22,2,198,0
504840,18,0,198,0
504851,14,-1,197,0
504862,8,-2,200,0
504873,3,-3,201,0
504884,-8,-3,202,0
504895,-13,-5,199,0
504906,-14,-9,196,0
504917,-18,-11,190,0
504928,-17,-10,191,0
504939,-15,-8,190,0
504950,-8,-6,195,0
504961,0,1,202,0
504972,3,9,211,0
504983,8,14,214,0
504994,10,21,221,0
505005,8,25,229,0
505017,7,23,243,0
505028,10,19,251,0
505038,12,18,255,0
505049,10,17,260,0
505060,10,20,270,0
505071,5,26,279,0
505082,-5,33,284,0
505093,-17,25,284,0
505104,-15,10,292,0
505115,36,40,384,0
505126,12,43,347,0
505137,18,-7,330,0
505149,23,-15,301,0
505159,22,-7,288,0
505170,30,-2,289,0
505182,23,12,277,1
505193,4,19,261,0
505203,-2,8,247,0
505214,4,-20,220,0
505225,-1,-30,183,0
505236,-1,-37,160,0
505248,11,-44,149,0
505258,25,-42,155,0
505269,42,-35,162,0
505280,64,-19,170,0
505292,76,-13,169,0
505303,87,-3,187,1
505313,96,1,207,0
505324,101,1,230,0
505335,95,-2,238,0
505346,85,-12,234,0
505357,74,-20,224,0
505368,70,-27,214,0
505379,67,-25,207,0
505391,66,-24,202,0
505401,55,-21,202,0
505412,44,-19,206,0
505423,37,-15,209,0
505434,32,-9,216,0
505445,20,-1,228,0
505456,18,-1,232,0
505467,15,0,227,0
505478,10,-1,226,0
505489,3,1,223,0
505500,2,0,223,0
505511,1,-2,220,0
505522,0,-4,216,0
505533,0,-5,215,0
505544,1,-3,219,0
505555,0,-2,224,0
505566,1,0,228,0
505578,-1,2,233,0
505588,-3,4,236,0
505599,-7,3,237,0
505610,-8,2,234,0
505621,-15,8,228,0
505632,-11,7,232,0
505643,-13,7,227,0
505654,-18,5,222,0
505665,-22,5,217,0
505676,-21,2,216,0
505687,-21,0,214,0
505698,-19,-4,215,0
505709,-12,-9,214,0
505720,-8,-10,212,0
505731,-1,-5,212,0
505742,2,0,212,0
505753,9,6,214,0
505764,12,11,219,0
505775,3,10,223,0
505786,-3,8,223,0
505797,-11,4,223,0
505808,-19,1,223,0
505819,-9,0,215,0
505831,9,-3,225,1
505841,-9,-48,268,0
505853,-8,-42,265,0
505863,-23,-7,250,0
505874,-45,-8,273,0
505885,-41,2,296,0
505896,-20,27,296,0
505908,-14,18,296,0
505918,-2,3,308,0
505929,11,3,306,0
505940,40,14,302,0
505952,54,20,296,1
505962,63,26,282,0
505973,71,21,261,0
505984,84,14,236,0
505995,96,7,204,0
506006,104,2,179,0
506017,102,-9,153,0
506028,103,-21,130,0
506039,96,-32,110,0
506050,95,-36,114,0
506061,86,-31,131,0
506072,78,-22,157,0
506083,66,-13,184,0
506094,63,-6,209,0
506105,57,3,232,0
506116,25,21,286,0
506128,16,31,300,0
506138,7,37,300,0
506149,1,31,300,0
506160,-3,24,292,0
506171,-2,13,277,0
506182,-5,5,257,0
506193,-7,0,241,0
506204,-7,-3,234,0
506215,-4,-2,229,0
506226,0,-3,225,0
506237,5,-1,223,0
506248,10,2,219,0
506259,16,1,217,0
506271,15,3,215,0
506281,14,2,213,0
506293,13,0,209,0
506303,13,1,211,0
506314,9,-1,213,0
506325,10,-3,212,0
506336,7,-2,209,0
506347,6,-8,199,0
506358,3,10,188,0
506369,5,0,188,0
506380,-1,1,184,0
506392,6,-2,194,0
506403,3,5,193,0
506413,-2,13,203,0
506424,-12,15,211,0
506435,-18,13,217,0
506446,-21,13,220,0
506457,-17,12,217,0
506468,-10,10,226,0
506479,-15,34,243,0
506491,-22,29,251,0
506501,-20,10,252,0
506512,-10,0,248,0
506523,2,0,243,0
506534,9,1,244,0
506545,12,3,255,0
506557,14,-18,271,1
506567,7,-12,258,0
506578,11,-13,277,0
506589,70,6,368,0
506600,62,52,381,0
506611,66,-24,323,0
506623,95,-45,325,0
506633,106,-23,352,0
506644,83,-20,308,0
506655,60,-37,245,0
506666,36,-50,227,0
506678,19,-44,206,1
506688,9,-52,186,0
506699,3,-50,172,0
506710,10,-31,157,0
506721,28,-124,230,0
506732,65,-53,150,0
506743,68,-21,178,0
506754,76,-8,179,0
506765,81,10,192,0
506776,94,5,209,0
506787,99,-2,209,0
506798,102,-6,209,0
506809,103,-7,214,0
506820,101,-9,220,0
506831,96,-15,223,0
506842,89,-18,219,0
506853,82,-17,218,0
506864,73,-20,214,0
506875,67,-23,217,0
506886,62,-16,220,0
506897,63,-17,222,0
506908,62,-18,220,0
506919,62,-18,221,0
506930,60,-16,217,0
506941,58,-12,217,0
506953,52,-9,217,0
506963,48,-7,218,0
506974,45,-2,221,0
506985,40,0,222,0
506996,40,1,226,0
507008,42,0,229,0
507018,39,3,229,0
507029,32,4,235,0
507040,26,3,238,0
507051,22,3,240,0
507062,18,1,238,0
507073,16,0,236,0
507084,15,-1,233,0
507095,14,0,233,0
507106,14,0,228,0
507117,16,-2,226,0
507128,16,-3,225,0
507139,17,-2,223,0
507150,20,-4,229,0
507161,21,0,230,0
507172,20,2,233,0
507184,20,3,237,0
507194,18,5,238,0
507205,18,4,238,0
507216,16,4,240,0
507228,16,4,240,0
507238,14,3,236,0
507249,13,3,234,0
507260,12,2,231,0
507271,6,8,225,0
507282,1,12,224,0
507293,0,17,227,0
507304,1,20,228,0
507315,2,23,228,0
507326,4,29,227,0
507337,6,30,225,0
507348,8,23,227,0
507360,12,-2,225,1
507370,19,-39,238,0
507381,28,-49,234,0
507393,32,-28,217,0
507403,41,-36,198,0
507414,39,-71,214,0
507425,29,-91,229,0
507436,34,-41,211,0
507447,27,-25,223,0
507458,18,-13,239,0
507469,11,-2,256,0
507481,17,6,268,1
507492,22,10,270,0
507503,31,4,266,0
507513,33,-5,252,0
507524,32,-16,239,0
507535,31,-26,224,0
507546,29,-28,212,0
507557,27,-28,207,0
507568,20,-24,202,0
507579,16,-27,195,0
507591,16,-28,192,0
507601,21,-22,201,0
507612,22,-23,216,0
507623,22,-23,228,0
507634,16,-27,230,0
507645,17,-23,233,0
507656,16,-17,233,0
507667,20,-15,233,0
507678,26,-13,233,0
507689,34,-14,229,0
507700,40,-12,228,0
507711,45,-9,233,0
507722,48,-7,242,0
507733,53,-9,244,0
507744,51,-10,242,0
507755,46,-12,240,0
507766,31,-10,232,0
507778,26,-12,234,0
507788,24,-12,234,0
507799,23,-11,235,0
507810,21,-13,237,0
507821,19,-11,234,0
507832,14,-11,233,0
507843,11,-15,229,0
507854,9,-16,228,0
507865,11,-16,230,0
507876,12,-15,231,0
507887,12,-15,230,0
507898,14,-14,228,0
507909,17,-11,232,0
507922,24,-9,231,0
507932,27,-9,234,0
507943,28,-11,232,0
507954,29,-12,231,0
507965,29,-12,231,0
507976,27,-12,227,0
507987,29,-9,232,0
507998,28,-14,228,0
508009,30,-12,231,0
508020,31,-11,231,0
508031,30,-15,231,0
508042,33,-13,231,0
508053,32,-11,233,0
508064,31,-11,233,0
508075,31,-11,232,0
508086,28,-12,228,0
508097,27,-13,229,0
508108,29,-14,229,0
508119,29,-13,226,0
508130,30,-12,227,0
508141,30,-12,227,0
508153,32,-13,227,0
508163,29,-12,226,0
508174,27,-14,227,0
508185,26,-13,228,0
508196,27,-14,229,0
508208,29,-15,229,0
508218,28,-13,231,0
508229,28,-12,230,0
508240,27,-10,232,0
508251,27,-10,231,0
508262,29,-11,231,0
508273,30,-11,230,0
508284,30,-11,231,0
508295,29,-12,231,0
508306,29,-12,230,0
508317,29,-11,231,0
508328,29,-12,230,0
508340,30,-11,230,0
508350,31,-9,230,0
508361,31,-9,232,0
508372,32,-11,233,0
508383,33,-10,231,0
508394,33,-9,231,0
508405,32,-11,229,0
508417,30,-8,227,0
508428,30,-8,225,0
508438,29,-7,223,0
508449,30,-7,221,0
508460,30,-5,224,0
508471,28,-6,228,0
508482,28,-9,225,0
508493,28,-7,231,0
508504,29,-6,231,0
508515,27,-5,229,0
508526,29,-6,232,0
508537,29,-8,229,0
508548,28,-5,229,0
508559,28,-6,228,0
508570,30,-7,229,0
508581,28,-9,228,0
508593,30,-8,229,0
508603,30,-5,229,0
508614,29,-7,229,0
508625,29,-9,225,0
