timestamp,accX,accY,accZ,step
546228,29,27,222,0
546239,25,23,209,0
546250,44,34,240,0
546261,34,34,241,0
546272,34,33,235,0
546283,35,32,227,0
546293,35,35,226,0
546303,37,38,229,0
546314,39,35,230,0
546325,40,38,231,0
546336,44,39,230,0
546347,46,42,230,0
546358,47,40,226,0
546369,45,37,225,0
546380,45,34,223,0
546391,45,39,223,0
546401,46,40,224,0
546412,46,43,224,0
546423,46,44,226,0
546434,46,46,227,0
546444,48,50,226,0
546454,50,52,223,0
546465,52,53,223,0
546476,52,55,220,0
546487,50,54,217,0
546498,51,57,215,0
546509,54,56,213,0
546520,55,57,215,0
546530,54,58,218,0
546541,57,62,219,0
546552,60,68,226,0
546563,56,72,238,0
546574,57,73,228,0
546585,50,72,220,0
546596,46,71,214,0
546607,47,75,211,0
546618,58,83,219,0
546629,57,77,230,0
546640,60,64,231,0
546651,61,47,231,0
546662,55,22,224,0
546673,52,7,218,0
546684,49,-11,215,0
546695,37,-20,225,0
546706,42,-18,245,0
546717,48,-10,263,0
546728,47,-3,281,0
546739,42,-7,283,0
546750,62,-19,294,0
546761,76,-13,290,0
546772,88,-12,280,0
546783,95,-14,260,0
546794,96,-17,248,0
546805,87,-22,244,0
546816,70,-28,236,0
546827,63,-30,232,0
546838,64,-32,223,0
546849,66,-35,212,0
546860,72,-37,206,0
546871,76,-36,201,0
546882,80,-37,200,0
546893,77,-33,196,0
546904,72,-32,192,0
546915,59,-18,190,0
546926,52,-15,192,0
546937,47,-17,200,0
546948,48,-23,208,0
546959,51,-25,213,0
546970,54,-26,216,0
546981,61,-31,217,0
546992,64,-33,220,0
547003,69,-35,224,0
547014,71,-33,228,0
547025,72,-34,228,0
547036,73,-39,227,0
547047,74,-38,223,0
547058,69,-41,222,0
547069,65,-39,223,0
547080,58,-39,228,0
547091,56,-37,230,0
547102,52,-35,238,0
547113,49,-34,241,0
547124,49,-29,244,0
547135,49,-23,244,0
547146,49,-20,241,0
547157,50,-18,239,0
547168,52,-21,231,0
547179,56,-26,221,0
547190,57,-28,214,0
547201,58,-29,208,0
547212,56,-31,207,0
547223,57,-34,208,0
547234,56,-33,211,0
547245,47,-28,217,0
547256,43,-26,218,0
547267,45,-25,221,0
547278,45,-21,220,0
547289,43,-19,216,0
547300,41,-18,213,0
547311,37,-21,211,0
547322,35,-21,215,0
547333,32,-24,218,0
547344,29,-30,223,0
547355,31,-32,228,0
547366,31,-31,232,0
547377,32,-28,233,0
547388,34,-27,236,0
547399,35,-27,235,0
547410,38,-26,231,0
547421,43,-26,229,0
547432,47,-26,228,0
547443,52,-27,224,0
547454,56,-29,222,0
547465,56,-28,222,0
547476,57,-27,223,0
547487,56,-27,225,0
547499,53,-28,222,0
547510,47,-25,221,0
547521,44,-26,221,0
547532,43,-24,224,0
547543,42,-24,227,0
547554,42,-22,229,0
547565,41,-23,222,0
547576,39,-21,220,0
547587,38,-20,216,0
547598,37,-19,215,0
547609,40,-22,219,0
547620,43,-24,223,0
547631,42,-26,226,0
547642,40,-29,227,0
547653,41,-28,229,0
547664,41,-23,229,0
547675,43,-23,230,0
547686,45,-20,233,0
547697,45,-21,231,0
547708,50,-20,231,0
547719,53,-19,231,0
547730,52,-26,226,0
547741,50,-24,224,0
547752,48,-24,222,0
547763,48,-25,224,0
547774,48,-24,228,0
547785,48,-21,230,0
547796,49,-20,232,0
547807,46,-19,233,0
547818,43,-16,231,0
547829,41,-17,231,0
547840,37,-22,231,0
547851,37,-24,229,0
547862,37,-23,229,0
547873,36,-22,226,0
547884,35,-23,228,0
547895,37,-24,229,0
547906,35,-22,229,0
547917,35,-21,230,0
547928,36,-24,232,0
547939,36,-25,232,0
547950,35,-24,229,0
547961,36,-23,226,0
547972,35,-23,226,0
547983,34,-22,226,0
547994,36,-22,227,0
548005,36,-24,227,0
548016,37,-26,227,0
548027,39,-24,226,0
548038,41,-22,227,0
548049,40,-22,227,0
548060,40,-20,227,0
548071,36,-22,228,0
548082,36,-21,227,0
548093,37,-23,230,0
548104,38,-23,231,0
548115,36,-24,231,0
548126,36,-20,232,0
548137,36,-18,231,0
548148,35,-17,231,0
548159,35,-18,231,0
548170,35,-20,229,0
548181,37,-23,228,0
548192,37,-21,228,0
548203,39,-22,226,0
548214,40,-22,226,0
548226,39,-22,226,0
548237,38,-21,226,0
548248,39,-23,228,0
548259,39,-22,229,0
548270,38,-22,231,0
548281,39,-21,231,0
548292,38,-22,230,0
548303,38,-22,228,0
548315,38,-22,229,0
548326,39,-22,230,0
548337,40,-22,227,0
548348,39,-24,227,0
548359,37,-23,227,0
548370,36,-22,227,0
548381,36,-23,228,0
548392,35,-24,228,0
548403,34,-23,227,0
548414,34,-23,227,0
548425,36,-22,227,0
548436,37,-24,227,0
548447,38,-22,227,0
548458,37,-22,227,0
548469,38,-22,226,0
548480,38,-21,225,0
548491,40,-20,226,0
548502,38,-19,228,0
548513,38,-19,230,0
548524,40,-21,232,0
548535,40,-23,232,0
548546,40,-22,228,0
548557,40,-23,226,0
548568,38,-24,225,0
548579,38,-22,224,0
548590,38,-23,226,0
548601,39,-23,227,0
548612,37,-22,226,0
548623,38,-22,226,0
548634,37,-19,228,0
548645,38,-19,228,0
548656,40,-18,228,0
548667,40,-17,227,0
548678,39,-19,229,0
548689,38,-19,228,0
548700,40,-23,228,0
548711,40,-23,229,0
548722,40,-20,228,0
548733,39,-20,228,0
548744,38,-18,228,0
548755,36,-20,228,0
548766,37,-19,229,0
548777,37,-17,228,0
548788,36,-18,230,0
548799,35,-18,231,0
548810,36,-17,229,0
548821,36,-16,229,0
548832,37,-16,229,0
548843,38,-15,230,0
548854,38,-17,229,0
548865,40,-16,230,0
548876,41,-15,230,0
548887,41,-13,230,0
548898,43,-13,231,0
548909,39,-16,230,0
548920,37,-17,229,0
548931,35,-19,229,0
548942,36,-14,230,0
548953,37,-14,232,0
548964,37,-13,233,0
548975,35,-15,234,0
548986,32,-14,231,0
548997,30,-9,229,0
549008,29,-9,228,0
549019,26,-10,226,0
549030,25,-13,228,0
549041,26,-15,230,0
549052,24,-12,229,0
549063,23,-12,231,0
549074,24,-14,234,0
549085,28,-12,238,0
549096,30,-13,240,0
549107,28,-16,238,0
549118,29,-15,235,0
549129,31,-16,234,0
549140,31,-14,230,0
549151,29,-15,229,0
549162,31,-19,229,0
549173,34,-26,239,0
549184,30,-27,246,0
549195,30,-33,228,0
549206,26,-39,224,0
549217,32,-44,225,0
549228,33,-45,226,0
549239,26,-48,239,0
549250,21,-38,256,0
549261,24,-25,269,0
549272,22,-14,263,0
549283,21,-15,258,0
549294,23,-17,249,0
549305,24,-14,238,0
549316,26,-18,228,0
549327,31,-21,220,0
549338,35,-20,217,0
549349,37,-20,211,0
549360,44,-20,207,0
549371,45,-19,202,0
549382,47,-20,196,0
549393,51,-16,187,0
549404,52,-25,180,0
549415,51,-26,176,0
549426,46,-24,175,0
549437,36,-25,179,0
549448,27,-22,184,0
549459,16,-17,195,0
549470,4,-17,204,0
549481,-4,-18,220,0
549492,-10,-17,234,0
549503,-9,-13,246,0
549514,-6,-9,253,0
549525,-2,-6,255,0
549536,-3,-12,254,0
549547,-3,-6,256,0
549558,-7,0,258,0
549569,-10,3,258,0
549580,-9,6,256,0
549591,-2,4,251,0
549602,5,1,240,0
549613,13,-1,234,0
549624,18,-6,232,0
549635,22,-9,230,0
549647,22,-10,229,0
549658,19,-13,226,0
549669,15,-11,223,0
549680,13,-8,217,0
549691,12,-9,217,0
549702,12,-9,215,0
549713,11,-8,218,0
549724,13,-4,221,0
549735,16,-4,222,0
549746,15,-1,223,0
549757,13,1,226,0
549768,11,5,227,0
549779,12,4,230,0
549790,12,4,234,0
549801,13,9,238,0
549812,10,10,241,0
549823,10,10,243,0
549834,8,8,246,0
549845,7,8,240,0
549856,7,10,234,0
549867,8,11,235,0
549878,8,11,234,0
549889,8,8,236,0
549900,10,10,234,0
549911,9,11,232,0
549922,12,14,232,0
549933,12,15,234,0
549944,14,14,234,0
549955,14,14,230,0
549966,14,13,229,0
549977,18,11,229,0
549988,19,9,231,0
549999,22,8,229,0
550010,18,4,227,0
550021,16,6,227,0
550032,13,5,228,0
550043,10,10,230,0
550054,9,9,229,0
550065,7,9,229,0
550076,6,11,228,0
550087,6,10,225,0
550098,3,4,233,0
550109,5,-1,232,0
550120,8,8,220,0
550131,2,12,217,0
550142,-1,15,216,0
550153,-5,13,221,0
550164,-6,11,220,0
550175,-14,12,208,0
550186,-19,11,211,0
550197,-22,11,214,0
550208,-21,8,216,0
550219,-18,7,219,0
550230,-15,9,225,0
550241,-15,9,234,0
550252,-2,6,248,0
550263,35,10,277,0
550274,74,24,310,0
550285,98,37,326,1
550296,107,45,339,0
550307,111,32,340,0
550318,122,7,330,0
550329,130,-3,368,0
550341,83,5,314,0
550352,53,1,252,0
550363,17,-11,203,0
550374,-9,-38,161,0
550385,-8,-41,133,0
550396,-5,-51,128,0
550407,1,-55,130,0
550418,9,-51,139,0
550429,17,-37,160,0
550440,28,-21,187,0
550451,43,-11,211,0
550462,60,-4,230,0
550473,74,-1,243,0
550484,84,-4,236,0
550495,80,-11,225,0
550506,76,-18,220,0
550517,70,-25,215,0
550528,63,-24,214,0
550539,58,-24,212,0
550550,57,-19,214,0
550561,56,-14,214,0
550572,58,-12,216,0
550583,53,-6,216,0
550594,43,-9,217,0
550605,33,-10,216,0
550616,30,-13,214,0
550627,31,-11,208,0
550638,28,-9,203,0
550649,21,2,205,0
550660,24,2,211,0
550672,27,4,212,0
550683,28,6,215,0
550694,33,7,216,0
550705,29,10,224,0
550716,27,10,226,0
550727,23,8,224,0
550738,25,9,224,0
550749,24,11,225,0
550760,23,11,225,0
550771,23,11,226,0
550782,20,13,227,0
550793,18,15,227,0
550804,9,21,222,0
550815,7,24,222,0
550826,6,27,226,0
550837,4,31,227,0
550848,2,36,230,0
550859,0,37,233,0
550870,0,31,230,0
550881,0,29,221,0
550892,0,33,216,0
550903,1,31,216,0
550914,6,31,219,0
550925,7,29,219,0
550936,8,27,218,0
550947,13,31,212,0
550958,13,38,210,0
550969,7,49,220,0
550980,0,57,223,0
550992,-11,57,227,0
551003,-13,51,230,1
551014,3,44,239,0
551025,20,23,252,0
551036,19,-2,275,0
551047,4,-21,293,0
551058,-10,-12,302,0
551069,-14,1,317,0
551080,-11,1,328,0
551091,12,9,326,0
551102,38,22,335,0
551113,67,17,336,0
551124,129,28,307,0
551135,151,27,278,0
551146,160,26,263,0
551157,153,21,248,0
551168,136,13,219,0
551179,120,11,205,0
551190,95,0,194,0
551201,70,-13,184,0
551212,56,-29,185,0
551223,48,-28,198,0
551234,43,-21,216,0
551245,37,-11,226,0
551256,28,-13,238,0
551267,21,-6,240,0
551278,16,-1,241,0
551289,19,6,232,0
551300,23,7,221,0
551311,25,8,214,0
551322,30,9,212,0
551333,35,11,207,0
551344,41,8,204,0
551355,47,10,196,0
551366,54,9,201,0
551377,56,7,199,0
551388,60,8,196,0
551399,60,8,195,0
551410,57,7,195,0
551421,54,7,199,0
551432,51,5,200,0
551443,45,2,197,0
551454,34,2,207,0
551465,26,3,204,0
551476,18,6,203,0
551487,13,7,206,0
551498,7,10,204,0
551509,1,10,202,0
551520,-1,8,202,0
551531,-4,4,207,0
551542,-1,2,201,0
551553,-1,9,195,0
551564,-13,18,202,0
551575,-21,12,212,0
551586,-24,11,213,0
551597,-27,12,212,0
551608,-29,13,215,0
551619,-29,12,228,0
551630,-27,20,236,0
551641,-34,22,236,0
551652,-37,9,234,0
551663,-36,1,234,0
551674,-33,3,242,0
551685,-31,6,249,0
551696,-35,7,255,0
551707,-41,9,261,0
551718,-46,12,268,0
551729,-57,12,276,1
551740,-58,14,296,0
551751,-29,16,348,0
551762,19,16,389,0
551773,61,31,384,0
551784,106,3,360,0
551795,153,0,380,0
551806,182,-5,398,0
551817,150,-9,343,0
551828,103,-28,260,0
551839,72,-42,212,0
551850,47,-48,183,0
551861,45,-54,154,0
551872,53,-43,144,0
551883,54,-40,129,0
551894,58,-33,124,0
551905,55,-21,129,0
551916,55,-14,145,0
551927,66,-10,162,0
551938,76,-1,179,0
551949,82,-2,183,0
551960,90,1,187,0
551971,93,5,196,0
551982,90,9,207,0
551993,83,12,219,0
552004,74,14,229,0
552015,59,16,236,0
552026,48,9,235,0
552037,40,11,233,0
552048,44,10,222,0
552059,40,7,213,0
552070,35,6,210,0
552081,33,7,210,0
552092,31,9,210,0
552103,32,8,213,0
552114,27,7,210,0
552125,24,8,214,0
552136,21,11,217,0
552147,20,12,216,0
552158,17,15,215,0
552169,13,19,216,0
552180,8,20,220,0
552191,9,20,226,0
552202,9,21,235,0
552213,8,17,233,0
552224,10,14,232,0
552235,12,9,228,0
552246,13,8,226,0
552257,11,6,224,0
552268,11,6,222,0
552280,7,12,220,0
552291,5,12,216,0
552302,6,9,211,0
552313,4,12,209,0
552324,1,15,209,0
552335,0,13,212,0
552346,3,15,216,0
552357,3,15,219,0
552368,2,14,222,0
552379,-4,11,225,0
552390,-9,8,224,0
552401,-15,8,230,0
552412,-14,4,234,0
552423,-14,5,235,0
552434,-4,8,234,0
552445,-1,12,234,0
552456,-10,20,233,0
552467,-22,27,229,0
552478,-19,37,227,0
552489,-4,38,232,0
552500,15,26,249,0
552511,10,-17,277,1
552522,-1,-40,290,0
552533,-5,-15,304,0
552544,0,30,323,0
552555,21,61,325,0
552566,56,65,304,0
552577,86,44,288,0
552588,138,3,253,0
552600,154,-3,228,0
552611,165,-7,217,0
552622,176,-6,207,0
552633,175,6,211,1
552644,162,15,216,0
552655,141,18,232,0
552666,110,15,238,0
552677,73,6,241,0
552688,40,-4,235,0
552699,15,-8,238,0
552710,7,-1,246,0
552721,-13,-8,238,0
552732,-25,3,243,0
552743,-24,13,233,0
552754,-17,20,228,0
552765,-10,26,224,0
552776,-1,30,221,0
552787,7,27,217,0
552798,22,24,208,0
552809,36,21,207,0
552820,50,12,208,0
552831,64,8,208,0
552842,82,4,203,0
552853,77,5,211,0
552864,74,3,208,0
552875,69,1,206,0
552886,64,0,205,0
552897,55,-8,202,0
552908,30,-18,211,0
552919,16,-8,206,0
552930,3,3,207,0
552941,-8,13,209,0
552952,-13,15,215,0
552963,-13,24,218,0
552974,-10,29,213,0
552985,-8,40,213,0
552996,-3,40,210,0
553007,-2,43,206,0
553018,-6,39,205,0
553029,-7,29,203,0
553040,-9,22,205,0
553051,-9,15,216,0
553062,-9,9,223,0
553073,-11,8,244,0
553084,-7,11,254,0
553095,-4,19,253,0
553106,-5,22,246,0
553117,-5,17,245,0
553128,-7,17,244,0
553139,-15,19,237,0
553150,-26,17,230,0
553161,-40,16,224,0
553172,-49,13,224,0
553183,-37,14,234,1
553194,-2,32,254,0
553205,37,56,288,0
553216,65,66,318,0
553227,88,65,322,0
553238,151,35,351,0
553249,172,23,384,0
553260,170,6,392,0
553271,135,-1,326,0
553282,78,-25,224,0
553293,43,-45,162,0
553304,28,-55,131,0
553315,29,-54,123,1
553326,33,-39,127,0
553337,35,-25,132,0
553348,36,-12,147,0
553359,38,4,164,0
553370,39,16,190,0
553381,41,42,219,0
553392,51,52,236,0
553403,77,32,221,0
553414,76,27,201,0
553425,81,25,200,0
553436,77,29,215,0
553447,80,28,221,0
553458,80,28,216,0
553469,76,20,209,0
553480,72,7,211,0
553491,62,0,208,0
553503,50,-6,205,0
553513,36,-4,209,0
553524,23,-4,217,0
553535,9,-2,221,0
553546,0,-5,222,0
553557,-4,-3,222,0
553568,-8,0,219,0
553579,-4,12,217,0
553590,0,21,219,0
553601,6,27,226,0
553612,12,32,231,0
553623,10,36,234,0
553634,6,38,235,0
553645,4,39,233,0
553656,0,41,230,0
553667,0,39,231,0
553678,-2,37,225,0
553689,-2,35,221,0
553700,1,35,218,0
553711,6,35,215,0
553722,10,36,215,0
553733,16,35,217,0
553744,27,35,224,0
553755,28,35,224,0
553766,30,31,225,0
553777,33,28,229,0
553788,35,25,234,0
553799,37,24,233,0
553810,31,22,229,0
553821,27,16,228,0
553832,25,21,230,0
553843,21,29,230,0
553854,13,35,235,0
553865,2,42,235,0
553876,-9,48,232,0
553887,-20,49,227,1
553898,-16,56,225,0
553909,25,56,246,0
553920,30,35,274,0
553931,23,7,288,0
553943,19,10,291,0
553954,15,20,301,0
553965,17,17,305,0
553976,13,16,304,0
553987,14,15,302,0
553998,30,22,300,0
554009,57,23,294,0
554020,88,26,280,1
554031,123,30,258,0
554042,149,32,235,0
554053,157,33,217,0
554064,145,11,211,0
554075,125,3,207,0
554086,112,0,201,0
554097,95,-1,208,0
554108,77,-6,218,0
554119,56,-5,228,0
554130,33,-4,232,0
554141,21,4,237,0
554152,7,10,233,0
554163,4,11,227,0
554174,5,21,225,0
554185,7,30,223,0
554196,14,31,221,0
554207,21,23,223,0
554218,31,22,220,0
554229,54,8,214,0
554240,61,4,203,0
554251,66,2,195,0
554262,73,2,196,0
554273,77,1,198,0
554284,81,2,194,0
554295,68,1,204,0
554306,63,0,209,0
554317,55,-1,214,0
554328,41,-5,212,0
554339,27,1,208,0
554350,10,6,198,0
554361,-4,12,198,0
554372,-16,9,201,0
554383,-16,15,205,0
554394,-14,17,205,0
554405,-7,16,202,0
554416,-2,13,197,0
554427,0,12,199,0
554438,1,7,209,0
554449,2,7,212,0
554460,1,6,219,0
554471,3,6,229,0
554482,-1,10,237,0
554493,-9,7,238,0
554504,-13,1,237,0
554515,-16,-2,229,0
554526,-17,9,241,0
554537,-16,3,255,0
554548,-15,6,252,0
554559,-28,22,240,0
554570,-27,21,256,0
554581,-2,32,296,0
554592,39,42,352,1
554603,83,48,394,0
554614,102,56,396,0
554625,117,29,364,0
554636,146,20,327,0
554647,151,19,311,0
554658,154,-11,338,0
554669,130,-41,324,0
554680,95,-18,237,0
554691,48,-30,164,0
554702,27,-44,145,0
554713,24,-50,147,0
554724,1,-45,132,0
554735,1,-39,130,0
554746,14,-27,137,0
554757,25,-20,160,0
554768,35,1,192,0
554779,51,15,224,0
554790,67,20,234,0
554801,74,19,238,0
554812,77,12,241,0
554823,78,7,233,0
554834,80,2,223,0
554845,86,0,214,0
554856,83,3,211,0
554867,76,5,209,0
554878,66,3,206,0
554889,54,2,210,0
554900,42,3,214,0
554911,26,8,219,0
554922,14,11,217,0
554933,5,15,217,0
554944,-2,18,215,0
554955,-12,21,216,0
554966,-20,21,217,0
554977,-24,19,214,0
554988,-23,16,214,0
554999,-17,14,214,0
555010,-13,15,218,0
555021,-5,15,224,0
555032,1,18,229,0
555043,9,13,232,0
555054,17,7,234,0
555065,17,2,230,0
555076,18,0,227,0
555087,18,-2,223,0
555098,18,-5,220,0
555109,17,-6,218,0
555120,16,-4,218,0
555131,18,-2,219,0
555142,24,0,218,0
555153,25,3,218,0
555164,22,3,216,0
555175,18,1,212,0
555186,19,3,212,0
555197,18,4,215,0
555208,17,2,214,0
555219,11,5,224,0
555230,7,6,226,0
555241,2,10,227,0
555252,0,16,228,0
555263,-4,21,237,0
555274,-7,25,240,0
555285,0,29,243,0
555296,11,32,250,0
555307,27,26,264,1
555318,30,9,285,0
555329,30,-7,295,0
555340,32,-2,309,0
555351,47,0,314,0
555362,63,3,318,0
555373,65,0,321,0
555384,77,9,308,0
555395,86,14,279,0
555406,101,18,251,0
555417,112,22,222,0
555428,117,29,198,0
555439,116,31,186,0
555450,108,26,176,0
555461,94,21,173,0
555472,80,20,184,0
555483,67,19,197,0
555494,52,19,216,0
555505,38,20,228,0
555516,23,17,239,0
555527,11,11,244,0
555538,9,11,244,0
555549,13,9,236,0
555560,18,9,231,0
555571,21,12,227,0
555582,20,11,224,0
555593,23,12,220,0
555604,23,12,217,0
555615,27,10,218,0
555626,35,7,220,0
555637,42,5,220,0
555648,42,8,215,0
555659,44,7,211,0
555670,43,6,207,0
555681,42,8,209,0
555692,37,9,207,0
555703,19,0,222,0
555714,16,1,209,0
555725,7,0,202,0
555736,1,-2,200,0
555747,0,4,200,0
555758,1,4,198,0
555769,5,4,187,0
555780,6,15,188,0
555791,8,12,193,0
555802,10,7,188,0
555813,4,12,189,0
555824,-5,15,203,0
555835,-12,14,215,0
555846,-14,16,225,0
555857,-19,17,233,0
555868,-20,17,244,0
555879,-11,9,257,0
555890,-14,7,272,0
555901,-12,1,282,0
555912,-18,7,271,0
555923,-30,15,259,0
555934,-35,19,261,0
555945,-19,33,277,0
555956,14,43,311,0
555967,47,50,344,1
555978,62,52,354,0
555989,74,34,334,0
556000,103,21,312,0
556011,135,-1,334,0
556022,146,-25,373,0
556033,130,-10,335,0
556044,66,-31,173,0
556055,52,-48,145,0
556066,47,-53,145,0
556077,38,-40,151,0
556088,32,-33,148,0
556099,29,-26,149,0
556110,31,-17,148,0
556121,32,-6,160,0
556132,34,9,184,0
556143,40,26,206,0
556154,52,36,232,0
556165,61,33,237,0
556176,72,21,230,0
556187,73,17,224,0
556198,69,12,227,0
556209,72,7,225,0
556220,74,0,209,0
556231,73,-3,199,0
556242,62,-1,198,0
556253,57,0,208,0
556264,49,0,213,0
556275,38,0,221,0
556286,25,1,226,0
556297,16,1,227,0
556308,6,0,225,0
556319,0,1,220,0
556330,-5,1,212,0
556341,-9,2,210,0
556352,-11,1,208,0
556363,-7,2,209,0
556374,-2,5,216,0
556385,4,18,229,0
556396,4,24,237,0
556407,3,26,238,0
556418,2,26,236,0
556429,1,26,227,0
556440,1,23,222,0
556451,2,23,217,0
556462,4,22,215,0
556473,6,23,216,0
556484,8,27,223,0
556495,14,24,229,0
556506,22,20,228,0
556517,24,16,225,0
556528,21,11,225,0
556539,21,5,228,0
556550,29,-3,222,0
556561,30,-3,221,0
556572,31,3,218,0
556583,28,13,216,0
556594,26,25,217,0
556605,19,32,217,0
556616,13,34,220,0
556627,10,44,220,0
556638,3,51,226,1
556649,0,54,234,0
556660,0,58,240,0
556671,8,60,251,0
556682,16,52,272,0
556693,15,25,294,0
556705,17,2,294,0
556716,18,5,297,0
556727,21,7,298,0
556738,28,9,295,0
556749,39,15,285,0
556760,53,22,268,0
556771,66,8,255,0
556782,78,-8,243,0
556793,101,-18,229,0
556804,123,-17,212,0
556815,137,-14,198,0
556826,140,-9,194,0
556837,136,-3,197,0
556848,134,0,211,0
556859,111,4,227,0
556870,86,11,239,0
556881,64,7,249,0
556892,39,7,256,0
556903,14,6,259,0
556914,6,12,262,0
556925,0,14,256,0
556936,0,11,240,0
556947,0,7,226,0
556958,2,11,230,0
556969,9,5,228,0
556980,24,10,224,0
556991,31,10,227,0
557002,39,7,224,0
557013,48,3,214,0
557024,69,-4,205,0
557035,72,-4,208,0
557046,78,1,210,0
557057,77,-1,210,0
557068,74,-2,213,0
557079,67,-2,211,0
557090,59,-2,207,0
557101,44,0,206,0
557112,25,1,206,0
557123,7,5,206,0
557134,-3,7,206,0
557145,-14,10,210,0
557156,-16,12,216,0
557167,-13,9,218,0
557178,-10,12,224,0
557189,-3,26,208,0
557200,-3,24,199,0
557211,-2,23,193,0
557222,2,25,187,0
557233,2,28,193,0
557244,1,22,209,0
557255,1,17,213,0
557266,-1,16,210,0
557277,-9,18,212,0
557288,-17,13,211,0
557299,-22,11,211,0
557310,-26,10,209,0
557321,-28,14,211,0
557332,-28,19,218,0
557343,-27,24,227,0
557354,-27,27,236,0
557365,-21,25,241,0
557376,-15,34,254,0
557387,-15,30,263,0
557398,-15,19,270,0
557409,-14,20,269,0
557420,-4,22,271,0
557431,27,24,297,1
557442,80,45,354,0
557453,118,65,402,0
557464,136,76,400,0
557475,135,42,354,0
557486,139,-14,324,0
557497,155,-9,314,0
557508,156,6,314,0
557519,76,-17,266,0
557531,23,-27,217,0
557541,-7,-37,170,0
557552,-16,-56,140,0
557563,-7,-51,142,0
557574,5,-40,152,0
557585,13,-23,159,0
557596,23,-19,157,0
557607,40,-10,157,0
557618,62,-1,169,0
557629,77,8,186,0
557640,94,14,204,0
557651,110,11,212,0
557662,119,5,211,0
557673,121,-1,210,0
557684,124,-1,209,0
557695,111,-2,207,0
557706,96,-2,206,0
557717,84,-1,206,0
557728,76,-1,207,0
557739,67,2,211,0
557750,58,6,214,0
557761,56,1,219,0
557772,53,5,225,0
557783,53,2,231,0
557794,49,12,229,0
557805,46,13,232,0
557816,42,14,234,0
557827,38,20,232,0
557838,36,25,226,0
557849,33,24,220,0
557860,25,23,216,0
557871,24,15,218,0
557882,24,12,219,0
557893,28,6,219,0
557904,33,2,221,0
557915,39,2,224,0
557926,46,1,226,0
557937,52,3,227,0
557948,55,9,222,0
557959,53,11,223,0
557970,52,9,225,0
557981,45,5,224,0
557992,39,5,228,0
558003,33,4,226,0
558014,29,4,225,0
558025,16,2,228,0
558036,12,5,225,0
558047,9,4,226,0
558058,4,9,223,0
558069,1,13,226,0
558080,-4,18,225,0
558091,-9,22,224,0
558102,-14,23,222,0
558113,-17,22,223,0
558124,-16,20,222,0
558135,-14,18,219,0
558146,-7,11,218,0
558157,-2,5,218,0
558168,3,3,219,0
558179,4,1,220,0
558190,2,0,222,0
558201,-4,2,221,0
558212,-14,3,218,0
558223,-21,5,216,1
558234,-22,6,219,0
558245,-7,11,223,0
558256,20,7,223,0
558267,45,-18,236,0
558278,57,-44,255,0
558289,64,-46,262,0
558300,49,-32,261,0
558311,35,-9,268,0
558322,40,12,281,0
558333,47,16,310,0
558344,60,18,337,0
558355,100,40,326,0
558366,128,48,296,0
558377,145,41,261,0
558388,145,25,230,0
558400,141,11,206,0
558411,129,5,201,0
558422,107,0,195,0
558433,75,-7,191,0
558444,46,-6,193,0
558455,27,4,204,0
558466,5,13,215,0
558477,-2,26,239,0
558488,0,31,251,0
558499,4,26,254,0
558510,17,18,254,0
558521,19,22,248,0
558532,22,18,235,0
558543,20,14,227,0
558554,22,9,217,0
558565,25,4,211,0
558576,32,4,208,0
558587,37,4,203,0
558598,42,6,197,0
558609,48,7,197,0
558620,48,8,198,0
558631,46,8,202,0
558642,43,6,205,0
558653,38,5,209,0
558664,29,1,208,0
558675,14,-2,205,0
558686,7,-5,202,0
558697,4,-4,202,0
558708,1,-2,201,0
558719,1,-5,200,0
558730,-3,-8,196,0
558741,-2,-10,198,0
558752,-4,-9,198,0
558763,-7,-1,203,0
558774,-15,1,211,0
558785,-22,3,214,0
558796,-27,8,220,0
558807,-30,11,221,0
558818,-29,11,220,0
558829,-28,14,221,0
558840,-21,13,231,0
558851,-14,14,243,0
558862,-9,29,253,0
558873,-15,28,253,0
558884,-16,14,250,0
558895,-14,8,247,0
558906,-12,2,242,0
558917,-20,0,239,0
558928,-32,0,242,0
558939,-40,1,251,1
558950,-33,-1,270,0
558961,-1,-7,309,0
558972,45,-18,348,0
558983,90,-8,359,0
558994,102,4,324,0
559005,130,0,309,0
559016,148,16,317,0
559027,145,11,329,0
559038,104,37,283,0
559049,67,-85,340,0
559060,76,-21,252,0
559071,43,-18,207,0
559082,43,-52,190,0
559093,31,-36,179,0
559104,31,-46,159,0
559115,38,-34,156,0
559126,43,-26,147,0
559137,52,-17,150,0
559148,63,-10,163,0
559159,76,-2,181,0
559170,88,4,202,0
559181,92,7,209,0
559192,94,13,213,0
559203,97,13,224,0
559214,92,12,225,0
559225,84,10,224,0
559237,75,7,225,0
559248,69,4,220,0
559259,67,0,215,0
559270,68,3,212,0
559281,65,2,210,0
559292,63,3,214,0
559303,57,4,218,0
559314,47,6,222,0
559325,40,10,224,0
559336,35,14,227,0
559347,32,15,225,0
559358,29,15,224,0
559369,23,15,224,0
559380,17,12,222,0
559391,17,9,223,0
559402,19,11,221,0
559413,22,11,221,0
559424,19,16,223,0
559435,20,14,230,0
559446,23,14,233,0
559457,26,11,232,0
559468,24,13,233,0
559479,22,7,233,0
559490,19,5,232,0
559501,16,4,230,0
559512,13,4,230,0
559523,8,4,232,0
559534,5,3,230,0
559545,2,6,226,0
559556,0,5,222,0
559567,0,6,221,0
559578,-1,10,223,0
559589,-2,12,228,0
559600,-1,14,230,0
559611,-5,14,231,0
559622,-5,14,227,0
559633,-3,11,227,0
559644,0,10,227,0
559655,0,2,221,0
559666,0,0,218,0
559677,2,0,216,0
559688,1,2,217,0
559699,-6,3,219,0
559710,-16,1,218,1
559721,-22,1,213,0
559732,-16,6,209,0
559743,-3,1,213,0
559754,8,-7,224,0
559765,9,-17,240,0
559776,8,-21,243,0
559787,4,-14,248,0
559798,-1,-6,261,0
559809,-6,16,279,0
559820,-4,20,289,0
559831,6,8,306,0
559842,26,8,319,0
559853,53,23,322,0
559864,80,44,321,0
559875,97,60,308,0
559886,114,59,287,0
559897,126,40,256,0
559908,128,16,222,0
559919,123,-4,194,0
559930,114,-22,173,0
559941,99,-39,157,0
559952,89,-47,147,0
559963,81,-43,149,0
559974,72,-38,162,0
559985,64,-24,189,0
559996,59,-21,196,0
560007,52,-12,209,0
560018,38,-2,226,0
560029,32,12,242,0
560040,26,19,257,0
560051,13,23,261,0
560062,5,20,270,0
560073,2,21,264,0
560084,0,16,257,0
560095,-1,17,253,0
560106,2,15,245,0
560117,6,8,237,0
560128,13,5,233,0
560139,18,5,226,0
560150,30,0,216,0
560161,34,-2,215,0
560172,36,-2,211,0
560183,32,-3,207,0
560194,29,-3,208,0
560205,26,-5,211,0
560216,22,-5,215,0
560227,19,-4,216,0
560238,19,-5,211,0
560249,19,-6,209,0
560260,20,-6,210,0
560271,18,-8,208,0
560282,16,-6,208,0
560293,18,-4,214,0
560304,15,-1,220,0
560315,13,-1,221,0
560326,10,0,221,0
560337,6,-1,218,0
560348,2,1,222,0
560359,0,0,226,0
560370,0,1,228,0
560381,-3,6,228,0
560392,-6,10,230,0
560403,-9,11,237,0
560414,-11,11,241,0
560425,-13,15,237,0
560436,-14,9,233,0
560447,-13,3,230,0
560458,-6,2,232,0
560469,-2,1,229,0
560480,6,-6,224,0
560491,11,-4,213,0
560502,10,-1,214,0
560513,9,-6,220,0
560524,12,-1,231,0
560535,15,1,232,0
560546,12,5,232,0
560557,8,7,239,0
560568,2,7,244,0
560579,-7,12,250,0
560590,-10,17,262,0
560601,5,40,283,1
560612,27,71,295,0
560623,43,84,299,0
560634,57,78,282,0
560645,72,45,234,0
560656,80,37,225,0
560667,112,35,253,0
560678,143,51,316,0
560689,129,57,346,0
560700,86,45,319,0
560711,61,21,257,0
560722,51,13,216,0
560733,42,11,196,1
560744,32,6,188,0
560755,32,10,189,0
560766,36,12,191,0
560777,43,12,194,0
560788,52,21,195,0
560799,65,31,191,0
560810,90,48,183,0
560821,96,58,188,0
560832,97,66,191,0
560843,95,69,190,0
560854,97,71,193,0
560865,99,71,195,0
560876,94,69,201,0
560887,92,65,204,0
560898,95,64,204,0
560909,96,65,205,0
560920,97,64,210,0
560931,100,63,215,0
560942,102,61,214,0
560953,98,60,217,0
560964,97,60,219,0
560975,79,60,212,0
560986,69,62,212,0
560997,64,64,213,0
561008,62,65,214,0
561019,60,64,216,0
561030,58,65,219,0
561041,60,63,219,0
561052,62,62,220,0
561063,65,62,221,0
561074,70,63,219,0
561085,76,64,219,0
561096,76,64,216,0
561107,76,65,215,0
561118,76,67,215,0
561129,73,64,216,0
561140,71,57,221,0
561151,71,56,222,0
561162,71,55,222,0
561173,69,54,219,0
561184,69,53,220,0
561195,69,55,221,0
561206,69,53,221,0
561217,69,54,222,0
561228,68,52,226,0
561239,70,51,223,0
561250,70,52,222,0
561261,69,50,219,0
561272,72,49,217,0
561283,72,46,216,0
561294,71,44,219,0
561305,69,39,217,0
561316,70,41,214,0
561327,70,45,214,0
561338,68,47,214,0
561349,67,48,216,0
561360,65,53,217,0
561371,63,56,217,0
561383,63,58,215,0
561394,62,60,213,0
561405,60,62,214,0
561416,59,62,216,0
561427,58,64,216,0
561438,59,66,216,0
561449,63,69,213,0
561460,65,67,213,0
561471,68,68,213,0
561482,70,69,214,0
561493,72,69,215,0
561504,72,70,217,0
561515,75,71,217,0
561526,74,69,219,0
561537,76,71,222,0
561548,75,69,222,0
561559,74,69,221,0
561570,73,71,217,0
561581,73,73,215,0
561592,74,76,211,0
561603,72,83,211,0
561614,73,90,209,0
561625,75,92,208,0
561636,74,90,208,0
561647,70,86,210,0
561658,65,89,210,0
561669,61,89,207,0
561680,59,92,206,0
561691,56,91,208,0
561702,52,95,210,0
561713,44,98,211,0
561724,41,103,212,1
561735,41,103,215,0
561746,40,97,216,0
561757,38,89,214,0
561768,33,82,213,0
561779,38,79,216,0
561790,55,83,212,0
561801,79,89,212,0
561812,98,76,216,0
561823,96,48,219,0
561834,78,6,215,0
561845,56,-15,212,0
561856,46,-18,210,0
561867,47,-14,216,0
561878,55,-10,226,0
561889,61,-6,241,0
561900,63,1,255,0
561911,73,14,269,0
561922,84,29,282,0
561933,84,39,289,0
561944,63,28,302,0
561955,46,8,295,0
561966,35,-8,282,0
561977,34,-18,269,0
561988,35,-21,259,0
561999,33,-21,249,0
562010,35,-24,237,0
562021,41,-26,226,0
562032,47,-26,216,0
562043,44,-25,205,0
562054,37,-17,201,0
562065,27,-11,195,0
562076,19,-2,194,0
562087,14,5,192,0
562098,12,9,193,0
562109,18,21,201,0
562120,23,19,205,0
562131,25,20,206,0
562142,29,22,212,0
562153,28,22,219,0
562164,33,19,223,0
562175,37,18,230,0
562186,39,18,232,0
562197,37,18,228,0
562208,39,20,229,0
562219,35,24,228,0
562230,28,28,227,0
562241,26,23,225,0
562252,23,25,227,0
562263,20,29,232,0
562274,8,25,232,0
562285,8,27,231,0
562296,8,29,231,0
562307,8,29,230,0
562318,4,23,235,0
562329,12,23,236,0
562341,15,30,228,0
562352,9,28,225,0
562363,7,22,226,0
562374,6,25,231,0
562385,11,10,228,0
562396,19,18,218,0
562407,6,19,217,0
562418,7,14,205,0
562429,3,18,204,0
562440,-1,20,206,0
562451,-11,25,210,0
562462,-23,30,215,0
562473,-28,33,225,0
562484,-29,36,235,0
562495,-28,41,243,0
562506,-30,39,250,0
562517,-37,37,242,0
562528,-34,38,235,0
562539,-33,38,232,0
562550,-32,40,225,1
562561,-24,38,239,0
562572,-6,50,264,0
562583,10,63,297,0
562594,45,55,314,0
562605,88,27,333,0
562616,119,9,357,0
562627,126,39,360,0
562638,129,39,323,0
562649,110,1,269,0
562660,89,-15,212,0
562671,65,-31,172,0
562682,40,-32,160,0
562693,21,-32,158,0
562704,7,-26,156,0
562715,2,-20,154,0
562726,2,-8,167,0
562737,9,3,183,0
562748,29,6,199,0
562759,69,2,219,0
562770,80,3,220,0
562781,79,4,222,0
562792,76,4,230,0
562803,74,3,232,0
562814,76,2,228,0
562825,67,3,225,0
562836,54,-1,229,0
562847,49,4,227,0
562858,46,2,224,0
562869,46,0,225,0
562880,42,2,219,0
562891,42,4,218,0
562902,40,8,214,0
562913,37,12,212,0
562924,28,14,207,0
562935,22,12,210,0
562946,18,12,212,0
562957,15,12,211,0
562968,14,12,213,0
562979,16,15,218,0
562990,18,17,224,0
563001,22,21,231,0
563012,23,21,236,0
563024,24,20,238,0
563035,26,22,238,0
563046,27,19,234,0
563057,27,18,227,0
563068,28,16,222,0
563079,33,10,224,0
563090,36,7,224,0
563101,39,2,228,0
563112,43,1,226,0
563123,41,1,227,0
563134,39,1,226,0
563145,39,-1,230,0
563156,36,1,228,0
563167,31,0,223,0
563178,27,2,222,0
563189,22,3,220,0
563200,14,5,220,0
563211,10,6,219,0
563222,2,7,220,0
563233,1,9,222,0
563244,0,12,224,0
563255,0,17,225,0
563266,-1,16,225,0
563277,-2,17,223,0
563288,2,27,222,0
563299,9,38,227,1
563310,26,44,239,0
563321,40,44,255,0
563332,44,36,273,0
563343,34,25,278,0
563354,27,25,277,0
563365,28,33,279,0
563376,26,32,286,0
563387,31,30,298,0
563398,40,37,311,0
563409,64,51,298,0
563420,69,49,282,0
563431,72,33,257,0
563442,75,20,227,0
563453,81,6,201,0
563464,84,2,185,0
563475,80,-3,174,0
563486,74,-9,166,0
563497,67,-14,164,0
563508,63,-15,174,0
563519,62,-7,198,0
563530,57,1,220,0
563541,50,7,238,0
563552,41,12,254,0
563563,33,14,265,0
563574,22,20,273,0
563585,24,20,265,0
563596,28,15,255,0
563607,32,11,248,0
563618,33,7,245,0
563629,38,3,240,0
563640,44,1,235,0
563651,46,0,225,0
563662,52,0,217,0
563673,58,-2,214,0
563684,62,-3,214,0
563695,65,-3,207,0
563706,66,-3,205,0
563717,69,-1,207,0
563728,68,1,206,0
563739,58,4,207,0
563750,48,5,206,0
563761,37,6,205,0
563772,19,8,205,0
563783,5,8,208,0
563794,0,6,212,0
563805,-5,8,215,0
563816,-12,8,212,0
563827,-16,6,211,0
563838,-10,10,216,0
563849,-3,8,218,0
563860,2,11,217,0
563871,3,15,220,0
563882,4,9,213,0
563893,7,16,205,0
563904,-1,12,215,0
563915,-7,10,211,0
563926,-12,7,215,0
563937,-20,7,217,0
563948,-27,7,218,0
563959,-35,3,216,0
563970,-34,1,219,0
563981,-23,2,232,0
563992,-19,6,249,0
564003,-15,1,256,0
564014,-13,2,253,0
564025,-19,13,245,0
564036,-29,17,248,0
564047,-23,19,263,0
564058,8,39,300,0
564069,59,70,373,0
564080,64,62,369,0
564091,66,31,330,1
564102,78,11,300,0
564113,88,3,295,0
564124,102,-18,290,0
564135,104,-37,284,0
564146,88,-45,261,0
564157,83,-42,219,0
564168,68,-41,180,0
564179,60,-33,162,0
564190,55,-28,158,0
564201,47,-29,152,0
564212,39,-24,157,0
564223,32,-13,172,0
564234,40,4,203,0
564245,45,13,219,0
564256,43,14,231,0
564267,35,17,236,0
564278,34,22,238,0
564289,38,14,233,0
564300,37,6,224,0
564311,43,0,211,0
564322,60,-4,199,0
564333,82,-8,191,0
564344,91,-9,191,0
564355,98,-9,192,0
564366,96,-4,201,0
564377,87,-1,205,0
564388,76,1,208,0
564399,57,1,205,0
564410,44,2,209,0
564421,33,0,211,0
564432,19,1,217,0
564443,11,1,221,0
564454,8,1,222,0
564465,4,3,225,0
564476,4,5,226,0
564487,4,4,228,0
564498,4,2,228,0
564509,6,3,229,0
564520,9,4,226,0
564531,12,4,223,0
564542,14,6,222,0
564553,16,9,220,0
564564,13,10,218,0
564575,13,10,220,0
564586,12,15,222,0
564597,10,11,218,0
564608,9,10,216,0
564619,6,9,216,0
564630,3,12,217,0
564641,7,12,219,0
564652,10,16,217,0
564663,11,17,217,0
564674,12,14,216,0
564685,11,18,216,0
564696,13,24,218,0
564707,13,23,225,0
564718,15,21,230,1
564729,15,-1,256,0
564740,4,-8,282,0
564751,-4,-2,306,0
564762,0,7,321,0
564773,10,23,336,0
564784,11,25,347,0
564795,19,15,350,0
564806,29,27,340,0
564817,40,35,323,0
564828,56,37,300,0
564839,72,36,273,0
564850,85,26,248,0
564861,97,15,215,0
564872,107,5,185,0
564883,106,0,162,0
564894,87,-14,129,0
564905,77,-13,133,0
564916,76,-6,153,0
564927,69,3,183,0
564938,67,12,209,0
564949,64,18,237,0
564960,57,18,253,0
564971,45,16,263,0
564982,33,15,268,0
564993,30,15,270,0
565004,24,7,264,0
565015,21,1,249,0
565026,21,0,242,0
565037,21,2,240,0
565048,24,3,238,0
565059,29,2,229,0
565070,28,1,223,0
565081,27,1,215,0
565092,25,-1,214,0
565103,24,-2,215,0
565114,23,-3,217,0
565125,20,-4,215,0
565136,15,-4,215,0
565147,14,-9,209,0
565158,6,-9,221,0
565169,4,-6,210,0
565180,0,-8,197,0
565191,-2,-7,189,0
565202,-6,-3,182,0
565213,-10,-2,191,0
565224,-7,4,196,0
565235,-6,8,202,0
565246,-5,10,199,0
565257,-3,11,200,0
565268,-4,11,200,0
565279,-4,11,206,0
565290,-6,9,215,0
565301,-9,9,222,0
565312,-14,12,229,0
565323,-22,11,232,0
565334,-31,6,229,0
565345,-37,2,224,0
565356,-41,1,216,0
565367,-42,-3,211,0
565378,-37,-6,212,0
565389,-29,-13,222,0
565400,-23,-14,229,0
565411,-12,-13,241,0
565422,-17,15,255,0
565433,-25,3,263,0
565444,-31,4,267,1
565455,-27,4,264,0
565466,-1,0,273,0
565477,45,8,315,0
565488,92,34,365,0
565500,132,43,395,0
565511,151,47,386,0
565522,154,24,360,0
565533,149,7,334,0
565544,94,26,306,0
565555,25,29,213,0
565566,22,-82,316,0
565577,24,10,208,0
565588,27,-50,168,0
565599,38,-52,170,0
565610,54,-46,171,0
565621,65,-42,156,0
565632,69,-26,140,0
565643,80,-22,136,0
565654,90,-15,143,0
565665,102,-3,167,0
565676,112,13,190,0
565687,117,20,202,0
565698,115,24,219,0
565709,103,15,218,0
565720,103,10,214,0
565731,100,9,214,0
565742,98,3,206,0
565753,101,2,206,0
565764,96,1,204,0
565775,92,-1,197,0
565786,88,-1,203,0
565797,80,3,212,0
565808,70,7,223,0
565819,61,12,227,0
565830,56,9,233,0
565841,52,14,229,0
565852,48,15,223,0
565863,38,15,223,0
565874,13,15,212,0
565885,6,15,208,0
565896,2,16,212,0
565907,0,23,219,0
565918,-2,26,223,0
565929,-3,26,227,0
565940,-3,24,231,0
565951,-1,20,234,0
565962,-2,24,233,0
565973,-2,21,234,0
565984,1,20,233,0
565995,3,16,228,0
566006,2,13,225,0
566017,3,13,227,0
566028,4,10,228,0
566039,6,13,233,0
566050,9,10,229,0
566061,13,10,224,0
566072,13,10,220,0
566084,11,14,221,0
566095,6,11,222,0
566106,8,8,219,0
566117,10,8,217,0
566128,6,6,215,0
566139,1,2,211,0
566150,-1,1,209,0
566161,-7,4,208,0
566172,-8,6,209,0
566183,-10,11,222,0
566194,-12,13,223,0
566205,-14,14,226,1
566216,-16,13,228,0
566227,-7,15,227,0
566238,7,13,227,0
566249,25,-5,234,0
566260,28,-31,251,0
566271,20,-41,259,0
566282,13,-21,266,0
566293,12,0,285,0
566304,19,19,311,0
566315,32,29,323,0
566326,49,23,346,0
566337,75,19,354,0
566348,111,29,311,0
566359,124,23,268,1
566370,128,9,232,0
566381,129,3,203,0
566392,122,-2,182,0
566403,106,-7,172,0
566414,86,-11,172,0
566425,65,-10,177,0
566436,51,-6,189,0
566447,38,-1,199,0
566458,35,7,218,0
566469,31,17,238,0
566480,22,34,257,0
566491,15,35,258,0
566502,14,42,259,0
566513,19,25,252,0
566524,22,15,248,0
566535,23,10,237,0
566546,24,4,223,0
566557,24,1,213,0
566568,28,1,205,0
566579,34,2,198,0
566590,40,4,198,0
566601,47,6,198,0
566612,49,7,201,0
566623,44,6,199,0
566634,37,4,199,0
566645,31,3,204,0
566656,24,0,206,0
566667,15,-2,204,0
566678,2,-8,201,0
566689,1,-12,196,0
566700,0,-11,190,0
566711,-2,-9,190,0
566722,-5,-7,192,0
566733,-10,-5,192,0
566744,-13,-6,189,0
566755,-18,-2,192,0
566766,-23,-1,200,0
566777,-29,0,209,0
566788,-37,3,217,0
566799,-41,7,230,0
566810,-42,6,236,0
566821,-43,10,225,0
566832,-42,15,224,0
566843,-40,8,246,0
566854,-38,5,258,0
566865,-31,-1,258,0
566876,-23,-1,255,0
566887,-20,0,251,1
566898,-24,-1,254,0
566910,-22,-10,264,0
566921,4,-10,308,0
566932,46,-15,346,0
566943,94,-6,358,0
566954,112,7,341,0
566965,105,-5,334,0
566976,123,-9,340,0
566987,139,5,350,0
566998,89,-5,308,0
567009,57,-9,260,0
567020,39,-10,223,0
567031,32,-28,193,0
567042,34,-37,170,0
567053,40,-34,161,0
567064,41,-26,159,0
567075,44,-18,155,0
567086,49,-15,154,0
567097,62,-10,171,0
567108,72,-3,183,0
567119,77,-1,194,0
567130,76,3,201,0
567141,81,4,204,0
567152,78,11,208,0
567163,68,14,226,0
567174,66,13,228,0
567185,66,11,224,0
567196,71,8,222,0
567207,73,7,219,0
567218,70,7,216,0
567229,64,8,215,0
567240,55,13,219,0
567251,47,15,221,0
567262,40,10,221,0
567273,37,11,220,0
567284,28,12,220,0
567295,20,16,221,0
567306,12,16,222,0
567317,4,18,225,0
567328,-14,18,223,0
567339,-13,17,224,0
567350,-16,18,227,0
567361,-18,20,228,0
567372,-13,17,232,0
567383,-8,15,233,0
567394,-4,14,230,0
567405,-1,11,228,0
567416,0,9,226,0
567427,-1,7,227,0
567438,-7,6,227,0
567449,-12,5,226,0
567460,-15,8,225,0
567471,-18,11,222,0
567482,-18,10,218,0
567493,-15,10,214,0
567504,-10,2,213,0
567515,-3,-2,212,1
567526,1,-2,211,0
567537,4,0,213,0
567548,8,2,215,0
567559,8,2,216,0
567570,6,7,216,0
567581,0,11,219,0
567592,-5,12,216,0
567603,-18,8,213,0
567614,-19,4,210,0
567625,-11,2,214,0
567636,1,-4,224,0
567647,13,-14,239,0
567658,9,-15,263,0
567669,10,-8,277,0
567680,9,2,298,0
567691,19,8,308,0
567702,32,30,315,0
567713,33,23,333,0
567724,47,5,349,0
567735,65,17,347,0
567746,84,37,326,0
567757,104,44,298,0
567768,115,34,267,0
567779,120,20,235,0
567790,120,6,201,0
567801,119,-4,172,0
567812,115,-10,151,0
567823,95,-22,138,0
567834,87,-20,144,0
567845,78,-13,159,0
567857,69,-7,180,0
567867,62,0,201,0
567878,56,8,227,0
567889,46,17,252,0
567900,36,18,267,0
567911,32,25,266,0
567922,26,22,259,0
567933,22,15,257,0
567944,20,12,253,0
567955,14,7,253,0
567966,14,1,245,0
567977,14,1,242,0
567988,17,0,229,0
567999,20,-1,221,0
568010,20,4,217,0
568021,21,1,212,0
568032,21,2,212,0
568043,18,2,212,0
568054,15,2,213,0
568065,10,5,209,0
568076,5,4,206,0
568087,2,3,202,0
568098,0,2,198,0
568109,-1,2,195,0
568120,-3,1,192,0
568131,-5,-3,186,0
568142,-7,-7,183,0
568153,-4,-6,184,0
568164,-7,-4,187,0
568175,-10,-1,191,0
568186,-11,0,202,0
568197,-14,2,214,0
568208,-19,7,222,0
568219,-27,10,228,0
568230,-34,12,228,0
568241,-42,13,227,0
568252,-43,13,226,0
568263,-37,15,233,0
568274,-30,20,247,0
568285,-27,17,256,0
568296,-24,13,254,0
568307,-20,12,252,0
568318,-14,19,253,0
568330,-20,16,264,0
568341,-23,5,275,0
568352,-32,1,275,1
568363,-25,-7,299,0
568374,9,-13,337,0
568385,67,-10,370,0
568396,104,10,381,0
568407,110,12,366,0
568418,121,12,350,0
568429,124,30,307,0
568440,93,54,252,0
568451,43,-82,330,0
568462,54,-7,231,0
568473,57,-30,192,1
568484,60,-16,180,0
568495,71,-30,160,0
568506,64,-18,158,0
568517,59,-23,152,0
568528,63,-26,153,0
568539,71,-24,165,0
568550,80,-19,180,0
568561,85,-12,195,0
568572,88,-10,206,0
568583,90,-5,212,0
568594,89,0,213,0
568605,80,3,219,0
568616,75,10,224,0
568627,73,13,224,0
568638,84,5,207,0
568649,85,6,205,0
568660,77,8,209,0
568671,70,6,213,0
568682,64,7,217,0
568693,59,7,219,0
568704,54,8,219,0
568715,43,13,223,0
568726,34,15,224,0
568737,21,17,223,0
568748,9,19,224,0
568759,-1,19,224,0
568770,-13,21,225,0
568781,-19,20,227,0
568792,-20,18,227,0
568803,-15,16,226,0
568814,-12,15,225,0
568825,-7,16,228,0
568836,0,17,228,0
568847,1,13,228,0
568858,5,8,229,0
568869,7,3,229,0
568880,7,0,229,0
568891,6,1,226,0
568902,4,1,228,0
568913,4,2,228,0
568924,1,5,226,0
568935,0,3,227,0
568946,0,6,225,0
568957,1,8,224,0
568968,9,3,217,0
568979,13,3,215,0
568990,15,0,216,0
569001,17,0,214,0
569012,20,1,215,0
569023,18,6,218,0
569034,18,11,222,0
569045,13,14,229,0
569056,5,14,229,0
569067,1,14,224,0
569078,-5,14,218,1
569089,-10,9,213,0
569100,-12,5,214,0
569111,-3,2,216,0
569122,22,-1,220,0
569133,44,-17,266,0
569144,39,-19,273,0
569155,31,-5,272,0
569166,20,10,275,0
569177,13,16,289,0
569188,1,-4,316,0
569199,1,-15,346,0
569210,25,3,357,0
569221,61,25,347,0
569232,101,34,313,0
569243,125,34,262,0
569254,131,28,222,0
569265,132,18,192,0
569276,132,9,172,0
569287,120,2,163,0
569298,88,-20,163,0
569309,73,-16,180,0
569320,61,-7,198,0
569331,46,-1,218,0
569342,32,3,243,0
569353,22,1,264,0
569364,11,-1,264,0
569375,6,0,262,0
569386,5,-6,255,0
569397,3,-1,251,0
569408,1,2,251,0
569419,6,5,248,0
569430,12,5,235,0
569441,19,7,220,0
569452,27,8,211,0
569463,37,9,194,0
569474,39,7,193,0
569485,37,9,194,0
569496,31,9,192,0
569507,25,10,193,0
569518,14,9,191,0
569529,6,8,193,0
569540,1,5,197,0
569551,-7,5,207,0
569562,-10,4,211,0
569573,-12,1,210,0
569584,-14,-1,210,0
569595,-18,-4,211,0
569606,-21,-7,207,0
569617,-26,-8,207,0
569628,-28,-9,207,0
569639,-27,-9,212,0
569650,-28,-5,221,0
569661,-32,-6,228,0
569672,-35,-8,235,0
569683,-39,-5,237,0
569694,-42,-6,233,0
569705,-44,-7,229,0
569716,-44,-6,228,0
569727,-36,0,235,0
569738,-36,24,236,0
569749,-41,9,238,0
569760,-35,-4,238,0
569771,-24,-16,237,0
569782,-14,-19,238,0
569793,-11,-26,258,0
569804,-8,-29,273,0
569815,4,-30,297,0
569826,31,-41,326,1
569837,68,-34,347,0
569848,91,-21,342,0
569859,92,-17,330,0
569870,85,-25,324,0
569881,87,-11,325,0
569892,90,8,320,0
569903,77,11,299,0
569914,62,-2,278,0
569925,50,-15,264,0
569936,44,-16,236,0
569947,43,-24,204,0
569958,43,-29,171,0
569969,45,-25,156,0
569980,45,-26,146,0
569991,53,-23,144,0
570002,59,-15,147,0
570013,69,-5,162,0
570024,78,2,183,0
570035,89,6,203,0
570046,99,8,208,0
570057,102,15,221,0
570068,100,21,230,0
570079,91,19,232,0
570090,87,20,235,0
570101,84,14,231,0
570112,82,14,224,0
570123,78,12,220,0
570134,72,15,218,0
570145,64,17,215,0
570156,52,21,214,0
570167,43,21,215,0
570178,35,22,216,0
570189,25,24,220,0
570200,19,27,227,0
570211,20,28,223,0
570222,9,25,223,0
570233,0,24,225,0
570244,-3,25,229,0
570255,-6,24,229,0
570266,-4,23,231,0
570277,-5,24,231,0
570288,3,19,234,0
570299,5,16,236,0
570310,7,14,231,0
570321,5,10,228,0
570332,2,6,225,0
570343,-1,6,223,0
570354,-3,3,224,0
570365,-5,6,221,0
570376,-11,9,226,0
570387,-11,11,225,0
570398,-12,13,224,0
570409,-10,13,224,0
570420,-10,15,222,0
570431,-9,18,220,0
570442,-10,20,219,0
570453,-8,20,222,0
570464,-7,22,224,0
570475,-8,20,224,0
570487,-8,17,226,0
570498,-7,13,225,0
570509,-5,9,224,0
570520,-5,11,223,0
570531,-6,7,221,0
570542,-5,8,222,0
570553,-2,10,223,0
570564,0,12,225,1
570575,-4,12,225,0
570586,-9,14,221,0
570597,-16,13,219,0
570608,9,20,216,0
570619,26,6,228,0
570630,23,-22,247,0
570641,9,-39,260,0
570652,0,-24,262,0
570663,-13,-4,281,0
570674,-29,6,308,0
570685,-22,12,319,0
570696,0,23,332,0
570707,39,19,338,0
570718,86,31,336,0
570729,122,52,317,0
570740,142,52,287,0
570751,151,33,246,0
570762,148,14,211,0
570773,128,-3,164,0
570784,112,-11,151,0
570795,92,-21,145,0
570806,70,-20,152,0
570817,58,-16,170,0
570828,38,-3,196,0
570839,23,3,220,0
570850,7,10,243,0
570861,-4,14,265,0
570872,-10,20,273,0
570883,-5,24,274,0
570894,-3,26,268,0
570905,-1,24,259,0
570916,-1,19,249,0
570927,0,13,243,0
570938,7,1,228,0
570949,14,-1,223,0
570960,26,-5,214,0
570971,38,-4,209,0
570982,50,-6,205,0
570993,56,-5,205,0
571004,57,-5,207,0
571015,56,-4,207,0
571026,50,-2,208,0
571037,41,-4,208,0
571048,31,-7,207,0
571059,23,-10,203,0
571070,15,-9,197,0
571081,12,-10,191,0
571092,10,-9,191,0
571103,6,-1,189,0
571114,2,1,191,0
571125,-1,3,193,0
571136,-3,4,198,0
571147,-2,5,207,0
571158,-3,8,214,0
571169,-9,2,229,0
571180,-7,2,238,0
571191,-3,4,222,0
571202,0,16,201,0
571213,-11,30,216,0
571224,-21,22,249,0
571235,-21,11,251,0
571246,-19,14,242,0
571257,-26,23,241,0
571268,-41,15,244,0
571280,-38,11,250,1
571291,-37,9,256,0
571302,-39,21,247,0
571313,-40,21,249,0
571324,-38,14,261,0
571335,-20,7,287,0
571346,15,2,315,0
571357,57,7,346,0
571368,91,25,363,0
571379,95,26,344,0
571390,100,12,318,0
571401,118,14,311,0
571412,128,17,306,0
571423,99,-19,292,0
571434,72,-27,252,0
571445,62,-30,213,0
571456,54,-39,183,0
571467,44,-47,160,0
571478,45,-46,152,0
571489,44,-38,148,0
571500,46,-32,147,0
571511,51,-20,155,0
571522,61,-6,175,0
571533,65,1,191,0
571544,66,4,202,0
571555,65,11,214,0
571566,64,9,216,0
571577,69,11,221,0
571588,73,5,228,0
571599,69,5,231,0
571610,68,2,226,0
571621,67,-2,216,0
571632,66,-7,213,0
571643,65,-5,211,0
571654,63,-3,208,0
571665,60,-1,211,0
571676,53,1,216,0
571687,48,6,220,0
571698,44,9,224,0
571709,38,10,226,0
571720,33,10,224,0
571731,26,12,222,0
571742,17,10,219,0
571753,2,16,219,0
571764,-1,18,222,0
571775,-3,20,225,0
571786,-5,21,227,0
571797,-4,22,230,0
571808,-3,23,232,0
571819,-1,20,232,0
571830,1,18,230,0
571841,6,13,230,0
571852,9,10,229,0
571863,13,10,226,0
571874,14,9,224,0
571885,13,9,224,0
571896,14,10,223,0
571907,19,9,223,0
571918,16,11,224,0
571930,17,5,220,0
571941,20,1,219,0
571952,20,0,221,0
571963,18,1,221,0
571974,16,2,221,0
571985,17,4,220,0
571996,17,8,219,0
572007,19,10,219,0
572018,18,13,219,0
572029,17,12,218,0
572040,13,15,218,0
572051,5,20,216,1
572062,-8,14,218,0
572073,1,20,221,0
572084,20,21,228,0
572095,39,10,245,0
572106,40,0,265,0
572117,29,-5,284,0
572128,22,-4,280,0
572139,21,0,275,0
572150,21,5,275,0
572161,24,19,280,0
572172,26,9,301,0
572183,39,0,319,0
572194,58,1,321,0
572205,76,10,311,0
572216,95,11,283,0
572227,101,5,225,0
572238,106,2,194,0
572249,108,-3,177,0
572260,100,-10,165,0
572271,97,-22,162,0
572282,94,-26,164,0
572293,90,-26,174,0
572304,79,-20,185,0
572315,63,-14,197,0
572326,42,-7,215,0
572337,26,0,231,0
572348,18,8,249,0
572359,13,16,264,0
572370,8,17,268,0
572381,7,22,265,0
572392,6,15,253,0
572403,7,12,253,0
572414,8,9,255,0
572425,13,5,248,0
572436,22,0,243,0
572447,32,-1,233,0
572458,38,2,228,0
572469,38,2,220,0
572480,37,3,218,0
572491,34,3,218,0
572502,30,4,218,0
572513,25,6,217,0
572524,19,5,214,0
572535,14,3,213,0
572546,7,1,211,0
572557,1,-5,205,0
572568,-1,-4,201,0
572579,-1,-9,194,0
572590,-1,-9,192,0
572601,-1,-7,189,0
572612,-1,0,184,0
572623,0,3,184,0
572634,1,2,188,0
572645,4,3,196,0
572656,3,4,210,0
572667,3,8,221,0
572678,-3,14,221,0
572689,-10,18,224,0
572700,-15,22,227,0
572711,-21,23,228,0
572722,-24,33,246,0
572733,-34,38,251,0
572744,-36,18,254,0
572755,-28,6,246,0
572766,-18,6,241,0
572777,-15,12,239,0
572788,-12,14,243,0
572799,-14,13,250,0
572810,-20,10,256,0
572821,-27,2,257,0
572832,-35,1,257,0
572844,-26,1,269,0
572855,-3,10,294,0
572866,26,13,316,1
572877,64,13,302,0
572888,75,-6,292,0
572899,109,-2,298,0
572910,139,5,312,0
572921,151,-11,322,0
572932,121,-20,308,0
572943,88,-21,260,0
572954,71,-15,214,0
572965,55,-24,191,0
572976,44,-34,183,0
572987,39,-35,168,0
572998,40,-34,163,0
573009,45,-25,162,0
573020,50,-15,168,0
573031,61,-7,178,0
573042,66,0,202,0
573053,64,4,208,0
573064,59,4,209,0
573075,64,6,212,0
573086,70,5,218,0
573097,79,1,226,0
573108,79,-1,229,0
573119,77,-4,223,0
573130,74,-8,220,0
573141,70,-13,212,0
573152,67,-15,209,0
573163,65,-14,214,0
573174,64,-11,221,0
573185,61,-3,228,0
573196,53,-1,231,0
573207,45,5,233,0
573218,40,5,230,0
573229,36,6,229,0
573240,32,8,227,0
573251,24,6,224,0
573262,17,6,221,0
573273,10,5,218,0
573284,4,7,221,0
573295,-1,4,221,0
573306,-5,5,223,0
573317,-8,5,227,0
573328,-8,5,228,0
573339,-4,6,230,0
573350,-2,6,228,0
573361,0,3,227,0
573372,3,3,223,0
573383,3,3,222,0
573394,1,4,221,0
573405,0,4,224,0
573416,0,5,227,0
573427,2,5,228,0
573438,1,5,232,0
573449,-1,4,231,0
573460,-1,3,228,0
573471,0,1,227,0
573482,1,4,227,0
573493,5,3,234,0
573504,9,1,228,0
573515,7,1,222,0
573526,3,2,214,0
573537,0,5,206,0
573548,1,9,205,0
573559,1,12,210,0
573570,1,15,215,0
573581,-1,17,219,0
573592,-3,17,223,0
573603,-4,17,223,0
573614,1,15,222,1
573625,15,13,223,0
573636,27,8,227,0
573647,34,-6,232,0
573658,38,-14,232,0
573669,39,-11,229,0
573680,38,-6,235,0
573691,35,0,249,0
573702,42,9,258,0
573713,62,10,284,0
573724,82,14,298,0
573735,96,29,311,0
573746,107,40,321,1
573757,115,39,320,0
573768,120,39,312,0
573779,116,30,294,0
573790,109,19,268,0
573801,100,4,245,0
573812,89,-11,220,0
573823,82,-27,199,0
573834,77,-39,188,0
573845,73,-41,182,0
573856,69,-38,179,0
573867,67,-32,178,0
573878,69,-33,186,0
573889,67,-29,193,0
573900,61,-22,196,0
573911,59,-18,199,0
573922,58,-14,207,0
573933,56,-12,211,0
573944,46,-4,223,0
573955,42,11,237,0
573966,37,18,257,0
573977,22,20,266,0
573988,17,15,282,0
573999,18,8,275,0
574010,21,7,259,0
574021,20,7,252,0
574032,25,3,252,0
574043,37,-1,239,0
574054,44,0,229,0
574065,49,-2,229,0
574076,52,-3,215,0
574087,52,-1,207,0
574098,55,-5,207,0
574109,58,-8,206,0
574120,60,-8,205,0
574131,59,-7,203,0
574142,56,-9,202,0
574153,52,-7,196,0
574164,46,-3,199,0
574175,38,0,202,0
574186,30,1,211,0
574197,24,1,217,0
574208,22,0,223,0
574219,22,-3,228,0
574231,21,-3,234,0
574242,22,-4,240,0
574253,22,-7,242,0
574264,24,-9,240,0
574275,20,-5,243,0
574286,15,-4,245,0
574297,10,-1,240,0
574308,5,-2,234,0
574319,1,-2,229,0
574330,-2,-1,230,0
574341,-2,-2,224,0
574352,0,-11,218,0
574363,5,0,204,0
574374,6,-1,208,0
574385,11,1,213,0
574396,14,-1,213,0
574407,19,-1,218,0
574418,23,-1,219,0
574429,24,-4,224,0
574440,23,-6,224,0
574451,23,-3,221,0
574462,27,1,215,0
574473,35,7,218,0
574484,51,17,238,1
574495,65,33,257,0
574506,79,48,269,0
574517,90,62,276,0
574528,108,55,280,0
574539,107,42,281,0
574550,105,28,282,0
574561,92,25,269,0
574572,73,22,254,0
574583,51,19,240,0
574594,30,14,222,0
574605,19,10,206,0
574616,15,12,196,0
574627,15,18,193,0
574638,12,13,191,0
574649,19,22,185,0
574660,29,30,187,0
574671,43,39,192,0
574682,60,55,207,0
574693,73,62,205,0
574704,81,64,212,0
574715,89,63,215,0
574726,92,60,218,0
574737,95,61,220,0
574748,93,60,220,0
574759,93,59,220,0
574770,90,57,219,0
574781,89,56,220,0
574792,84,53,218,0
574803,80,53,216,0
574814,73,49,217,0
574825,68,46,216,0
574836,65,50,218,0
574847,61,49,219,0
574858,54,52,215,0
574869,53,50,216,0
574880,53,49,216,0
574891,51,54,216,0
574902,49,58,218,0
574913,54,58,218,0
574924,56,56,220,0
574935,57,56,224,0
574946,58,59,225,0
574957,62,59,229,0
574968,62,58,227,0
574979,62,58,227,0
574990,61,56,228,0
575001,61,54,230,0
575012,59,53,228,0
575023,58,54,222,0
575034,58,57,223,0
575045,57,55,220,0
575056,58,55,221,0
575067,60,58,220,0
575078,61,61,222,0
575089,60,62,223,0
575100,61,62,224,0
575111,61,65,224,0
575122,61,68,228,0
575133,62,61,231,0
575144,61,56,226,0
575155,58,60,220,0
575166,54,61,218,0
575177,55,64,216,0
575188,60,64,221,0
575199,59,63,225,0
575210,59,62,227,0
575221,59,60,227,0
575232,58,58,228,0
575243,59,59,227,0
575254,59,63,228,0
575265,59,62,228,0
575276,60,63,228,0
575287,60,64,226,0
575298,58,65,227,0
575309,58,66,227,0
575320,57,60,230,0
575331,59,59,228,0
575342,62,63,221,0
575353,59,59,217,0
575364,60,53,218,0
575375,62,47,219,0
575386,62,38,222,0
575397,62,28,226,1
575408,62,20,228,0
575419,63,22,230,0
575430,66,31,231,0
575441,68,40,234,0
575452,69,32,240,0
575463,66,35,240,0
575474,62,44,231,0
575485,57,40,225,0
575496,53,33,218,0
575507,54,29,211,0
575518,58,25,209,0
575529,55,25,205,0
575540,56,25,201,0
575551,60,23,198,0
575562,63,24,195,1
575573,63,24,198,0
575584,64,22,200,0
575595,63,22,206,0
575606,61,22,212,0
575617,57,22,223,0
575628,53,12,233,0
575639,47,8,244,0
575650,46,12,249,0
575661,46,16,256,0
575672,48,17,256,0
575683,54,9,240,0
575694,56,6,234,0
575705,57,3,231,0
575716,58,-1,233,0
575727,57,-10,234,0
575738,54,-17,235,0
575749,51,-21,238,0
575760,47,-26,240,0
575772,46,-26,244,0
575783,45,-28,244,0
575794,40,-24,249,0
575805,33,-25,255,0
575816,29,-28,254,0
575827,27,-32,250,0
575838,21,-32,234,0
575849,16,-27,232,0
575860,12,-24,235,0
575871,9,-23,230,0
575882,8,-24,225,0
575893,5,-23,217,0
575904,2,-19,214,0
575915,1,-14,216,0
575926,1,-11,218,0
575937,2,-8,221,0
575948,5,-7,219,0
575959,10,-5,221,0
575971,12,-4,225,0
575982,16,-1,225,0
575993,18,1,222,0
576004,13,2,222,0
576015,8,2,222,0
576026,6,4,225,0
576037,2,8,224,0
576048,0,9,225,0
576059,-3,9,222,0
576070,-2,9,219,0
576081,0,14,221,0
576092,0,17,225,0
576103,4,16,228,0
576114,6,15,227,0
576125,7,14,224,0
576136,9,15,214,0
576147,10,15,216,0
576158,10,15,218,0
576169,8,12,221,0
576180,12,9,221,0
576191,15,13,220,0
576202,20,13,221,0
576213,22,13,226,0
576224,24,12,228,0
576235,26,8,227,0
576246,30,7,230,0
576257,32,6,233,0
576268,32,8,236,0
576279,29,5,241,0
576290,29,7,242,1
576301,22,11,239,0
576312,12,16,231,0
576323,-5,18,224,0
576334,-15,21,222,0
576345,-24,18,215,0
576356,-31,17,220,0
576367,-35,14,222,0
576378,-34,17,223,0
576389,-15,25,243,0
576400,17,43,283,0
576411,52,49,328,0
576422,79,50,352,0
576433,105,45,338,0
576444,139,23,329,1
576455,162,-7,346,0
576466,143,-5,335,0
576477,94,-36,291,0
576488,98,-39,180,0
576499,46,-59,137,0
576510,64,-49,130,0
576521,64,-50,128,0
576532,60,-40,137,0
576543,61,-24,163,0
576554,62,-11,193,0
576565,65,-1,218,0
576576,66,3,241,0
576587,72,2,249,0
576598,79,-3,246,0
576609,81,-20,231,0
576620,78,-28,215,0
576631,70,-28,205,0
576642,63,-23,200,0
576653,48,-13,203,0
576664,38,-5,213,0
576675,33,-2,222,0
576686,33,1,230,0
576697,30,-1,231,0
576708,30,-2,226,0
576719,24,-4,217,0
576730,20,-7,213,0
576741,17,-9,209,0
576752,14,-7,207,0
576763,14,-4,206,0
576774,14,0,210,0
576785,16,0,217,0
576796,22,2,219,0
576807,24,1,221,0
576818,24,6,223,0
576829,27,5,227,0
576840,27,7,226,0
576851,28,10,229,0
576862,24,11,231,0
576873,20,11,230,0
576884,16,11,233,0
576895,17,10,230,0
576906,12,12,229,0
576917,6,13,228,0
576928,1,15,231,0
576939,-1,14,231,0
576950,0,16,230,0
576961,0,15,226,0
576972,0,15,225,0
576983,2,12,228,0
576994,5,12,228,0
577005,15,13,229,0
577016,20,14,229,0
577027,28,16,230,0
577038,30,19,231,0
577049,30,20,226,0
577060,29,19,224,0
577071,25,26,220,0
577082,20,25,222,0
577093,18,28,224,0
577104,15,29,227,0
577115,13,26,227,0
577126,8,26,224,0
577137,5,26,222,0
577148,6,31,234,0
577159,4,33,234,0
577170,16,35,228,0
577181,34,38,226,0
577192,47,33,232,0
577203,50,22,252,0
577214,44,6,264,0
577225,37,6,281,0
577236,36,9,294,1
577247,39,5,297,0
577258,37,6,301,0
577269,38,1,312,0
577280,50,-6,317,0
577291,68,-1,312,0
577302,84,9,297,0
577313,121,16,247,0
577324,130,19,222,0
577335,131,20,203,0
577346,128,13,189,0
577357,123,0,178,0
577368,105,-11,179,0
577379,93,-16,188,0
577390,78,-14,194,1
577401,58,-5,211,0
577412,37,-2,225,0
577423,22,1,241,0
577434,8,5,251,0
577445,6,14,256,0
577456,3,20,253,0
577467,4,21,248,0
577478,8,16,228,0
577489,11,11,221,0
577500,18,11,218,0
577511,27,3,221,0
577522,34,2,216,0
577533,45,6,216,0
577544,54,1,214,0
577555,60,-1,205,0
577566,64,-1,204,0
577577,67,-1,206,0
577588,70,-1,209,0
577599,70,-1,213,0
577610,70,-3,208,0
577621,54,2,217,0
577632,45,2,215,0
577643,24,3,211,0
577654,15,5,206,0
577666,5,6,202,0
577677,0,6,201,0
577688,-6,4,205,0
577699,-11,-11,217,0
577710,-2,-4,216,0
577721,-9,6,207,0
577732,-15,6,208,0
577743,-11,8,205,0
577754,-9,12,183,0
577765,-9,27,204,0
577776,-16,16,231,0
577787,-14,10,223,0
577798,-26,12,221,0
577809,-29,14,226,0
577820,-28,11,235,0
577831,-25,15,246,0
577842,-26,20,250,0
577853,-27,17,250,0
577864,-30,15,248,0
577875,-35,19,249,0
577886,-43,23,248,0
577898,-53,23,250,0
577909,-57,25,257,1
577920,-44,30,279,0
577931,-16,33,312,0
577942,48,38,356,0
577953,64,29,344,0
577964,87,12,324,0
577975,118,14,322,0
577986,127,7,325,0
577997,122,1,293,0
578008,96,-15,250,0
578019,79,-31,254,0
578030,70,-53,249,0
578041,65,-54,216,0
578052,50,-52,181,0
578063,36,-52,154,0
578074,36,-46,145,0
578085,39,-33,145,0
578096,50,-19,140,0
578107,69,-2,168,0
578118,72,1,189,0
578129,67,8,201,0
578141,64,11,212,0
578152,63,14,224,0
578163,64,11,231,0
578174,70,6,231,0
578185,72,1,225,0
578196,73,-1,220,0
578207,72,-4,217,0
578218,72,-11,207,0
578229,73,-19,201,0
578240,72,-14,203,0
578251,69,-10,212,0
578262,51,1,226,0
578273,44,6,231,0
578284,37,6,232,0
578295,33,5,229,0
578306,24,6,224,0
578317,14,7,221,0
578328,7,7,217,0
578339,3,7,216,0
578350,1,5,213,0
578361,1,7,213,0
578372,5,9,215,0
578383,6,11,218,0
578394,8,9,220,0
578405,16,8,220,0
578416,22,7,222,0
578427,21,5,224,0
578438,18,4,226,0
578449,18,1,230,0
578461,13,4,228,0
578472,9,4,225,0
578483,8,4,224,0
578494,9,5,223,0
578505,8,6,225,0
578516,8,6,227,0
578527,13,7,227,0
578538,14,7,228,0
578549,15,4,228,0
578560,15,4,226,0
578571,14,2,222,0
578582,9,4,213,0
578593,5,6,211,0
578604,8,15,211,0
578615,5,23,214,0
578626,5,27,218,0
578637,1,24,220,0
578648,-6,17,221,0
578659,-8,16,215,1
578670,-9,20,219,0
578681,-2,18,225,0
578692,9,20,237,0
578703,20,16,253,0
578714,26,14,278,0
578725,30,17,297,0
578736,25,17,306,0
578747,5,35,298,0
578758,-5,34,314,0
578769,-3,7,342,0
578780,20,10,346,0
578791,56,29,336,0
578802,97,35,313,0
578813,125,30,281,0
578824,133,20,246,0
578835,132,12,212,0
578846,129,3,187,0
578857,124,-4,173,0
578868,113,-15,162,0
578879,100,-22,163,0
578890,89,-22,176,0
578901,81,-22,189,0
578912,48,-8,204,0
578923,32,-6,225,0
578934,20,1,243,0
578945,11,6,250,0
578956,6,10,256,0
578967,5,10,248,0
578978,9,10,243,0
578989,14,5,239,0
579000,20,5,231,0
579011,29,6,228,0
579022,34,6,223,0
579033,38,5,222,0
579044,41,2,218,0
579055,39,0,215,0
579066,39,-6,213,0
579077,37,-6,219,0
579088,32,-8,222,0
579099,26,-13,216,0
579110,21,-14,215,0
579121,17,-15,213,0
579132,15,-15,209,0
579143,8,-16,210,0
579154,1,-11,199,0
579165,-5,-7,194,0
579176,-12,-4,194,0
579187,-15,-1,194,0
579198,-17,3,200,0
579209,-20,5,205,0
579220,-24,5,208,0
579231,-29,11,208,0
579242,-42,18,208,0
579253,-50,22,211,0
579264,-55,22,216,0
579275,-59,21,219,0
579286,-61,20,219,0
579297,-59,15,220,0
579308,-55,10,216,0
579319,-49,3,211,0
579330,-39,-2,208,0
579341,-30,-7,207,0
579352,-23,-6,214,0
579363,-15,-7,225,0
579374,-8,-12,235,0
579385,-6,-15,239,0
579396,-2,-9,247,0
579407,-2,-12,252,0
579418,-7,-7,247,0
579429,-12,-1,244,1
579440,9,3,271,0
579451,51,16,328,0
579462,99,28,380,0
579473,130,52,391,0
579484,127,38,372,0
579495,121,-8,331,0
579506,115,-14,295,0
579517,96,-10,289,0
579528,79,-22,298,0
579539,59,-43,308,0
579550,24,-33,279,0
579561,7,-22,222,0
579572,-7,-34,166,0
579583,4,-21,164,0
579594,14,-12,155,0
579605,26,-5,151,0
579616,40,-2,159,0
579627,57,10,177,0
579638,64,22,197,0
579649,67,32,218,0
579660,73,27,224,0
579671,88,22,223,0
579682,102,18,225,0
579693,108,10,220,0
579704,109,1,218,0
579715,101,-2,208,0
579726,96,-5,202,0
579737,87,-1,207,0
579748,82,1,206,0
579759,66,7,207,0
579770,53,14,209,0
579781,45,18,219,0
579792,38,19,223,0
579803,31,20,229,0
579814,19,21,232,0
579825,7,18,231,0
579836,-2,15,227,0
579847,-11,11,222,0
579858,-21,11,222,0
579869,-28,8,220,0
579880,-28,10,224,0
579891,-23,12,223,0
579902,-12,12,229,0
579913,-7,12,228,0
579924,1,12,228,0
579935,4,12,226,0
579946,8,13,219,0
579957,8,10,215,0
579968,8,7,213,0
579979,7,5,216,0
579990,6,4,218,0
580001,8,2,222,0
580012,11,3,224,0
580023,16,5,229,0
580034,18,2,229,0
580045,20,1,224,0
580056,25,0,226,0
580067,32,2,229,0
580078,32,2,229,0
580089,33,0,223,0
580100,29,0,219,0
580111,18,3,216,0
580122,10,7,216,0
580133,3,7,215,0
580144,-2,9,213,0
580155,-4,11,209,0
580166,-8,10,208,0
580177,-12,14,205,0
580188,-11,21,211,0
580199,-1,27,222,1
580210,21,28,241,0
580221,35,16,268,0
580232,38,-5,298,0
580243,46,13,301,0
580254,57,22,309,0
580265,65,20,324,0
580276,80,27,324,0
580287,93,36,319,0
580298,110,29,312,0
580309,119,13,289,0
580320,123,1,259,0
580331,123,-4,236,0
580342,110,-5,212,0
580353,89,-7,197,0
580364,66,-6,188,0
580376,47,0,190,0
580387,11,11,206,0
580398,3,14,216,0
580409,2,17,227,0
580420,1,9,238,0
580431,4,7,239,0
580442,6,4,235,0
580453,11,3,233,0
580464,15,4,231,0
580475,25,5,234,0
580486,37,8,232,0
580497,43,5,226,0
580508,49,6,222,0
580519,54,10,222,0
580530,55,10,221,0
580541,57,11,221,0
580552,54,9,222,0
580563,52,8,220,0
580574,52,7,220,0
580585,48,7,219,0
580596,42,7,216,0
580607,37,7,212,0
580618,33,7,213,0
580629,28,12,212,0
580640,23,14,212,0
580651,21,17,213,0
580662,18,23,212,0
580673,12,24,218,0
580684,13,21,218,0
580695,10,16,224,0
580706,12,9,225,0
580717,22,32,224,0
580728,15,30,222,0
580739,20,37,214,0
580750,16,38,212,0
580761,18,30,209,0
580772,16,19,215,0
580783,14,14,211,0
580794,8,8,210,0
580805,0,2,208,0
580816,-3,0,206,0
580827,-6,2,210,0
580838,-2,5,225,0
580849,3,9,235,0
580860,8,8,243,0
580871,1,18,235,0
580882,-12,34,239,0
580893,-27,43,241,1
580904,-43,43,243,0
580915,-57,37,247,0
580926,-47,37,264,0
580937,-19,43,288,0
580948,4,49,315,0
580959,23,48,323,0
580970,54,48,309,0
580981,86,33,304,0
580992,110,16,312,0
581003,124,-15,321,0
581014,123,-32,303,0
581025,112,-37,256,0
581036,71,-35,169,0
581047,63,-31,160,0
581058,59,-18,153,0
581069,46,1,157,0
581080,48,6,168,0
581091,55,5,175,0
581102,58,14,191,0
581113,62,17,216,0
581124,70,19,231,0
581135,77,12,232,0
581146,73,4,226,0
581157,71,0,220,0
581168,73,0,210,0
581179,76,2,204,0
581190,76,3,203,0
581201,71,6,209,0
581212,49,17,221,0
581223,42,17,217,0
581234,41,16,218,0
581245,38,10,215,0
581256,33,8,215,0
581267,24,7,215,0
581279,16,11,213,0
581290,14,7,214,0
581301,16,7,214,0
581312,18,7,211,0
581323,24,10,211,0
581334,33,13,217,0
581345,33,19,218,0
581356,25,23,228,0
581367,21,24,229,0
581378,16,23,231,0
581389,14,22,234,0
581400,14,22,230,0
581411,14,18,226,0
581422,13,14,226,0
581433,18,7,225,0
581444,22,9,224,0
581455,25,9,222,0
581466,28,10,222,0
581477,33,11,224,0
581488,35,14,222,0
581499,32,18,224,0
581510,31,17,225,0
581521,21,17,219,0
581532,16,19,219,0
581543,12,21,224,0
581554,8,18,224,0
581565,4,17,222,0
581576,-2,25,221,0
581587,-10,27,226,0
581598,-16,31,233,0
581609,-19,32,236,0
581620,-21,35,238,0
581631,-19,35,239,0
581642,-9,39,239,0
581653,8,42,239,0
581664,35,48,251,0
581675,47,40,280,1
581686,28,-1,306,0
581697,20,2,304,0
581708,16,23,306,0
581719,5,12,314,0
581730,9,-13,316,0
581741,36,-6,314,0
581752,71,4,288,0
581763,109,7,257,0
581774,137,10,232,0
581785,152,17,212,0
581796,151,29,210,0
581807,146,34,212,0
581818,136,25,207,0
581829,119,21,205,0
581840,102,16,198,0
581851,46,3,221,0
581862,18,6,235,0
581873,-7,2,235,0
581884,-16,22,263,0
581895,-31,13,246,0
581906,-39,16,238,0
581917,-33,23,235,0
581928,-31,26,229,0
581939,-21,22,219,0
581950,-8,25,217,0
581961,4,28,216,0
581972,14,19,220,0
581983,24,13,219,0
581994,41,6,209,0
582005,52,-1,207,0
582016,63,-8,198,0
582027,64,-10,196,0
582038,61,-10,198,0
582049,56,-8,202,0
582060,48,-9,207,0
582071,38,-7,214,0
582082,27,-2,206,0
582093,14,1,199,0
582104,3,6,202,0
582115,-8,1,199,0
582126,-15,10,195,0
582137,-18,6,186,0
582148,-17,6,183,0
582159,-19,2,184,0
582170,-17,8,188,0
582181,-19,24,207,0
582192,-20,22,223,0
582203,-13,17,229,0
582214,-9,28,228,0
582225,-13,31,237,0
582236,-17,26,247,0
582247,-17,17,253,0
582258,-17,10,252,0
582270,-17,5,250,0
582281,-20,4,249,0
582292,-21,1,251,0
582303,-28,3,244,0
582314,-41,9,244,0
582325,-12,6,304,0
582336,25,26,346,0
582347,61,44,381,1
582358,78,50,388,0
582369,78,32,362,0
582380,88,13,326,0
582391,94,9,305,0
582402,97,-3,303,0
582413,99,-27,332,0
582424,62,-16,284,0
582435,56,-3,214,0
582446,50,-27,175,0
582457,55,-28,167,0
582468,58,-34,151,0
582479,56,-27,150,0
582490,64,-16,142,0
582501,67,-11,156,0
582512,69,-3,184,0
582523,70,3,201,0
582534,70,7,214,0
582545,75,4,223,0
582556,77,-1,220,0
582567,74,-3,221,0
582578,67,1,224,0
582589,66,1,225,0
582600,65,2,219,0
582611,65,-1,217,0
582622,63,-1,211,0
582633,54,1,212,0
582644,42,4,214,0
582655,25,10,222,0
582666,23,12,224,0
582677,16,8,221,0
582688,12,6,212,0
582699,7,2,207,0
582710,2,3,204,0
582721,-2,2,207,0
582732,-4,7,212,0
582743,-7,8,217,0
582754,-5,12,223,0
582765,-6,15,228,0
582776,-5,18,230,0
582787,-1,18,231,0
582798,0,18,230,0
582809,0,17,228,0
582820,-3,16,227,0
582831,0,15,224,0
582842,2,18,221,0
582853,2,19,221,0
582864,3,23,220,0
582875,6,25,223,0
582886,10,22,226,0
582897,13,16,224,0
582908,16,11,221,0
582919,19,6,217,0
582930,19,0,218,0
582941,23,-6,216,0
582952,24,-4,213,0
582963,26,0,213,0
582974,25,9,216,0
582985,18,25,218,0
582996,8,22,216,0
583007,-2,20,211,0
583018,-9,26,209,0
583029,-7,33,206,0
583040,4,40,218,1
583051,18,38,240,0
583062,24,21,272,0
583073,23,3,296,0
583084,16,8,310,0
583095,5,10,317,0
583106,-9,5,325,0
583117,-15,-1,321,0
583128,-8,13,315,0
583139,4,15,319,0
583150,67,26,313,1
583161,99,37,291,0
583172,119,34,263,0
583183,132,30,233,0
583194,134,20,199,0
583205,131,20,184,0
583216,122,11,167,0
583227,111,0,158,0
583238,94,-13,156,0
583249,84,-17,167,0
583260,76,-17,186,0
583271,65,-15,198,0
583282,49,-9,221,0
583293,36,-5,237,0
583304,21,0,245,0
583315,9,8,257,0
583326,14,13,256,0
583337,18,12,248,0
583348,24,9,240,0
583359,31,8,234,0
583370,35,6,226,0
583381,36,5,224,0
583392,39,5,226,0
583403,38,7,227,0
583414,39,10,226,0
583425,39,2,224,0
583436,40,-1,218,0
583447,36,0,216,0
583458,34,-1,214,0
583469,30,0,213,0
583480,19,-4,219,0
583491,16,3,210,0
583502,8,6,199,0
583513,2,8,196,0
583524,-1,12,195,0
583535,-6,11,196,0
583546,-6,12,195,0
583557,-3,12,190,0
583568,-1,11,192,0
583579,3,10,200,0
583590,9,11,204,0
583601,11,15,209,0
583612,10,16,219,0
583623,8,15,228,0
583634,5,20,226,0
583645,-11,22,230,0
583656,-22,18,229,0
583667,-26,16,228,0
583678,-26,14,231,0
583689,-25,19,240,0
583700,-28,15,254,0
583711,-26,13,262,0
583722,-26,19,260,0
583733,-32,25,256,0
583744,-39,26,253,0
583755,-45,24,250,0
583766,-55,23,246,0
583777,-56,16,249,1
583788,-34,20,265,0
583799,-3,40,290,0
583810,46,49,329,0
583821,59,33,320,0
583832,80,20,308,0
583843,104,12,294,0
583854,130,2,305,0
583865,133,-24,337,0
583876,111,-14,310,0
583887,94,-13,245,0
583898,68,-28,190,0
583909,54,-28,171,0
583920,43,-35,157,1
583931,36,-30,150,0
583942,35,-24,146,0
583953,25,-19,141,0
583964,26,-11,146,0
583975,40,13,197,0
583986,54,21,224,0
583997,66,21,240,0
584008,76,17,244,0
584019,78,10,239,0
584030,72,10,236,0
584041,67,11,231,0
584052,65,7,224,0
584063,65,4,215,0
584074,57,2,215,0
584085,45,3,222,0
584096,41,3,222,0
584107,40,9,222,0
584118,38,7,220,0
584129,34,7,217,0
584140,28,9,211,0
584151,25,9,210,0
584162,19,8,208,0
584173,14,7,206,0
584184,10,9,211,0
584195,6,13,220,0
584206,2,15,226,0
584217,1,19,230,0
584228,0,21,231,0
584239,0,22,232,0
584250,-2,21,230,0
584261,-2,21,230,0
584272,-2,20,228,0
584283,-1,21,225,0
584294,0,22,226,0
584305,1,23,228,0
584316,3,25,227,0
584327,6,24,226,0
584338,11,23,227,0
584349,14,22,227,0
584360,15,21,226,0
584371,16,19,225,0
584382,14,19,224,0
584393,11,18,219,0
584404,9,16,218,0
584415,9,16,216,0
584426,9,17,218,0
584437,9,15,219,0
584448,11,17,220,0
584459,14,19,226,0
584470,25,17,229,0
584481,24,17,226,0
584492,23,18,225,0
584503,26,19,223,0
584514,27,23,219,0
584525,23,25,215,0
584536,16,27,212,0
584547,12,27,210,1
584559,18,28,213,0
584570,25,29,230,0
584581,29,21,258,0
584592,24,3,282,0
584603,16,1,287,0
584614,4,6,293,0
584625,-22,10,309,0
584636,-8,16,313,0
584647,14,19,313,0
584658,40,17,313,0
584669,64,19,307,0
584680,88,27,290,0
584691,108,30,265,1
584702,122,25,239,0
584713,123,17,219,0
584724,125,4,196,0
584735,126,-2,185,0
584746,119,-16,169,0
584757,114,-29,166,0
584768,106,-37,168,0
584779,97,-32,183,0
584790,62,-11,223,0
584801,40,-4,235,0
584812,21,2,246,0
584823,4,12,255,0
584834,-6,17,260,0
584845,-9,17,263,0
584856,-6,17,258,0
584867,-1,12,247,0
584878,3,11,240,0
584889,10,6,234,0
584900,17,3,231,0
584911,25,5,228,0
584922,29,1,222,0
584933,32,0,214,0
584944,37,0,214,0
584955,40,-3,211,0
584966,39,-4,210,0
584977,37,-4,210,0
584988,38,-8,209,0
584999,34,-6,207,0
585010,31,-3,203,0
585021,27,0,201,0
585032,22,2,201,0
585043,19,9,197,0
585054,12,13,192,0
585065,6,12,190,0
585076,5,10,191,0
585087,5,11,190,0
585098,4,13,191,0
585109,4,13,196,0
585120,4,11,211,0
585131,2,8,218,0
585142,-1,6,220,0
585153,-6,2,223,0
585164,-10,3,225,0
585175,-8,2,225,0
585186,-9,2,219,0
585197,-5,6,220,0
585208,-2,11,230,0
585219,0,14,239,0
585230,0,20,250,0
585241,-3,30,254,0
585252,-6,29,256,0
585263,-9,26,255,0
585274,-9,23,253,0
585285,-21,19,254,0
585296,-29,8,256,0
585307,-29,1,262,1
585318,-13,0,288,0
585329,15,-1,317,0
585340,45,3,335,0
585351,67,11,329,0
585362,73,12,317,0
585373,79,3,312,0
585384,89,7,300,0
585395,105,14,290,0
585406,106,8,284,0
585417,94,3,259,0
585428,86,-10,249,0
585439,82,-24,237,0
585450,66,-21,187,1
585461,66,-22,170,0
585472,59,-20,162,0
585483,61,-17,157,0
585494,62,-12,155,0
585505,61,-4,165,0
585516,66,0,179,0
585527,75,6,192,0
585538,86,6,210,0
585549,91,10,219,0
585560,93,10,222,0
585571,91,12,223,0
585582,86,13,224,0
585593,78,15,225,0
585604,67,17,225,0
585615,65,11,222,0
585626,64,12,221,0
585637,56,13,220,0
585648,50,16,220,0
585659,45,14,223,0
585670,43,18,221,0
585681,38,18,225,0
585692,33,23,227,0
585703,34,23,223,0
585714,23,24,216,0
585725,12,20,214,0
585736,6,18,217,0
585747,2,18,216,0
585758,3,16,218,0
585769,1,17,223,0
585780,1,20,233,0
585791,4,17,235,0
585802,8,14,234,0
585813,8,14,230,0
585824,6,14,230,0
585835,6,13,235,0
585846,4,8,235,0
585857,4,5,232,0
585868,0,6,231,0
585879,-1,4,229,0
585890,-2,9,227,0
585901,-1,11,223,0
585912,1,13,220,0
585923,3,13,221,0
585934,7,11,224,0
585945,14,10,222,1
585956,13,8,219,0
585967,11,7,218,0
585978,7,10,216,0
585989,3,12,218,0
586000,1,15,223,0
586011,1,17,227,0
586022,0,19,229,0
586033,0,22,227,0
586044,-1,24,227,0
586055,-5,21,222,0
586066,-12,18,218,0
586077,-12,16,216,0
586088,-3,17,216,0
586099,9,11,221,0
586110,14,-18,247,0
586121,10,-20,252,0
586132,11,-11,254,0
586143,18,12,258,0
586154,12,24,276,0
586165,2,7,304,0
586176,7,-6,321,0
586187,28,5,333,0
586198,51,24,341,0
586209,72,34,331,0
586220,92,36,312,0
586231,104,34,287,0
586242,110,29,256,0
586253,113,19,229,0
586264,112,2,199,0
586275,103,-34,152,0
586286,106,-43,141,0
586297,99,-39,141,0
586308,93,-32,148,0
586319,86,-24,159,0
586330,78,-21,174,0
586341,70,-18,188,0
586352,57,-8,210,0
586363,45,3,233,0
586374,37,15,255,0
586385,28,25,268,0
586396,14,30,280,0
586407,2,25,279,0
586418,-4,31,268,0
586429,-12,29,273,0
586440,-7,18,265,0
586451,-4,13,249,0
586462,0,2,239,0
586473,7,1,233,0
586484,14,0,235,0
586496,21,0,229,0
586507,26,-3,214,0
586518,31,-1,203,0
586529,33,-2,196,0
586540,31,-1,197,0
586552,29,-1,199,0
586563,26,-1,200,0
586574,16,-3,204,0
586585,12,-9,203,0
586596,8,-5,203,0
586607,4,-8,203,0
586618,4,-10,203,0
586629,5,-9,205,0
586640,4,-11,204,0
586651,3,-8,205,0
586662,2,-4,209,0
586673,2,-2,214,0
586684,0,0,215,0
586695,-1,2,220,0
586706,-6,7,225,0
586717,-10,10,229,0
586728,-17,12,228,0
586739,-27,16,224,0
586750,-30,16,228,0
586761,-34,16,233,0
586772,-33,14,236,0
586783,-32,12,237,0
586794,-29,10,235,0
586805,-26,5,229,0
586816,-23,2,226,0
586827,-19,1,225,0
586838,-16,1,228,0
586849,-13,1,232,0
586860,-12,4,238,0
586871,-12,3,239,0
586882,-16,0,246,0
586893,-16,-8,250,0
586904,-6,-8,272,0
586915,23,-2,303,0
586926,57,-1,330,0
586937,82,2,337,1
586948,91,0,329,0
586959,106,1,313,0
586970,115,9,306,0
586981,120,6,320,0
586992,109,3,313,0
587003,80,15,275,0
587014,43,-58,281,0
587025,59,-28,218,0
587036,36,-19,184,0
587047,36,-45,164,0
587058,49,-47,155,0
587069,63,-24,145,0
587080,74,-12,155,0
587091,83,0,171,0
587102,99,4,187,0
587113,109,6,197,0
587124,116,8,202,0
587135,120,10,208,0
587146,119,9,211,0
587157,114,10,216,0
587168,110,15,220,0
587179,104,12,221,0
587190,93,11,220,0
587201,81,7,221,0
587212,76,5,219,0
587223,72,4,217,0
587234,58,2,221,0
587245,52,6,223,0
587256,49,9,226,0
587267,45,13,229,0
587278,42,15,232,0
587289,39,14,230,0
587300,36,15,229,0
587311,34,16,226,0
587322,30,15,224,0
587333,25,14,224,0
587344,24,16,222,0
587355,22,15,224,0
587366,20,15,226,0
587377,20,15,229,0
587388,22,18,235,0
587399,26,15,241,0
587410,30,6,237,0
587421,29,6,233,0
587432,26,5,234,0
587443,23,8,235,0
587454,17,5,236,0
587465,16,3,232,0
587476,13,4,225,0
587487,9,2,224,0
587498,7,3,224,0
587509,7,8,224,0
587520,5,16,229,0
587531,3,15,234,0
587542,3,13,231,0
587553,5,12,230,0
587564,2,10,231,0
587575,2,14,232,0
587586,1,15,236,0
587597,-1,18,238,0
587608,0,15,234,0
587619,-3,18,235,0
587630,-10,15,233,0
587641,-11,17,227,0
587652,-10,23,226,0
587663,-10,27,225,0
587674,-7,34,226,0
587685,-6,39,227,0
587696,-4,35,226,0
587707,-2,32,221,0
587718,-4,27,217,0
587729,-6,3,214,0
587740,-1,-21,219,0
587751,2,-43,228,1
587762,3,-56,226,0
587773,10,-57,219,0
587784,10,-48,226,0
587795,14,-39,246,0
587806,37,-28,256,0
587817,62,-28,266,0
587828,77,-30,286,0
587839,87,-27,302,0
587850,99,-13,309,0
587861,113,4,309,0
587872,124,16,299,0
587883,123,12,271,0
587894,117,2,260,0
587905,112,-14,233,0
587916,110,-23,209,0
587927,111,-30,189,0
587938,109,-39,175,0
587949,110,-43,164,0
587960,109,-40,159,0
587971,97,-36,160,0
587982,88,-36,165,0
587993,77,-33,173,0
588004,66,-31,189,0
588015,57,-25,199,0
588026,57,-18,210,0
588037,54,-10,214,0
588048,34,0,241,0
588059,24,-3,257,0
588070,12,-8,258,0
588081,9,-9,257,0
588092,7,-12,254,0
588103,9,-14,252,0
588114,19,-17,253,0
588125,31,-20,248,0
588136,40,-22,238,0
588147,48,-27,228,0
588158,57,-33,219,0
588169,71,-35,207,0
588180,70,-33,200,0
588191,74,-33,195,0
588202,74,-27,192,0
588213,67,-28,200,0
588224,65,-29,200,0
588235,62,-25,197,0
588246,59,-22,199,0
588257,56,-21,201,0
588268,55,-23,201,0
588279,55,-20,203,0
588290,53,-18,209,0
588301,51,-16,214,0
588312,48,-16,216,0
588323,43,-16,219,0
588334,38,-15,221,0
588345,32,-18,222,0
588356,29,-19,224,0
588367,27,-17,226,0
588378,15,-13,232,0
588389,12,-11,234,0
588400,9,-13,235,0
588411,12,-17,233,0
588422,8,-17,228,0
588433,8,-16,227,0
588444,9,-15,223,0
588455,9,-17,222,0
588466,12,-19,217,0
588477,16,-17,218,0
588488,19,-20,221,0
588499,23,-21,221,0
588510,27,-15,222,0
588521,25,-12,231,0
588532,23,-6,240,0
588543,10,1,253,0
588554,8,2,259,0
588565,7,1,266,0
588576,8,-2,272,1
588587,13,-9,277,0
588598,22,-24,283,0
588609,37,-39,293,0
588620,53,-45,295,0
588631,65,-45,283,0
588642,76,-41,261,0
588653,80,-40,244,0
588664,73,-39,219,0
588675,70,-31,200,0
588686,71,-20,187,0
588697,74,-21,168,0
588708,85,-24,171,0
588719,96,-19,177,0
588730,109,-13,199,0
588741,119,-7,222,0
588752,127,-1,230,0
588763,128,3,221,0
588774,128,3,204,0
588785,151,93,115,0
588796,145,-20,213,0
588807,142,36,206,0
588818,130,-11,212,0
588829,120,9,223,0
588840,110,8,234,0
588851,96,13,236,0
588862,76,22,240,0
588873,57,31,241,0
588884,52,36,242,0
588895,48,38,241,0
588906,47,38,237,0
588917,48,32,232,0
588928,50,31,224,0
588939,50,29,221,0
588950,52,29,218,0
588961,54,29,219,0
588972,55,29,217,0
588983,53,31,220,0
588994,50,29,224,0
589005,46,31,225,0
589016,40,28,227,0
589027,32,29,228,0
589038,15,28,231,0
589050,8,29,232,0
589061,6,33,232,0
589072,4,32,234,0
589083,0,30,233,0
589094,-5,33,236,0
589105,-9,32,238,0
589116,-6,30,240,0
589127,-5,25,238,0
589138,-4,22,238,0
589149,-1,13,235,0
589160,1,16,236,0
589171,-2,17,232,0
589182,-9,22,231,0
589193,-11,27,225,0
589204,-14,30,226,0
589215,-17,30,228,0
589226,-19,29,227,0
589237,-20,29,228,0
589248,-17,29,229,0
589259,-15,27,226,0
589270,-14,21,228,0
589281,-11,14,230,0
589293,-8,6,231,1
589304,-10,1,228,0
589315,-11,-5,221,0
589326,-14,-5,216,0
589337,-19,-5,211,0
589348,-19,-3,208,0
589359,-23,-3,206,0
589370,-26,-1,209,0
589381,-32,0,214,0
589392,-34,0,216,0
589403,-37,-2,220,0
589414,-37,-3,224,0
589425,-23,2,225,0
589436,-5,4,234,0
589447,5,-19,247,0
589458,8,-50,254,0
589469,14,-44,262,0
589480,23,-22,264,0
589491,35,8,269,0
589502,42,6,298,0
589513,53,8,311,0
589524,74,25,314,0
589535,110,46,310,0
589546,138,70,289,0
589557,151,73,258,0
589568,149,69,236,0
589579,137,59,212,0
589590,114,45,194,0
589601,88,24,182,0
589612,67,16,176,0
589623,47,18,184,0
589634,27,18,204,0
589645,11,16,223,0
589656,1,16,241,0
589667,0,16,262,0
589678,7,18,263,0
589689,9,25,251,0
589700,12,29,244,0
589711,14,25,238,0
589722,13,21,232,0
589733,13,13,230,0
589744,18,6,223,0
589755,23,3,215,0
589766,31,1,209,0
589777,36,0,205,0
589788,42,-1,205,0
589799,47,-4,205,0
589810,49,-3,207,0
589821,47,-4,205,0
589832,34,-1,212,0
589843,25,-3,212,0
589854,17,-2,210,0
589865,11,-2,207,0
589876,5,-4,207,0
589887,4,-3,208,0
589898,2,-2,205,0
589909,-2,1,207,0
589920,-4,2,213,0
589931,-7,3,216,0
589942,-11,5,216,0
589953,-16,7,212,0
589964,-24,9,215,0
589975,-30,10,219,0
589986,-33,9,223,0
589997,-38,7,220,0
590008,-39,9,222,0
590019,-37,10,231,0
590030,-42,25,238,0
590041,-42,14,245,0
590052,-38,1,244,0
590063,-29,0,243,0
590074,-25,-1,237,0
590085,-22,-4,239,0
590096,-22,-14,245,0
590107,-20,-17,248,0
590118,-26,-21,252,0
590129,-39,-15,258,0
590140,-52,-8,260,0
590151,-52,-12,259,0
590162,15,-8,292,0
590173,60,5,297,0
590184,97,15,307,1
590195,111,7,312,0
590206,117,7,298,0
590217,118,13,290,0
590228,126,16,306,0
590239,123,1,333,0
590250,86,2,317,0
590261,53,-21,237,0
590272,19,-44,173,0
590283,12,-49,145,0
590294,12,-47,145,0
590305,10,-39,153,0
590316,14,-24,166,0
590327,41,4,186,0
590338,52,20,197,0
590349,63,33,216,0
590360,68,46,226,0
590371,76,42,216,0
590382,82,41,200,0
590393,92,43,194,0
590404,90,37,195,0
590415,86,39,206,0
590426,81,35,218,0
590437,79,33,223,0
590448,74,32,226,0
590459,72,23,224,0
590470,65,18,218,0
590481,60,9,216,0
590492,41,2,215,0
590503,30,0,222,0
590514,23,0,223,0
590525,12,1,223,0
590536,4,2,221,0
590547,0,4,218,0
590558,-1,10,220,0
590569,0,12,218,0
590580,4,15,218,0
590591,6,17,219,0
590602,9,19,220,0
590613,10,22,224,0
590624,8,26,229,0
590635,7,28,231,0
590646,3,32,232,0
590657,-5,32,229,0
590668,-9,30,225,0
590679,-6,27,228,0
590690,-7,26,228,0
590701,-3,24,228,0
590712,-1,24,225,0
590723,3,19,225,0
590734,5,13,224,0
590745,11,10,222,0
590756,15,12,219,0
590767,19,13,218,0
590778,23,9,216,0
590789,26,-1,220,0
590800,27,1,220,0
590811,26,7,220,0
590822,16,19,231,0
590833,4,27,238,0
590844,-18,27,238,0
590855,-34,31,236,0
590866,-43,38,236,0
590877,-40,44,239,0
590888,-21,50,241,0
590899,1,57,249,1
590910,18,47,271,0
590921,22,28,298,0
590932,14,9,305,0
590944,11,11,302,0
590955,-1,18,306,0
590966,-3,21,309,0
590977,15,35,297,0
590988,42,34,292,0
590999,65,15,282,0
591010,87,3,260,0
591021,114,2,229,0
591032,132,3,208,0
591043,136,8,196,0
591054,130,12,192,0
591065,125,10,190,0
591076,112,3,191,0
591087,104,4,199,0
591098,88,7,208,0
591109,67,10,217,0
591120,43,7,224,0
591131,20,9,240,0
591142,2,13,253,0
591153,1,17,253,0
591164,-3,21,245,0
591175,0,20,238,0
591186,6,15,231,0
591197,13,15,228,0
591208,22,13,227,0
591219,30,8,229,0
591230,40,8,218,0
591241,49,5,211,0
591252,56,2,207,0
591263,61,1,203,0
591274,64,-1,204,0
591285,65,0,207,0
591296,66,-3,206,0
591307,61,-2,207,0
591318,56,-1,206,0
591329,54,-3,201,0
591340,37,-1,205,0
591351,26,3,203,0
591362,16,4,198,0
591373,11,6,197,0
591384,5,7,202,0
591395,2,5,206,0
591406,2,2,206,0
591417,4,10,204,0
591428,1,19,201,0
591439,-1,16,201,0
591450,0,19,204,0
591461,-3,18,209,0
591472,-13,8,223,0
591483,-17,5,222,0
591494,-18,3,220,0
591505,-17,2,221,0
591516,-15,3,228,0
591527,-14,2,236,0
591538,-17,1,249,0
591549,-20,0,257,0
591560,-25,2,258,0
591571,-31,9,260,0
591582,-35,13,257,0
591593,-42,14,253,0
591604,-44,6,256,0
591615,-35,-7,269,0
591626,-4,-3,292,0
591637,66,27,367,1
591648,91,32,390,0
591659,102,26,373,0
591670,116,13,340,0
591681,134,8,308,0
591692,128,-7,287,0
591703,87,-34,257,0
591714,72,-43,207,0
591725,56,-39,164,0
591736,40,-43,146,0
591747,39,-44,133,0
591758,34,-31,134,0
591769,32,-22,136,0
591780,30,-16,144,0
591791,32,-6,167,0
591802,50,7,223,0
591813,65,7,248,0
591824,71,1,243,0
591835,74,-8,226,0
591846,66,-10,211,0
591857,58,-9,207,0
591868,57,-8,209,0
591879,53,-7,207,0
591890,59,-3,205,0
591901,59,-6,203,0
591912,60,0,208,0
591923,55,0,215,0
591934,50,1,216,0
591945,45,1,215,0
591956,44,0,216,0
591967,21,0,212,0
591978,12,1,211,0
591989,6,2,210,0
592000,0,1,209,0
592011,-1,4,213,0
592022,2,7,215,0
592033,0,10,219,0
592044,5,11,226,0
592055,6,14,232,0
592066,3,15,233,0
592077,2,15,232,0
592088,1,17,233,0
592099,1,15,231,0
592110,1,12,227,0
592121,3,6,222,0
592132,6,-2,216,0
592143,8,0,217,0
592154,11,1,222,0
592165,13,2,226,0
592176,14,5,231,0
592187,11,5,232,0
592198,8,0,226,0
592209,4,0,222,0
592220,0,0,218,0
592231,-1,-1,214,0
592242,-2,1,217,0
592253,-6,5,213,0
592264,-4,14,213,0
592275,-3,23,216,0
592286,-6,26,220,0
592297,-20,15,225,0
592308,-26,12,227,0
592319,-19,12,226,0
592330,-7,14,234,0
592341,0,9,251,1
592352,0,-1,276,0
592363,2,-13,290,0
592374,4,-10,294,0
592385,4,-2,299,0
592396,5,5,306,0
592407,12,15,316,0
592418,29,11,330,0
592429,54,17,345,0
592440,83,25,338,0
592451,117,37,313,0
592462,159,35,229,0
592473,169,28,201,0
592484,160,20,184,1
592495,142,12,177,0
592506,125,2,171,0
592517,102,-19,175,0
592528,89,-25,189,0
592539,70,-13,205,0
592550,42,-8,220,0
592561,21,0,225,0
592572,4,5,235,0
592583,-2,9,246,0
592594,-1,13,250,0
592605,2,13,248,0
592616,2,17,240,0
592627,6,13,225,0
592638,10,14,227,0
592649,14,11,226,0
592660,21,3,214,0
592671,28,0,206,0
592682,29,-6,202,0
592693,36,-2,199,0
592704,39,-6,198,0
592715,38,-7,194,0
592726,35,-2,196,0
592737,29,0,200,0
592748,19,2,203,0
592759,10,1,201,0
592770,4,1,196,0
592781,0,2,191,0
592792,-8,2,193,0
592803,-7,2,195,0
592814,-7,5,198,0
592825,-9,6,199,0
592837,-14,6,203,0
592848,-21,6,209,0
592859,-31,4,208,0
592870,-37,5,215,0
592881,-34,13,224,0
592892,-30,29,238,0
592903,-30,34,249,0
592914,-28,28,257,0
592925,-25,17,258,0
592936,-19,4,254,0
592947,-23,5,254,0
592958,-36,0,255,0
592969,-44,-1,258,0
592980,-36,-7,279,0
592991,-7,-20,310,0
593002,35,-20,334,0
593013,73,-9,348,0
593024,94,-2,341,0
593035,103,-17,321,0
593046,113,-22,305,0
593057,121,-12,296,1
593068,115,-6,298,0
593079,103,-6,296,0
593090,80,-9,281,0
593102,47,-31,207,0
593113,41,-35,184,0
593124,44,-32,176,0
593135,47,-25,167,0
593146,40,-16,157,0
593157,42,-10,153,0
593168,48,-8,160,0
593180,55,2,177,0
593191,58,8,196,0
593202,69,10,212,0
593213,81,11,216,0
593224,83,10,216,0
593235,78,13,214,0
593246,68,15,220,0
593257,67,13,225,0
593268,73,13,225,0
593279,73,11,221,0
593290,68,9,215,0
593301,57,5,212,0
593312,46,8,220,0
593323,48,13,219,0
593334,47,13,215,0
593345,39,17,217,0
593356,33,19,220,0
593367,24,20,220,0
593378,12,23,219,0
593389,1,24,221,0
593400,-12,24,222,0
593411,-17,23,223,0
593422,-20,25,226,0
593433,-19,23,229,0
593444,-14,21,231,0
593455,-14,22,230,0
593466,-11,19,228,0
593477,-12,19,230,0
593488,-11,13,230,0
593499,-10,8,230,0
593510,-9,5,228,0
593521,-13,2,228,0
593532,-14,3,227,0
593543,-15,5,228,0
593554,-14,5,228,0
593565,-11,9,221,0
593576,-9,5,218,0
593587,-7,5,216,0
593598,-2,2,214,0
593609,1,1,215,0
593620,3,1,216,0
593631,7,4,214,0
593642,11,10,216,0
593653,9,12,219,0
593664,2,11,218,0
593675,-5,13,215,0
593686,-16,15,217,0
593697,-26,14,224,0
593708,-29,13,226,0
593719,-19,10,230,0
593730,1,-9,247,0
593741,6,-21,265,0
593752,7,-25,278,1
593763,5,-27,279,0
593774,2,-26,289,0
593785,0,-22,311,0
593796,12,-11,323,0
593807,46,24,331,0
593818,72,41,334,0
593829,93,33,319,0
593840,114,35,283,0
593851,136,38,240,0
593862,153,41,209,0
593873,159,30,177,0
593884,152,19,165,0
593895,117,-4,175,0
593906,97,-9,185,0
593917,74,-5,198,0
593928,57,-1,217,0
593939,35,3,235,0
593950,19,9,251,0
593961,9,14,260,0
593972,6,17,256,0
593983,2,23,251,0
593994,1,15,250,0
594005,0,17,252,0
594016,7,12,254,0
594027,6,9,253,0
594038,10,5,241,0
594049,12,2,227,0
594060,23,-3,207,0
594071,30,-1,202,0
594082,36,0,197,0
594093,39,0,196,0
594104,37,0,194,0
594115,40,-1,200,0
594126,35,-2,204,0
594137,31,-5,204,0
594148,25,-5,201,0
594159,20,-4,198,0
594170,15,-3,196,0
594181,9,-1,193,0
594192,4,-1,189,0
594203,1,-3,187,0
594214,-1,-1,187,0
594225,0,-4,193,0
594236,-1,-3,196,0
594247,-2,0,204,0
594258,-11,5,212,0
594269,-21,10,216,0
594280,-29,12,220,0
594291,-30,14,224,0
594302,-30,16,223,0
594313,-29,19,230,0
594324,-28,17,242,0
594335,-19,19,253,0
594346,-17,36,254,0
594357,-18,34,251,0
594368,-18,16,249,0
594379,-17,12,247,0
594390,-27,8,251,0
594401,-32,3,257,0
594412,-41,-2,256,0
594423,-43,-17,258,0
594434,-35,-27,269,0
594445,-8,-37,293,0
594456,34,-44,315,0
594467,83,-31,336,0
594478,112,-14,343,0
594489,122,-11,351,0
594500,129,-7,352,1
594511,138,14,320,0
594522,142,17,302,0
594533,124,27,280,0
594544,73,-47,323,0
594555,45,18,192,0
594566,45,-23,167,0
594577,43,-2,159,0
594588,31,-5,149,0
594599,26,1,146,0
594610,24,-8,144,0
594621,29,-16,151,0
594632,43,-12,168,0
594643,56,-9,189,0
594654,78,-5,206,0
594665,95,-1,220,0
594676,98,1,229,0
594687,90,5,227,0
594698,83,15,229,0
594709,73,20,230,0
594720,64,17,228,0
594731,62,16,228,0
594742,56,12,224,0
594753,45,11,221,0
594764,33,5,217,0
594775,30,3,213,0
594787,29,2,209,0
594798,23,5,207,0
594809,11,6,211,0
594820,5,12,215,0
594831,3,12,217,0
594842,-2,15,218,0
594853,-8,16,221,0
594864,-8,17,227,0
594875,-9,18,226,0
594886,-7,17,230,0
594897,-1,17,234,0
594908,3,18,235,0
594919,8,18,234,0
594930,11,17,235,0
594941,9,15,234,0
594952,3,12,234,0
594963,0,12,234,0
594974,-6,11,235,0
594985,-9,11,232,0
594996,-9,7,223,0
595007,-8,9,215,0
595018,-5,5,211,0
595029,2,0,209,0
595040,5,2,215,0
595051,8,1,217,0
595062,11,2,219,0
595073,12,9,218,0
595084,13,17,219,0
595096,11,17,221,0
595107,8,23,228,0
595118,2,16,219,0
595129,-3,10,209,0
595140,-7,9,209,0
595151,-16,14,216,0
595162,-9,15,221,0
595173,8,13,228,0
595184,27,-23,247,0
595195,24,-35,262,0
595206,17,-29,269,0
595217,3,-14,282,1
595228,-11,1,301,0
595239,-3,24,308,0
595250,15,36,324,0
595261,37,18,344,0
595272,66,8,347,0
595283,98,20,334,0
595294,128,25,302,0
595306,139,18,259,0
595317,133,9,228,0
595328,109,3,182,0
595339,91,-8,163,0
595350,76,-18,153,0
595361,66,-24,155,0
595372,64,-31,164,0
595383,58,-23,182,0
595394,50,-14,204,0
595405,42,-7,222,0
595416,36,-2,238,0
595427,26,0,252,0
595438,23,-1,258,0
595449,14,13,255,0
595460,7,15,252,0
595471,0,20,258,0
595482,-4,13,259,0
595493,0,0,232,0
595504,8,-2,226,0
595515,17,-4,218,0
595526,28,-8,211,0
595537,38,-4,203,0
595548,44,-3,198,0
595559,45,1,201,0
595570,44,0,207,0
595581,40,0,209,0
595592,37,0,212,0
595603,32,-1,213,0
595614,27,-1,213,0
595625,19,-4,209,0
595636,15,-6,204,0
595647,10,-9,199,0
595658,0,-10,193,0
595669,-1,-9,188,0
595680,-2,-7,185,0
595691,-4,-1,187,0
595702,-9,0,193,0
595713,-10,-1,202,0
595724,-11,0,212,0
595735,-13,4,221,0
595746,-16,6,227,0
595757,-21,9,223,0
595768,-25,12,222,0
595779,-29,11,221,0
595790,-27,10,226,0
595801,-21,9,235,0
595812,-16,18,250,0
595823,-19,14,254,0
595834,-16,10,246,0
595845,-13,13,244,0
595856,-14,14,246,0
595867,-14,8,248,0
595878,-13,-1,254,0
595889,-15,-18,261,0
595900,-13,-27,267,0
595911,-2,-7,270,0
595922,30,-2,303,1
595933,69,-8,335,0
595944,105,-2,353,0
595955,119,-1,347,0
595966,127,3,319,0
595977,139,-1,299,0
595988,119,-23,266,0
595999,128,-20,252,0
596010,112,-8,233,0
596021,91,-119,256,0
596032,134,-30,195,0
596043,107,5,155,0
596054,93,-30,159,0
596065,87,-12,167,0
596076,78,-14,171,0
596087,72,-14,181,0
596098,81,-11,196,0
596109,92,-8,204,0
596120,100,-11,213,0
596131,101,-6,215,0
596142,90,0,209,0
596153,79,14,209,0
596164,77,19,214,0
596175,70,26,214,0
596186,65,25,220,0
596197,62,25,221,0
596208,59,16,222,0
596219,57,11,220,0
596230,59,11,222,0
596241,57,13,220,0
596252,48,16,221,0
596263,45,17,225,0
596274,37,22,227,0
596285,28,21,226,0
596296,22,20,226,0
596307,13,23,224,0
596318,0,20,225,0
596330,-1,21,226,0
596341,-3,22,226,0
596352,-4,24,227,0
596363,-4,23,229,0
596374,-2,25,232,0
596385,0,24,233,0
596396,-1,24,235,0
596407,-7,26,237,0
596418,-11,19,238,0
596429,-16,20,236,0
596440,-21,18,235,0
596451,-22,19,227,0
596462,-25,23,224,0
596473,-33,17,215,0
596484,-29,13,212,0
596495,-21,14,212,0
596506,-15,17,216,0
596517,-5,14,216,0
596528,2,9,215,0
596539,10,6,215,0
596550,15,3,216,0
596561,18,3,217,0
596572,13,5,218,0
596583,6,5,216,0
596594,-3,5,220,0
596605,-15,2,223,0
596616,-16,1,224,0
596627,-5,2,227,0
596638,16,-14,240,1
596649,24,-24,256,0
596660,24,-19,272,0
596671,18,-4,283,0
596682,18,16,284,0
596693,20,41,291,0
596704,17,22,318,0
596715,23,-7,340,0
596726,48,3,343,0
596737,80,28,326,0
596748,110,47,296,0
596759,119,39,252,0
596771,116,33,222,1
596782,96,17,194,0
596793,81,12,188,0
596804,65,8,180,0
596815,54,2,190,0
596826,40,1,204,0
596837,30,1,231,0
596848,23,2,255,0
596859,21,6,258,0
596870,21,6,250,0
596881,16,10,235,0
596892,12,5,236,0
596903,16,6,240,0
596914,17,7,243,0
596925,18,3,244,0
596937,19,0,226,0
596948,20,-2,212,0
596959,24,1,213,0
596970,30,0,207,0
596981,33,2,206,0
596992,35,0,202,0
597003,36,-3,201,0
597014,33,-2,200,0
597025,31,-1,200,0
597036,24,-3,200,0
597047,18,-8,201,0
597058,10,-10,201,0
597069,4,-11,195,0
597080,1,-10,191,0
597091,-3,-10,191,0
597102,-12,-7,192,0
597113,-14,-5,192,0
597124,-21,-4,195,0
597135,-26,-3,198,0
597146,-28,-2,205,0
597157,-26,0,199,0
597168,-27,3,201,0
597179,-27,3,206,0
597190,-31,4,211,0
597201,-33,0,216,0
597212,-33,-2,221,0
597223,-31,-4,225,0
597234,-34,-5,226,0
597245,-38,-10,227,0
597256,-39,-15,227,0
597267,-40,-9,236,0
597278,-39,-11,246,0
597289,-39,-19,255,0
597300,-32,-16,261,0
597311,-20,-20,263,0
597322,-9,-17,263,0
597333,-7,-13,263,0
597344,-5,-14,266,0
597355,11,-17,290,0
597366,39,-12,322,1
597377,80,7,365,0
597388,104,29,380,0
597399,92,16,358,0
597410,88,-2,327,0
597421,100,-6,291,0
597432,78,-28,297,0
597443,58,-12,279,0
597454,36,-13,228,0
597465,21,-6,187,0
597476,23,-18,178,0
597487,27,-7,169,0
597498,31,3,168,0
597509,38,8,167,0
597520,49,8,162,0
597531,58,8,169,0
597542,67,10,186,0
597553,81,18,207,0
597564,92,16,222,0
597575,98,10,227,0
597586,102,5,229,0
597597,96,1,222,0
597608,92,3,209,0
597619,86,4,202,0
597630,73,7,203,0
597641,67,9,205,0
597652,58,16,209,0
597663,51,24,216,0
597674,41,23,223,0
597685,33,22,226,0
597696,25,21,229,0
597707,21,18,221,0
597718,17,12,210,0
597729,10,8,206,0
597740,5,7,207,0
597751,1,10,212,0
597762,-14,17,226,0
597773,-15,18,230,0
597784,-14,18,232,0
597795,-11,18,229,0
597806,-6,15,225,0
597817,-1,17,222,0
597828,3,17,224,0
597839,8,17,225,0
597850,17,17,227,0
597861,22,16,225,0
597872,23,16,225,0
597883,20,12,224,0
597894,18,12,224,0
597905,12,13,222,0
597916,9,17,221,0
597927,5,18,222,0
597938,3,10,219,0
597949,1,6,218,0
597960,0,-5,220,0
597971,3,-16,220,0
597982,9,-15,214,0
597993,14,-15,212,0
598004,20,-5,207,0
598015,23,7,208,1
598026,20,9,209,0
598037,12,2,205,0
598048,4,-2,197,0
598059,6,-1,194,0
598070,16,7,199,0
598081,34,14,227,0
598092,49,-12,295,0
598103,41,-10,317,0
598114,37,0,326,0
598125,17,8,338,0
598136,-3,-6,351,0
598147,-8,-2,360,0
598158,15,25,351,0
598169,56,52,335,0
598180,90,63,316,0
598191,112,60,282,0
598202,128,53,256,0
598214,130,40,223,0
598225,129,23,189,0
598236,121,3,162,0
598247,84,-21,135,0
598258,72,-25,134,0
598269,63,-19,145,0
598280,57,-13,161,0
598291,51,-5,187,0
598302,42,-1,208,0
598313,34,1,227,0
598324,24,1,242,0
598335,23,7,252,0
598346,19,8,254,0
598357,16,3,252,0
598368,20,0,251,0
598379,23,0,248,0
598390,30,-1,245,0
598401,37,-6,237,0
598412,48,-10,225,0
598423,50,-8,219,0
598434,53,-7,215,0
598445,52,-5,212,0
598456,48,-6,211,0
598467,45,-6,213,0
598478,39,-4,217,0
598489,34,-4,219,0
598500,28,-6,218,0
598511,25,-9,214,0
598522,21,-11,209,0
598533,17,-14,199,0
598544,14,-16,195,0
598555,9,-12,187,0
598566,4,-8,183,0
598577,2,-8,190,0
598588,1,-1,192,0
598599,-1,-1,195,0
598610,-1,0,198,0
598621,0,0,202,0
598632,1,1,209,0
598643,1,3,217,0
598654,1,4,224,0
598665,-5,7,231,0
598676,-13,8,236,0
598687,-21,11,241,0
598698,-28,4,241,0
598709,-30,1,240,0
598720,-27,0,245,0
598731,-23,0,252,0
598742,-16,-8,263,0
598753,-13,-2,261,0
598764,-16,3,257,0
598775,-27,6,255,1
598786,-28,5,266,0
598797,-20,12,288,0
598808,-4,22,316,0
598819,24,31,350,0
598830,47,45,371,0
598841,54,44,362,0
598852,74,37,320,0
598863,103,25,291,0
598874,106,6,268,0
598885,112,-27,291,0
598896,108,-47,294,0
598907,71,-29,180,0
598918,62,-36,146,0
598929,65,-33,144,0
598940,64,-12,149,0
598951,63,-5,154,0
598962,60,-2,157,0
598973,60,-3,169,0
598984,65,4,195,0
598995,76,6,216,0
599006,84,6,231,0
599017,88,2,237,0
599028,87,-1,234,0
599039,84,-4,228,0
599050,78,-7,224,0
599061,70,-4,220,0
599072,56,-1,211,0
599083,53,0,208,0
599094,50,3,206,0
599105,45,6,214,0
599116,35,9,217,0
599127,31,12,221,0
599138,28,11,223,0
599149,23,8,221,0
599160,18,6,218,0
599171,12,7,213,0
599182,7,4,212,0
599193,1,6,214,0
599204,-1,7,213,0
599215,1,10,216,0
599226,4,10,222,0
599237,10,13,230,0
599248,12,15,234,0
599259,16,14,234,0
599270,16,13,232,0
599281,13,15,231,0
599292,8,12,231,0
599303,4,13,227,0
599314,-1,12,223,0
599325,-6,13,226,0
599336,-7,14,229,0
599347,-1,9,227,0
599358,0,6,224,0
599369,0,2,219,0
599380,1,3,220,0
599391,1,0,223,0
599402,6,0,219,0
599413,9,2,218,0
599424,13,10,219,0
599435,15,17,222,0
599446,13,21,222,0
599457,13,23,218,0
599468,9,20,219,0
599479,1,13,219,1
599490,-5,9,216,0
599501,-9,14,216,0
599512,-12,18,219,0
599523,-10,15,226,0
599534,0,10,229,0
599545,14,3,231,0
599556,23,-2,243,0
599567,26,-8,262,0
599578,12,-1,267,0
599589,-5,5,281,0
599600,2,18,278,0
599611,13,36,291,0
599622,32,28,317,0
599633,61,32,333,0
599644,85,42,339,0
599655,110,46,324,0
599666,126,34,293,0
599677,129,27,272,0
599688,121,17,250,0
599699,107,6,225,0
599710,94,-11,196,0
599721,65,-27,158,0
599732,50,-28,155,0
599743,33,-24,164,0
599754,21,-18,181,0
599765,8,-19,208,0
599776,11,-11,237,0
599787,13,1,251,0
599798,12,-4,258,0
599809,18,5,250,0
599820,13,11,242,0
599831,8,2,246,0
599842,14,-3,246,0
599853,23,-3,248,0
599864,29,-7,231,0
599875,35,-11,215,0
599886,39,-11,211,0
599897,41,-7,213,0
599908,45,-6,218,0
599919,45,-13,215,0
599930,45,-11,214,0
599941,42,-9,214,0
599952,37,-8,212,0
599963,32,-6,211,0
599974,29,-9,210,0
599985,25,-7,212,0
599996,21,-3,210,0
600007,14,-4,205,0
600018,11,-3,205,0
600029,8,-2,203,0
600040,5,-4,199,0
600051,2,-11,199,0
600062,3,-14,201,0
600073,7,-15,206,0
600084,8,-11,207,0
600095,9,-11,210,0
600106,7,-10,214,0
600117,3,-7,214,0
600128,1,-1,214,0
600139,-2,4,213,0
600150,-6,7,209,0
600161,-3,8,208,0
600172,1,5,211,0
600183,7,-6,225,0
600194,20,-15,236,0
600205,28,-29,253,0
600216,28,-7,257,0
600227,27,14,241,0
600238,16,28,232,1
600249,-2,26,233,0
600260,-25,19,240,0
600271,-38,12,250,0
600282,-31,20,268,0
600293,-13,28,295,0
600304,15,26,328,0
600315,46,33,357,0
600326,65,45,351,0
600337,95,50,333,0
600348,116,47,319,0
600359,119,38,304,0
600370,118,10,285,0
600381,76,-28,262,0
600392,54,-31,236,0
600403,37,-34,206,0
600414,35,-47,186,0
600425,36,-45,175,0
600436,39,-34,171,0
600447,47,-22,174,0
600458,57,-9,177,0
600469,67,8,170,0
600480,85,12,168,0
600491,104,14,176,0
600502,113,29,193,0
600513,113,30,199,0
600524,108,27,203,0
600535,105,23,207,0
600546,89,23,232,0
600557,92,6,232,0
600568,89,1,223,0
600579,84,-3,213,0
600590,81,1,208,0
600601,86,5,211,0
600612,85,13,215,0
600623,79,13,225,0
600634,72,9,227,0
600645,64,9,229,0
600656,57,10,230,0
600667,52,11,229,0
600678,50,14,226,0
600689,48,15,220,0
600700,49,18,218,0
600711,47,23,218,0
600722,50,22,220,0
600733,54,21,223,0
600744,57,24,226,0
600755,59,23,227,0
600766,58,24,226,0
600777,55,26,226,0
600788,52,22,226,0
600799,50,22,226,0
600810,47,20,230,0
600821,45,18,230,0
600832,43,17,227,0
600843,44,16,225,0
600854,47,17,227,0
600865,50,20,225,0
600876,58,20,226,0
600887,61,18,229,0
600898,62,16,231,0
600909,61,17,228,0
600920,61,20,224,0
600931,61,25,223,0
600942,59,25,225,0
600953,57,27,227,0
600964,55,29,228,0
600975,52,31,230,0
600986,50,33,231,0
600997,47,30,233,0
601008,46,26,232,0
601019,46,24,230,0
601030,46,25,231,0
601041,40,21,230,0
601052,41,24,228,0
601063,42,28,229,0
601075,40,27,234,0
601086,35,23,234,0
601097,33,24,234,0
601108,33,28,236,1
601119,38,27,232,0
601130,43,25,229,0
601141,46,12,228,0
601153,47,6,228,0
601164,47,5,224,0
601175,46,2,225,0
601186,48,1,231,0
601197,49,-2,234,0
601208,44,-5,234,0
601219,37,-2,233,0
601230,31,2,232,0
601241,33,2,231,0
601252,36,3,229,0
601263,41,2,226,0
601274,46,1,222,0
601285,52,-1,220,0
601296,57,-1,219,0
601307,61,-1,219,0
601318,61,0,217,0
601329,60,4,218,0
601340,51,6,218,0
601351,44,7,222,0
601362,42,7,226,0
601373,40,7,231,0
601384,39,5,235,0
601395,38,3,235,0
601406,36,0,231,0
601417,33,-1,231,0
601428,31,-3,231,0
601439,30,-8,229,0
601450,30,-7,229,0
601461,30,-4,230,0
601472,30,-1,231,0
601483,30,0,232,0
601494,30,-1,232,0
601505,31,0,231,0
601516,30,0,230,0
601527,31,1,232,0
601538,31,1,230,0
601549,31,1,229,0
601560,33,0,226,0
601571,32,0,227,0
601582,31,-2,228,0
601593,31,-3,228,0
601604,31,-2,230,0
601615,32,-1,233,0
601626,34,1,233,0
601637,36,2,235,0
601648,39,2,235,0
601659,44,1,236,0
601670,49,1,232,0
601681,51,0,228,0
601692,51,0,226,0
601703,52,0,226,0
601714,50,-1,225,0
601725,48,-2,225,0
601736,45,-2,223,0
601747,41,-1,223,0
601758,41,-1,225,0
601769,39,0,228,0
601780,38,1,232,0
601791,38,0,234,0
601802,37,1,236,0
601813,38,0,237,0
601824,39,0,234,0
601836,37,0,230,0
601847,37,-1,230,0
601858,41,-3,228,0
601869,41,-1,229,0
601880,41,0,230,0
601891,40,-1,231,0
601902,41,-1,231,0
601913,40,-1,231,0
601924,40,-1,230,0
601935,40,-1,229,0
601946,41,-2,228,0
601957,43,-2,227,0
601968,43,-2,226,0
601979,44,-2,228,0
601990,46,-2,226,0
602001,44,0,228,0
602012,45,0,228,0
602023,43,1,228,0
602034,43,1,229,0
602045,42,2,231,0
602056,42,0,231,0
602067,44,2,231,0
602078,41,-2,230,0
602089,41,-1,228,0
602100,41,-1,228,0
602111,39,0,226,0
602122,39,2,226,0
602133,39,1,228,0
602144,39,0,230,0
602155,41,1,230,0
602166,41,1,232,0
602177,40,1,232,0
602188,43,0,231,0
602199,42,0,230,0
602210,40,0,227,0
602221,40,1,229,0
602232,39,1,230,0
602243,39,0,228,0
602254,39,0,227,0
602265,37,0,227,0
602276,39,1,229,0
602287,37,3,231,0
602298,36,1,228,0
602309,36,1,228,0
602320,35,1,232,0
602331,37,1,232,0
602342,38,1,232,0
602353,38,2,230,0
602364,38,2,229,0
602375,37,2,228,0
602386,38,2,227,0
602397,38,2,228,0
602408,39,4,231,0
602419,39,5,233,0
602430,39,2,231,0
602442,39,1,229,0
602453,35,2,228,0
602464,33,2,231,0
602475,33,2,232,0
602486,36,0,232,0
602497,36,0,232,0
602508,37,1,232,0
602519,36,2,232,0
602530,37,2,228,0
602541,36,1,229,0
602552,37,2,229,0
602563,40,2,228,0
602574,40,2,227,0
602585,41,2,229,0
602596,43,3,230,0
602607,42,2,230,0
602619,42,2,232,0
602630,41,1,230,0
602641,40,3,233,0
602652,39,3,231,0
602663,39,2,229,0
602674,38,3,230,0
602685,38,2,227,0
602696,36,4,229,0
602707,37,1,224,0
602718,38,3,230,0
602729,37,5,231,0
602740,36,6,235,0
602751,35,3,232,0
602762,36,4,232,0
602773,39,3,229,0
602784,40,2,227,0
602795,40,0,222,0
602806,41,1,227,0
602817,39,3,229,0
602828,37,4,232,0
602839,38,5,231,0
602850,40,5,231,0
602861,40,5,231,0
602872,44,3,231,0
602883,43,4,233,0
602894,41,4,229,0
602905,42,6,232,0
602916,40,4,230,0
602927,39,4,229,0
602938,39,5,230,0
602949,37,7,229,0
602960,43,3,228,0
602971,41,2,227,0
602982,40,4,231,0
602993,38,4,230,0
603004,40,2,227,0
